AccX [mg],AccY,AccZ,Ground Truth
1043,163,168,0
1022,247,193,0
925,320,243,0
881,352,197,0
906,397,191,0
901,393,169,0
887,415,157,0
832,496,139,0
763,583,155,0
866,592,139,0
895,539,100,0
1191,567,34,0
1424,656,-73,0
780,590,96,0
704,517,136,0
1017,595,-106,0
1123,614,-94,0
941,450,17,0
912,430,75,0
1012,544,53,0
1046,550,32,0
992,605,95,0
883,557,160,0
782,488,154,0
681,432,144,0
607,341,158,0
618,332,195,0
901,363,113,0
782,343,126,0
645,370,330,0
872,368,392,0
1152,329,251,0
1162,129,182,0
1021,94,55,0
1013,283,127,0
956,399,97,0
884,449,113,0
902,556,206,0
828,697,395,0
814,670,447,0
950,526,323,0
1033,413,215,0
1026,356,191,0
1595,505,-32,0
890,581,59,0
566,497,200,0
648,465,6,0
1071,536,-326,0
1196,562,-296,0
1155,513,-159,0
1149,435,33,0
1163,228,130,0
1107,95,256,0
938,269,325,0
760,387,312,0
648,378,244,0
567,345,209,0
586,405,266,0
577,263,154,0
835,206,-92,0
810,386,-52,0
731,456,152,0
1120,445,246,0
1493,463,174,0
1180,232,128,0
906,365,271,0
898,308,288,0
911,234,250,0
883,213,290,0
778,261,355,0
730,346,385,0
817,393,325,0
1001,444,225,0
1083,431,120,0
1487,466,77,0
1283,492,109,0
804,425,144,0
692,397,114,0
921,468,-28,0
1138,509,-16,0
1056,501,58,0
1085,796,-33,0
1232,508,-103,0
1167,191,48,0
967,107,210,0
743,83,306,0
626,97,297,0
592,91,305,0
663,72,343,0
836,76,249,0
969,158,175,0
791,215,372,0
881,229,306,0
1219,271,166,0
1262,266,107,0
1127,185,20,0
1096,267,115,0
1012,376,142,0
892,426,152,0
859,460,153,0
840,540,150,0
810,540,187,0
811,451,215,0
951,397,167,0
1108,433,106,0
1602,568,14,0
903,494,59,0
640,354,129,0
940,363,-35,0
1235,520,-129,0
1057,383,-38,0
903,311,-5,0
917,360,4,0
958,377,-8,0
990,338,-68,0
903,394,-8,0
803,447,-7,0
657,418,-61,0
678,473,-81,0
778,498,-77,0
1160,447,-60,0
1093,457,227,0
819,554,938,0
1082,38,453,0
1139,15,282,0
1027,373,334,0
864,528,341,0
697,463,220,0
625,353,67,0
602,364,-25,0
614,391,-94,0
448,960,11,0
376,1367,91,0
561,722,174,0
852,120,327,0
936,350,380,0
1171,644,149,0
794,1294,-26,0
483,1060,-97,0
551,701,118,0
1178,291,329,0
1549,87,336,0
1195,-438,636,0
1003,-354,686,0
953,177,560,0
721,521,366,0
514,734,232,0
392,809,81,0
371,578,-40,0
410,476,-110,0
486,403,-182,0
769,383,-188,0
1115,289,-379,0
1022,489,-255,0
1070,824,58,0
1180,361,-364,0
980,408,-395,0
880,580,-23,0
843,679,-71,0
797,621,-135,0
751,690,-121,0
759,781,-147,0
754,692,-154,0
687,693,-34,0
695,532,-59,0
837,493,-43,0
861,600,-51,0
1412,762,-7,0
1286,699,-49,0
574,530,81,0
893,535,40,0
1380,624,-132,0
1252,568,-125,0
1067,374,5,0
1056,338,80,0
1073,355,71,0
956,494,162,0
776,481,201,0
622,412,217,0
482,366,263,0
443,372,256,0
442,375,199,0
527,339,183,0
895,390,77,0
885,397,164,0
805,504,389,0
1034,481,335,0
1329,333,94,0
1217,126,41,0
1061,227,175,0
1016,377,152,0
943,437,80,0
900,471,81,0
851,554,128,0
815,554,175,0
764,539,219,0
910,532,199,0
995,519,93,0
1216,558,13,0
1418,615,18,0
878,592,200,0
721,470,223,0
967,472,32,0
1218,513,-38,0
1079,444,46,0
1020,424,91,0
1036,417,116,0
985,375,71,0
872,386,73,0
720,374,150,0
635,344,151,0
614,313,157,0
606,277,159,0
714,279,130,0
1044,332,94,0
1006,361,229,0
1031,406,442,0
1149,351,395,0
1205,232,197,0
1153,137,140,0
1040,235,138,0
941,365,92,0
890,441,78,0
800,429,59,0
754,433,59,0
744,481,90,0
748,471,148,0
682,436,206,0
834,443,160,0
927,444,96,0
984,452,100,0
1356,603,84,0
845,528,103,0
649,415,151,0
933,438,-38,0
1335,553,-117,0
1095,438,4,0
983,395,81,0
1002,498,112,0
1033,830,-116,0
964,1091,-175,0
857,907,-148,0
595,732,-82,0
347,650,-48,0
277,502,-76,0
306,453,-29,0
370,478,103,0
771,376,-103,0
683,327,284,0
987,288,256,0
1284,336,25,0
1259,221,30,0
1074,278,110,0
1112,443,189,0
1087,554,212,0
1068,278,193,0
1199,318,179,0
1098,815,-255,0
735,1146,-336,0
777,825,-170,0
938,673,-233,0
1427,727,-374,0
1049,471,-267,0
790,455,-181,0
896,563,-336,0
1183,575,-460,0
1169,496,-380,0
1143,425,-364,0
1118,535,-363,0
1141,699,-310,0
1090,712,-237,0
1008,656,-130,0
920,446,11,0
834,314,142,0
764,244,166,0
842,9,171,0
866,242,171,0
800,519,494,0
893,323,570,0
995,70,277,0
1002,-58,260,0
935,89,301,0
864,242,280,0
907,315,219,0
1040,399,153,0
1131,504,164,0
1151,559,172,0
1102,625,163,0
1085,649,118,0
1044,440,165,0
1224,504,10,0
1256,887,-147,0
804,744,5,0
1014,510,-59,0
1136,546,-177,0
928,467,-22,0
852,440,20,0
948,430,-84,0
1052,417,-97,0
1129,389,-51,0
1133,353,-17,0
1176,372,-6,0
1103,357,47,0
1092,271,134,0
1306,22,47,0
933,77,281,0
770,22,474,0
945,10,332,0
907,14,220,0
790,132,267,0
690,283,364,0
669,296,349,0
738,312,304,0
902,395,274,0
1057,479,185,0
1075,574,197,0
999,514,269,0
969,462,262,0
909,471,238,0
1215,649,148,0
1226,791,103,0
808,507,166,0
1029,455,82,0
1161,555,-5,0
994,479,114,0
919,384,170,0
1024,382,86,0
1108,529,82,0
1183,768,-25,0
1234,1034,-79,0
950,873,-109,0
594,590,-2,0
361,447,152,0
275,359,244,0
393,271,285,0
535,321,285,0
457,159,427,0
629,32,486,0
940,116,347,0
1047,277,239,0
1163,379,186,0
1261,441,181,0
1354,458,16,0
1255,741,8,0
1016,946,33,0
819,760,87,0
836,543,154,0
871,386,7,0
920,653,-45,0
874,939,-31,0
801,929,-100,0
1156,983,-219,0
883,812,-150,0
695,688,-106,0
932,667,-223,0
1131,642,-251,0
987,572,-174,0
866,532,-98,0
870,600,-74,0
864,613,-24,0
771,658,0,0
626,673,77,0
446,737,29,0
303,795,-55,0
247,783,-123,0
267,753,-27,0
338,724,116,0
699,597,-18,0
628,584,93,0
580,595,333,0
642,443,284,0
741,204,186,0
891,132,191,0
928,299,305,0
965,394,375,0
1044,465,270,0
1075,584,240,0
958,708,325,0
848,514,403,0
856,376,403,0
940,472,326,0
992,580,267,0
995,561,243,0
1525,583,24,0
1061,673,21,0
666,565,227,0
691,455,128,0
927,552,-42,0
1066,415,30,0
1016,374,123,0
973,374,195,0
1074,329,104,0
1251,524,39,0
1221,631,-88,0
981,528,55,0
748,392,249,0
590,251,292,0
516,206,289,0
471,190,370,0
612,98,232,0
922,217,127,0
876,354,351,0
1103,322,453,0
1574,323,194,0
1422,323,-22,0
1055,285,65,0
932,374,171,0
874,523,205,0
895,630,225,0
831,539,208,0
825,433,149,0
790,457,192,0
840,470,168,0
917,490,99,0
879,471,57,0
1422,580,-107,0
1009,616,-59,0
812,550,44,0
1076,525,-31,0
1131,605,-38,0
1014,543,63,0
1016,564,159,0
1090,495,307,0
992,443,251,0
751,167,193,0
555,128,216,0
530,301,231,0
674,360,199,0
780,340,210,0
1095,347,135,0
1293,373,6,0
1107,360,171,0
1098,392,260,0
1036,371,128,0
993,287,50,0
991,291,49,0
886,386,88,0
828,463,146,0
828,470,157,0
818,452,114,0
790,489,154,0
796,515,165,0
826,523,145,0
928,470,106,0
975,469,42,0
1101,511,-3,0
1480,673,-101,0
805,582,-20,0
776,439,-3,0
1113,426,-190,0
1214,434,-192,0
1042,382,-29,0
997,478,121,0
1109,552,77,0
1065,627,115,0
924,606,276,0
757,535,239,0
625,472,222,0
563,381,256,0
542,304,248,0
615,274,222,0
872,254,75,0
692,245,80,0
756,363,288,0
1059,456,291,0
1244,428,40,0
1244,296,-72,0
1113,364,80,0
991,447,116,0
936,434,134,0
952,419,125,0
927,498,110,0
868,512,123,0
802,563,169,0
819,559,169,0
951,545,132,0
1004,509,120,0
1383,617,51,0
1109,666,52,0
793,475,86,0
889,383,-17,0
1139,409,-152,0
1224,393,-113,0
1023,304,-60,0
920,266,-94,0
908,298,-116,0
931,294,-154,0
865,449,-146,0
796,570,-201,0
738,658,-150,0
612,746,-64,0
574,759,-74,0
591,706,-57,0
662,609,0,0
883,487,-104,0
846,517,-127,0
886,630,-107,0
722,772,-242,0
682,628,-368,0
726,505,-575,0
560,550,-874,0
253,709,-1274,0
110,651,-1455,0
139,426,-1326,0
188,532,-1159,0
169,468,-852,0
157,431,-627,0
199,962,-287,0
108,297,-97,0
-50,303,-80,0
-262,373,-238,0
-329,238,-655,0
-373,634,-821,0
-454,411,-1027,0
-451,470,-1027,0
-320,579,-939,0
-193,580,-887,0
-174,694,-723,0
-258,663,-678,0
-284,680,-510,0
-306,625,-489,0
-290,720,-496,0
-225,707,-492,0
-161,627,-467,0
-111,589,-360,0
-62,547,-235,0
47,505,-177,0
259,487,-141,0
611,507,-148,0
1046,436,69,0
1849,487,379,0
1997,429,50,0
1420,763,-13,0
803,-339,410,0
880,-14,181,0
1092,614,-246,0
986,1046,-137,0
641,164,-42,0
405,434,113,0
753,509,93,0
932,582,95,0
1069,513,46,0
1079,461,56,0
1438,486,83,0
1163,539,83,0
888,501,106,0
833,435,42,0
1012,483,-53,0
1165,480,-43,0
1143,418,-3,0
1085,412,58,0
1048,514,96,0
1006,602,128,0
876,644,175,0
705,561,198,0
542,465,137,0
464,441,171,0
453,416,195,0
482,340,190,0
701,281,113,0
747,233,95,0
959,317,198,0
1164,377,210,0
1270,390,103,0
1310,479,171,0
1181,448,153,0
992,211,129,0
958,176,14,0
932,398,-155,0
809,453,-262,0
710,473,-181,0
697,614,51,0
789,606,180,0
841,538,140,0
914,452,129,0
981,418,74,0
1347,527,-30,0
1319,618,-81,0
900,563,29,0
654,455,103,0
870,490,-78,0
1140,512,-230,0
1047,443,-122,0
943,318,-5,0
940,386,137,0
970,412,62,0
942,565,43,0
877,484,123,0
787,397,109,0
698,351,93,0
672,369,127,0
663,388,131,0
865,348,74,0
1127,389,-54,0
1095,396,38,0
1181,504,226,0
1106,414,102,0
929,296,75,0
860,275,123,0
857,336,131,0
832,388,131,0
804,418,115,0
768,394,109,0
749,406,104,0
785,430,105,0
831,436,95,0
868,484,144,0
957,455,139,0
1012,444,98,0
1414,505,45,0
1268,563,11,0
778,439,95,0
692,388,97,0
954,466,-90,0
1172,486,-134,0
953,376,-74,0
874,328,-69,0
920,517,-139,0
990,746,-137,0
933,669,-49,0
912,747,1,0
876,807,59,0
730,753,175,0
637,560,212,0
579,482,230,0
545,397,314,0
620,265,224,0
588,313,171,0
583,336,338,0
735,314,348,0
885,271,184,0
1035,215,125,0
1114,315,112,0
1026,429,163,0
1045,454,162,0
1007,503,137,0
1006,517,179,0
993,571,213,0
909,545,215,0
876,537,235,0
931,582,204,0
1015,560,143,0
1086,522,122,0
1321,612,71,0
1129,531,53,0
782,437,87,0
763,508,58,0
1004,522,-31,0
1159,371,-45,0
1078,317,-9,0
1034,465,19,0
1007,578,84,0
970,536,199,0
865,578,304,0
717,571,330,0
560,489,337,0
445,417,344,0
417,372,318,0
500,347,280,0
598,351,139,0
768,428,217,0
1079,440,312,0
1154,448,288,0
1210,237,171,0
1201,199,26,0
1012,384,114,0
874,498,255,0
857,541,261,0
845,529,224,0
834,403,236,0
814,376,221,0
802,417,203,0
867,431,192,0
945,468,138,0
989,423,131,0
1392,467,110,0
1164,580,55,0
749,463,152,0
829,441,140,0
1030,563,2,0
984,471,80,0
847,267,282,0
839,301,262,0
897,390,247,0
862,417,196,0
850,371,192,0
906,299,173,0
945,317,147,0
1006,292,154,0
1128,185,107,0
1403,169,-71,0
1196,379,104,0
880,296,281,0
730,243,295,0
667,146,294,0
759,290,242,0
759,376,188,0
747,349,198,0
781,345,198,0
807,390,156,0
846,421,161,0
873,435,182,0
830,486,226,0
908,438,263,0
996,456,224,0
1084,480,185,0
1430,595,127,0
960,529,94,0
708,376,176,0
875,427,60,0
1098,468,-41,0
964,394,9,0
848,363,45,0
867,511,-29,0
898,609,-70,0
886,638,-99,0
796,636,-6,0
790,654,-18,0
756,689,-10,0
727,616,5,0
758,551,20,0
898,481,-12,0
894,481,-103,0
750,545,64,0
734,517,178,0
734,362,72,0
780,213,89,0
853,269,133,0
845,330,136,0
830,332,127,0
881,373,139,0
925,404,115,0
956,448,142,0
946,466,200,0
924,508,226,0
913,530,256,0
909,510,176,0
1062,483,66,0
1574,631,-38,0
1025,619,3,0
856,453,-32,0
1010,460,-180,0
979,539,-183,0
907,382,-197,0
931,438,-267,0
1064,539,-347,0
1134,588,-359,0
1100,528,-307,0
1025,529,-222,0
965,521,-147,0
912,449,-38,0
884,358,52,0
813,321,164,0
825,224,225,0
959,229,36,0
809,366,409,0
928,353,511,0
953,289,327,0
960,72,235,0
905,139,183,0
894,373,189,0
897,514,194,0
913,586,199,0
932,635,207,0
925,652,117,0
881,601,57,0
906,361,59,0
981,391,27,0
1298,569,6,0
1364,685,-77,0
746,466,65,0
859,422,44,0
1011,630,-141,0
939,502,-122,0
953,323,-73,0
952,368,-4,0
935,423,123,0
947,409,213,0
977,367,277,0
1009,281,168,0
1031,222,149,0
1031,235,168,0
974,196,181,0
1144,52,-136,0
912,299,-131,0
750,463,185,0
932,368,176,0
955,355,102,0
800,219,108,0
707,236,88,0
689,358,170,0
703,402,221,0
813,423,217,0
940,450,201,0
1020,471,180,0
1098,532,179,0
1156,573,163,0
1121,493,219,0
1569,598,92,0
939,701,71,0
664,461,226,0
990,419,86,0
1243,628,-49,0
1078,506,17,0
982,332,83,0
1002,413,126,0
1024,510,99,0
945,364,176,0
801,335,212,0
690,211,300,0
717,214,348,0
776,170,499,0
818,-1,543,0
973,152,423,0
767,242,419,0
733,241,598,0
811,124,553,0
931,238,532,0
918,526,482,0
856,354,366,0
732,261,453,0
706,107,624,0
649,24,705,0
585,172,773,0
577,233,915,0
604,31,954,0
577,110,836,0
638,255,830,0
669,566,776,0
934,657,711,0
809,533,700,0
891,317,670,0
951,224,649,0
813,113,710,0
754,54,739,0
776,11,748,0
733,33,705,0
619,-6,663,0
568,-1,616,0
577,28,561,0
641,35,558,0
738,67,520,0
878,88,523,0
1233,207,452,0
970,233,428,0
920,131,626,0
1019,142,601,0
952,125,513,0
831,151,515,0
742,279,583,0
629,191,435,0
621,82,336,0
741,65,364,0
811,150,453,0
872,206,484,0
903,240,403,0
1088,416,315,0
1145,481,181,0
1512,609,48,0
1219,702,0,0
752,511,142,0
846,480,69,0
1001,542,-41,0
983,505,43,0
932,351,90,0
999,370,201,0
1056,497,131,0
1015,620,195,0
906,447,274,0
772,373,265,0
683,364,305,0
666,320,321,0
688,256,327,0
914,230,227,0
889,283,219,0
861,270,436,0
1017,236,396,0
1127,175,174,0
1041,110,94,0
970,288,138,0
877,360,202,0
807,295,130,0
840,313,103,0
913,398,63,0
973,418,90,0
996,447,127,0
1031,535,197,0
1046,517,178,0
1063,530,146,0
1281,601,73,0
1249,762,55,0
798,542,203,0
714,405,189,0
994,543,-16,0
1160,559,-54,0
1064,401,33,0
1159,434,97,0
1308,462,-78,0
1217,797,-15,0
1102,795,42,0
861,569,77,0
620,291,126,0
510,210,244,0
487,149,344,0
591,67,279,0
707,112,234,0
795,147,388,0
1025,198,364,0
1268,212,236,0
1338,212,76,0
1238,282,-65,0
1136,474,113,0
1035,492,131,0
966,501,93,0
928,508,58,0
917,551,62,0
885,572,71,0
850,614,148,0
857,664,214,0
988,639,199,0
1142,593,159,0
1409,665,38,0
937,626,111,0
781,461,158,0
998,416,-41,0
1188,449,-96,0
1087,456,-28,0
1072,358,-27,0
1118,477,-34,0
1165,618,-26,0
1148,552,105,0
1011,606,242,0
942,749,309,0
799,588,320,0
541,319,335,0
392,246,380,0
518,215,389,0
488,177,340,0
685,241,344,0
785,291,309,0
858,221,253,0
992,180,135,0
1126,307,34,0
1191,330,57,0
1272,302,106,0
1367,271,62,0
1361,399,-65,0
1274,741,16,0
1034,912,148,0
859,807,159,0
966,639,83,0
1273,669,-34,0
1197,662,-88,0
982,593,107,0
765,614,140,0
780,587,-29,0
1050,485,-177,0
1095,360,-144,0
1114,283,-76,0
1180,321,-58,0
1237,442,-60,0
1249,498,34,0
1118,468,140,0
967,384,247,0
817,356,290,0
724,329,411,0
716,233,476,0
825,48,301,0
690,82,376,0
740,206,528,0
827,150,423,0
925,110,297,0
1029,128,168,0
1091,260,96,0
1045,339,118,0
984,367,58,0
989,431,107,0
986,473,110,0
983,461,135,0
944,437,163,0
891,470,219,0
889,563,301,0
1075,595,375,0
1037,601,373,0
1308,735,265,0
1153,768,138,0
912,587,202,0
770,434,225,0
1030,413,-7,0
1314,430,-149,0
1254,402,-91,0
1154,330,-70,0
1118,394,-134,0
1109,462,-194,0
1021,458,-111,0
878,416,11,0
768,396,107,0
696,398,176,0
687,363,305,0
696,250,396,0
824,44,297,0
1008,3,221,0
890,95,386,0
1007,249,470,0
1111,267,382,0
1160,247,273,0
1172,208,130,0
1080,289,130,0
946,355,202,0
874,407,204,0
845,467,221,0
826,468,191,0
778,445,255,0
776,441,279,0
796,469,298,0
943,419,254,0
1021,419,183,0
1460,523,76,0
1050,573,128,0
704,439,211,0
855,403,99,0
1141,528,-76,0
1154,455,-45,0
1052,319,25,0
1059,357,47,0
1097,455,39,0
1061,533,19,0
953,647,102,0
866,594,90,0
748,506,108,0
640,467,127,0
590,415,137,0
600,376,163,0
757,325,59,0
658,349,72,0
754,448,266,0
913,399,274,0
1066,332,134,0
1145,293,49,0
1109,389,48,0
961,387,144,0
898,332,206,0
913,409,256,0
911,377,287,0
832,332,315,0
830,358,312,0
819,383,282,0
887,390,279,0
1023,394,224,0
1054,397,194,0
1350,422,129,0
1211,502,117,0
990,432,150,0
820,409,193,0
995,447,75,0
1091,408,66,0
976,319,119,0
965,311,120,0
954,410,153,0
939,406,175,0
816,274,210,0
773,190,163,0
762,233,150,0
790,265,159,0
872,280,130,0
1034,284,66,0
1358,279,-137,0
1179,398,-51,0
1097,532,247,0
977,395,222,0
868,260,135,0
780,193,143,0
739,272,211,0
700,381,258,0
684,406,314,0
722,386,312,0
815,423,349,0
879,362,319,0
892,303,298,0
1005,291,293,0
1077,309,218,0
1240,342,171,0
1405,538,144,0
800,416,166,0
714,285,181,0
971,394,25,0
1116,551,-8,0
935,378,81,0
851,311,126,0
886,521,83,0
922,612,57,0
862,672,78,0
786,674,90,0
716,641,69,0
625,604,82,0
546,579,108,0
536,556,154,0
656,486,145,0
772,461,20,0
720,471,130,0
811,468,287,0
903,360,204,0
981,244,159,0
1027,175,79,0
972,286,155,0
909,342,234,0
915,370,214,0
916,385,217,0
938,347,134,0
918,389,51,0
843,660,-16,0
764,821,-50,0
788,795,-4,0
920,571,-44,0
1289,544,-36,0
1321,675,-72,0
1016,579,-60,0
749,424,48,0
740,359,-35,0
910,377,-115,0
978,426,-115,0
919,358,-105,0
864,701,-127,0
1030,1020,-214,0
1013,425,200,0
842,481,580,0
641,502,507,0
482,263,499,0
384,239,555,0
333,214,541,0
346,196,524,0
500,279,460,0
530,211,300,0
713,211,247,0
960,361,379,0
1177,384,299,0
1258,298,41,0
1157,280,24,0
1020,278,149,0
985,338,212,0
986,386,251,0
937,420,238,0
864,393,216,0
843,394,202,0
829,399,197,0
790,395,198,0
846,417,213,0
1000,389,135,0
1444,442,42,0
1168,492,76,0
938,371,104,0
796,353,85,0
834,383,-27,0
1003,376,-63,0
1024,420,-46,0
959,423,-25,0
967,398,0,0
977,529,11,0
935,592,73,0
887,633,128,0
792,700,220,0
685,650,298,0
589,561,311,0
522,544,312,0
523,512,327,0
547,450,336,0
637,397,237,0
629,372,188,0
704,433,205,0
794,471,229,0
972,367,264,0
1094,263,186,0
1027,275,144,0
931,276,109,0
963,299,22,0
1050,367,-36,0
930,402,71,0
737,502,280,0
794,506,398,0
797,589,328,0
907,558,328,0
1107,404,194,0
1129,390,225,0
1452,406,185,0
1160,497,65,0
835,431,118,0
639,393,171,0
777,376,8,0
1038,439,-59,0
1018,449,-51,0
999,441,-55,0
1005,430,-47,0
1004,418,-51,0
991,479,-15,0
900,536,227,0
885,555,310,0
812,587,226,0
765,524,367,0
666,421,399,0
628,364,380,0
713,329,330,0
812,339,230,0
782,367,269,0
886,357,263,0
940,240,47,0
960,246,-35,0
964,294,-33,0
820,400,87,0
797,405,175,0
871,442,215,0
920,471,274,0
947,492,343,0
914,566,377,0
875,571,382,0
1000,574,341,0
1128,536,247,0
1455,545,49,0
1111,704,39,0
791,702,130,0
865,618,-11,0
1047,529,-145,0
1070,454,-74,0
1079,378,-24,0
1114,399,-35,0
1218,442,-46,0
1215,418,-72,0
1046,493,41,0
900,515,185,0
727,340,155,0
608,279,176,0
544,310,238,0
534,268,263,0
795,249,105,0
638,259,260,0
840,381,572,0
1186,422,453,0
1227,222,232,0
1075,78,113,0
976,287,177,0
952,435,212,0
928,428,210,0
828,411,219,0
746,407,163,0
714,390,88,0
704,402,116,0
776,497,142,0
941,540,129,0
1055,521,142,0
1582,642,79,0
1012,592,114,0
717,466,305,0
851,474,170,0
1114,560,-45,0
1098,438,-12,0
1004,332,84,0
1059,248,179,0
1093,310,60,0
1037,1051,-355,0
883,1085,-218,0
775,765,-158,0
566,525,-127,0
434,460,-119,0
417,410,-139,0
519,452,-42,0
858,351,-169,0
953,318,-242,0
888,299,10,0
994,300,83,0
946,322,59,0
1062,248,153,0
1275,360,219,0
1473,481,125,0
1475,595,38,0
1056,717,-12,0
860,407,386,0
859,446,100,0
828,860,-271,0
694,738,-309,0
828,611,-96,0
1033,467,7,0
1381,487,-141,0
1086,592,-225,0
976,505,-277,0
1062,386,-294,0
1212,303,-215,0
1119,289,-156,0
1007,321,-152,0
1040,432,-180,0
1157,603,-224,0
1241,523,-144,0
1083,429,81,0
810,382,118,0
622,386,129,0
474,448,167,0
355,244,257,0
341,165,288,0
746,214,215,0
1021,496,-31,0
894,986,-336,0
700,1207,-388,0
667,1000,-352,0
661,695,-309,0
617,552,-329,0
573,543,-161,0
534,570,-41,0
571,507,-25,0
665,451,17,0
745,430,80,0
824,450,124,0
934,474,146,0
1080,433,84,0
1297,397,10,0
1680,598,19,0
918,594,115,0
755,426,188,0
903,460,-25,0
1021,686,-69,0
965,633,-50,0
1023,506,7,0
1079,493,-11,0
1084,674,-82,0
992,739,-69,0
859,593,-17,0
721,491,-4,0
629,559,-21,0
582,580,10,0
498,401,90,0
514,321,137,0
688,338,69,0
656,289,188,0
868,261,351,0
1250,242,144,0
1299,192,2,0
1195,229,89,0
1062,324,119,0
974,369,135,0
955,413,94,0
907,426,90,0
954,399,114,0
963,437,95,0
1023,501,124,0
1094,566,79,0
1119,591,3,0
1556,676,-137,0
981,668,-40,0
716,513,101,0
825,446,-54,0
1129,495,-162,0
1134,477,-81,0
1081,301,-90,0
1098,428,-54,0
1091,356,-103,0
1072,453,-11,0
979,409,55,0
908,385,63,0
827,323,58,0
751,273,87,0
743,278,164,0
769,296,249,0
968,170,139,0
1063,244,69,0
799,296,210,0
1037,350,242,0
1237,421,73,0
1163,380,-15,0
1007,405,78,0
841,308,127,0
798,254,79,0
839,346,114,0
811,436,109,0
797,682,276,0
714,492,267,0
1026,414,76,0
1417,547,-67,0
1579,657,-79,0
1018,450,113,0
838,276,143,0
1102,393,-75,0
1250,533,-88,0
1130,278,28,0
967,253,28,0
913,354,18,0
862,420,22,0
817,380,35,0
773,306,91,0
786,395,140,0
839,408,265,0
933,338,282,0
1181,101,-62,0
1077,170,106,0
1179,453,393,0
1127,328,284,0
1042,232,145,0
1026,205,26,0
928,295,-24,0
845,303,-37,0
808,357,30,0
777,355,48,0
793,274,48,0
713,362,-67,0
667,549,102,0
700,568,138,0
747,606,196,0
906,635,222,0
1282,589,138,0
1495,434,13,0
1332,337,37,0
1059,408,88,0
968,436,48,0
1088,382,-8,0
1075,360,68,0
930,302,57,0
884,327,43,0
851,341,94,0
840,316,196,0
867,266,194,0
913,228,138,0
935,248,179,0
932,297,245,0
1023,250,269,0
1313,175,20,0
994,225,89,0
1211,410,321,0
1357,457,318,0
1017,249,140,0
727,143,97,0
729,236,49,0
752,391,-20,0
756,490,58,0
773,522,137,0
829,524,190,0
795,530,309,0
873,461,337,0
1003,373,288,0
1168,342,249,0
1393,351,230,0
1671,426,262,0
1364,314,169,0
1423,226,-11,0
1401,244,-116,0
1208,329,-17,0
926,236,-23,0
694,192,-95,0
654,226,-92,0
610,184,-4,0
574,182,72,0
602,298,61,0
653,518,91,0
680,617,112,0
654,611,128,0
648,635,202,0
726,549,273,0
878,537,107,0
853,509,47,0
809,585,181,0
798,518,168,0
911,467,154,0
1007,360,87,0
947,290,50,0
880,326,99,0
909,381,111,0
932,445,138,0
864,450,133,0
837,423,148,0
808,399,144,0
815,400,169,0
868,399,175,0
1016,391,142,0
1364,449,95,0
1441,468,114,0
1224,403,132,0
839,343,54,0
777,314,-49,0
833,392,5,0
856,606,266,0
739,686,-108,0
875,566,-431,0
1067,452,-388,0
1086,202,-89,0
984,117,172,0
962,358,203,0
864,490,262,0
672,579,238,0
636,778,245,0
622,695,317,0
719,344,166,0
656,310,155,0
869,389,276,0
970,289,155,0
919,112,63,0
965,125,76,0
929,315,125,0
838,428,131,0
827,449,124,0
899,396,218,0
950,365,155,0
1004,392,229,0
965,407,212,0
884,469,246,0
840,476,280,0
896,437,239,0
1149,384,188,0
1460,516,212,0
1328,389,131,0
1031,297,147,0
978,366,78,0
959,494,154,0
872,484,16,0
893,478,-181,0
883,459,-155,0
820,502,-51,0
750,591,86,0
646,483,58,0
537,665,-1,0
474,695,191,0
429,788,256,0
415,815,267,0
461,600,328,0
613,315,269,0
768,334,121,0
1063,651,240,0
1053,635,290,0
914,647,215,0
922,514,113,0
962,279,100,0
895,80,123,0
926,178,135,0
937,356,210,0
841,441,175,0
787,446,157,0
741,520,149,0
773,507,269,0
888,510,323,0
970,466,392,0
993,289,301,0
1069,157,183,0
1404,259,91,0
1311,505,120,0
1097,460,99,0
887,376,17,0
885,441,-9,0
844,406,-34,0
773,400,-48,0
840,400,-60,0
885,432,-63,0
903,480,7,0
805,634,112,0
719,652,392,0
667,535,443,0
711,437,430,0
661,419,382,0
627,410,336,0
674,125,263,0
876,73,240,0
1274,322,420,0
1288,307,364,0
1077,150,94,0
870,72,63,0
793,147,49,0
760,296,-23,0
820,412,-2,0
862,482,92,0
833,458,194,0
860,391,286,0
938,345,289,0
1031,315,179,0
1047,277,185,0
1121,342,293,0
1439,498,384,0
1162,587,381,0
935,425,281,0
989,365,90,0
958,560,93,0
806,547,140,0
829,384,141,0
917,321,106,0
943,426,69,0
943,524,107,0
863,447,122,0
825,329,183,0
905,333,250,0
995,398,304,0
1110,248,220,0
1048,206,88,0
887,292,174,0
786,269,195,0
770,238,327,0
730,190,240,0
807,244,141,0
842,290,201,0
816,339,244,0
876,304,252,0
972,343,169,0
943,420,124,0
998,550,228,0
969,575,243,0
983,491,254,0
1058,382,208,0
1143,428,159,0
1329,625,99,0
1120,572,69,0
1098,344,37,0
909,454,60,0
913,535,73,0
974,437,5,0
950,377,3,0
998,446,-8,0
1176,539,-30,0
1085,506,116,0
946,532,230,0
850,517,218,0
731,455,240,0
687,373,261,0
681,330,290,0
680,289,336,0
780,230,313,0
856,145,207,0
832,145,353,0
900,157,349,0
889,155,214,0
998,241,190,0
1106,294,222,0
1029,169,291,0
1004,139,151,0
1034,335,262,0
996,508,298,0
869,591,336,0
874,509,303,0
844,569,308,0
847,542,270,0
915,500,250,0
1047,431,200,0
1198,435,129,0
1429,569,121,0
1346,479,124,0
980,413,103,0
944,409,-39,0
1120,414,-38,0
1115,326,11,0
1001,198,-29,0
921,305,-47,0
908,300,-29,0
846,254,-23,0
704,241,-25,0
528,388,13,0
406,1234,468,0
706,1521,357,0
608,388,1011,0
541,-182,1165,0
786,553,484,0
883,921,287,0
1180,738,39,0
1105,601,-247,0
987,355,-281,0
979,261,-160,0
875,216,-194,0
695,275,-95,0
608,366,127,0
654,354,142,0
830,351,268,0
877,361,479,0
973,327,516,0
980,319,614,0
968,349,628,0
954,340,564,0
1031,365,449,0
1053,408,369,0
1375,489,251,0
1356,592,196,0
1061,429,217,0
780,299,231,0
833,343,80,0
963,435,21,0
911,426,69,0
825,357,37,0
805,461,30,0
844,555,70,0
826,612,46,0
787,716,71,0
717,672,-54,0
681,548,72,0
628,361,220,0
537,313,223,0
504,281,342,0
704,200,404,0
967,132,446,0
1095,-35,718,0
1375,-67,597,0
1459,42,338,0
1273,175,244,0
1070,267,176,0
955,330,104,0
837,329,-66,0
783,452,-27,0
758,540,27,0
749,523,4,0
717,507,134,0
758,466,148,0
883,420,79,0
848,434,106,0
1356,535,32,0
1263,827,290,0
759,924,857,0
1323,789,462,0
1473,496,206,0
1281,244,101,0
1256,538,220,0
1221,819,329,0
1122,810,108,0
904,835,64,0
800,999,342,0
779,879,651,0
583,734,706,0
459,522,658,0
345,308,718,0
201,142,662,0
12,125,647,0
162,309,774,0
273,248,753,0
250,1,679,0
158,31,729,0
83,119,796,0
-9,81,850,0
-92,-47,767,0
-180,-59,763,0
-279,-68,799,0
-361,-78,826,0
-448,-66,863,0
-529,-88,936,0
-786,-29,1105,0
-755,-74,1224,0
-586,-210,1260,0
-256,-298,1121,0
-193,-166,1022,0
-163,-78,907,0
-85,196,678,0
-378,-284,169,0
-1015,-829,-323,0
-1054,-990,-240,0
-790,-140,131,0
-699,-110,436,0
-733,-262,573,0
-767,-469,623,0
-772,-583,614,0
-817,-617,526,0
-871,-544,522,0
-928,-478,566,0
-861,-492,578,0
-1043,-548,514,0
-1050,-412,608,0
-1001,-419,833,0
-793,-453,883,0
-609,-384,743,0
-400,-311,550,0
-408,-248,536,0
-405,-266,529,0
-404,-298,450,0
-462,-327,562,0
-508,-371,497,0
-535,-469,493,0
-570,-404,577,0
-606,-390,633,0
-648,-619,695,0
-610,-838,583,0
-456,-926,117,0
-358,-916,-486,0
-209,-543,-289,0
360,-94,393,0
344,1165,1055,0
-464,1351,889,0
493,1512,-224,0
233,1900,771,0
-165,952,1598,0
-462,866,1393,0
-109,1085,997,0
0,593,891,0
152,453,482,0
-83,110,-93,0
-162,-12,-455,0
1252,1334,-1003,0
762,1510,-159,0
1116,1640,680,0
980,1213,-39,0
1097,250,-337,0
1094,-413,2,0
953,-65,265,0
1001,440,412,0
881,682,728,0
965,418,510,0
876,166,353,0
812,186,183,0
971,359,9,0
1137,611,-2,0
1382,606,335,0
1449,396,497,0
1357,398,311,0
970,673,238,0
547,421,200,0
436,554,114,0
461,456,-19,0
530,431,-56,0
549,464,-88,0
653,438,-161,0
772,598,-188,0
834,654,-286,0
878,902,-335,0
870,980,-416,0
916,810,-591,0
1017,923,-655,0
1076,1028,-626,0
1274,1174,-395,0
1184,1021,-581,0
1042,1564,-292,0
1000,1328,-516,0
928,1649,-599,0
608,483,1536,0
72,835,-203,0
-11,476,-262,0
-16,175,-13,0
-68,-222,122,0
-93,-477,480,0
-141,-427,632,0
-243,-223,700,0
-367,-231,711,0
-522,15,627,0
-726,175,410,0
-952,351,326,0
-748,1105,262,0
-584,1952,-361,0
-559,1951,-728,0
-762,1477,-674,0
-666,1269,-311,0
-427,599,22,0
-380,291,279,0
-286,-251,347,0
-344,-501,336,0
-306,-496,539,0
-352,-494,680,0
-615,-251,440,0
-744,-138,210,0
-784,182,226,0
-796,136,202,0
-567,463,20,0
-398,1660,-485,0
-194,1997,-1099,0
-219,1904,-920,0
-167,1424,-449,0
-300,972,-236,0
-398,556,32,0
-348,262,172,0
-390,-40,392,0
-437,-513,591,0
-529,-366,468,0
-575,-444,425,0
-639,-242,485,0
-679,-24,549,0
-560,180,818,0
-289,569,310,0
-11,1842,-917,0
-151,1996,-1551,0
-803,1904,-1118,0
-652,973,-528,0
-466,463,-59,0
-401,39,132,0
-383,-77,289,0
-345,-191,341,0
-374,-225,357,0
-527,10,479,0
-659,100,320,0
-715,167,147,0
-731,489,-96,0
-654,1571,-1304,0
-455,1892,-1982,0
-616,1692,-1681,0
-738,924,-741,0
-609,382,34,0
-414,28,510,0
-323,-77,602,0
-318,39,692,0
-249,80,707,0
-289,33,451,0
-305,270,302,0
-343,534,143,0
-375,1117,-322,0
-521,1665,-1191,0
-371,1800,-1342,0
-762,1156,-952,0
-969,182,-109,0
-864,81,1049,0
-935,-327,1337,0
-1059,130,-119,0
-833,351,213,0
-560,-61,11,0
-407,-110,40,0
-276,-89,118,0
-74,30,210,0
50,175,78,0
604,1061,-928,0
777,1817,-692,0
592,703,-346,0
795,290,135,0
1014,166,281,0
1191,383,422,0
1244,228,217,0
1448,507,19,0
1639,742,-164,0
1906,849,-233,0
1826,1003,-82,0
1314,822,-61,0
854,596,-37,0
691,370,-28,0
633,366,-129,0
589,494,-102,0
494,675,113,0
720,803,106,0
803,672,-13,0
830,526,-75,0
889,431,-97,0
1059,426,-59,0
1220,363,-96,0
1584,306,-191,0
1679,523,-174,0
1321,640,-55,0
1129,381,-25,0
1108,333,-109,0
999,533,-76,0
868,475,209,0
717,415,307,0
665,399,416,0
554,439,345,0
456,413,254,0
395,552,218,0
341,831,201,0
168,826,126,0
-28,1087,-86,0
238,1145,-186,0
561,665,-12,0
814,668,649,0
1079,625,801,0
1051,499,385,0
922,174,178,0
765,91,80,0
696,233,60,0
724,445,124,0
741,443,95,0
761,442,105,0
878,451,85,0
1002,548,60,0
1057,629,122,0
1074,700,168,0
974,690,143,0
922,570,182,0
1017,453,216,0
1130,540,200,0
1279,608,107,0
1134,520,22,0
1011,369,-48,0
1056,406,-56,0
1167,483,-83,0
1142,389,-123,0
1106,407,-171,0
1021,410,-203,0
1010,683,-114,0
928,647,-4,0
807,580,-7,0
658,541,94,0
579,500,170,0
517,496,250,0
457,459,273,0
428,380,236,0
472,364,333,0
652,307,304,0
742,240,159,0
993,370,281,0
1055,374,407,0
1146,234,356,0
1275,99,104,0
1263,189,38,0
1169,313,49,0
1086,415,49,0
1061,459,-14,0
958,509,-3,0
869,479,-13,0
847,478,-16,0
843,462,-1,0
858,519,60,0
871,496,105,0
956,409,58,0
1440,553,10,0
1146,667,87,0
907,472,168,0
863,348,86,0
965,449,65,0
915,505,126,0
911,406,116,0
1033,334,92,0
950,421,112,0
788,538,141,0
648,629,205,0
609,638,268,0
633,637,306,0
697,582,284,0
977,534,217,0
1337,411,28,0
1115,332,-153,0
788,510,143,0
789,605,342,0
665,523,266,0
685,344,267,0
984,370,203,0
895,188,57,0
881,180,-43,0
927,329,75,0
839,532,121,0
700,515,133,0
670,421,174,0
775,443,222,0
860,461,225,0
928,369,164,0
1233,388,135,0
1413,574,156,0
1277,518,0,0
916,553,-29,0
1008,612,-91,0
1054,422,22,0
886,209,-58,0
911,359,8,0
984,432,10,0
1028,433,-20,0
832,514,-40,0
649,585,11,0
552,579,21,0
548,687,66,0
536,709,79,0
494,662,137,0
443,613,209,0
559,557,146,0
824,583,193,0
967,619,268,0
1043,556,305,0
1040,364,191,0
1048,126,180,0
869,169,234,0
716,287,301,0
569,484,483,0
627,543,786,0
714,394,624,0
836,396,512,0
906,358,338,0
904,403,189,0
976,485,116,0
933,614,66,0
955,613,70,0
1230,700,97,0
809,719,191,0
900,714,243,0
943,823,348,0
940,519,406,0
937,504,479,0
943,496,462,0
933,379,495,0
917,79,459,0
931,83,444,0
851,146,465,0
650,177,527,0
495,133,503,0
415,99,469,0
462,116,376,0
681,152,257,0
1083,184,-21,0
1031,414,2,0
923,540,74,0
857,584,311,0
892,411,147,0
898,386,-64,0
946,934,2,0
780,1167,219,0
633,889,252,0
618,937,250,0
568,881,142,0
539,1015,135,0
520,1293,163,0
647,1615,139,0
667,1400,-186,0
440,1154,-363,0
320,1035,-264,0
247,1000,-75,0
265,826,-35,0
285,781,-14,0
423,851,-20,0
534,796,-12,0
592,771,-24,0
589,712,-4,0
533,722,36,0
434,690,62,0
387,692,104,0
322,727,140,0
292,900,161,0
293,890,287,0
319,708,365,0
417,662,297,0
529,846,320,0
718,871,487,0
702,713,450,0
701,582,366,0
691,559,371,0
625,599,357,0
569,702,414,0
475,624,399,0
385,527,195,0
442,540,141,0
544,600,172,0
668,760,254,0
753,826,342,0
813,764,340,0
1049,831,308,0
1136,929,323,0
851,740,247,0
653,594,249,0
804,522,285,0
891,386,383,0
923,269,309,0
848,195,232,0
793,204,267,0
774,244,295,0
790,264,308,0
819,274,300,0
891,286,267,0
978,320,251,0
960,301,251,0
1007,197,118,0
1258,178,-99,0
1162,266,-43,0
1207,467,52,0
857,436,120,0
750,345,111,0
847,314,43,0
923,338,-44,0
920,323,-25,0
888,334,27,0
832,417,137,0
855,386,131,0
859,379,129,0
831,343,143,0
792,332,123,0
797,350,145,0
783,357,165,0
797,386,193,0
850,374,239,0
1226,437,201,0
1260,463,153,0
1083,431,208,0
858,376,284,0
758,395,180,0
896,421,75,0
959,399,57,0
953,337,49,0
912,401,105,0
946,434,166,0
963,532,127,0
968,632,188,0
938,615,179,0
854,553,187,0
732,469,161,0
636,423,131,0
622,405,161,0
671,399,197,0
795,371,180,0
1074,297,32,0
1039,254,-11,0
1160,379,51,0
1115,468,166,0
864,361,135,0
806,267,69,0
980,364,80,0
1021,396,30,0
934,367,83,0
871,398,106,0
860,419,103,0
820,434,97,0
794,458,174,0
806,460,181,0
809,423,217,0
806,405,212,0
788,407,210,0
768,399,203,0
733,362,204,0
1042,405,175,0
1309,469,78,0
1225,400,-8,0
1132,398,69,0
893,402,30,0
724,351,20,0
755,375,-16,0
875,440,-58,0
954,495,-93,0
948,533,-120,0
923,541,-100,0
881,602,-79,0
861,660,-21,0
807,661,4,0
743,670,43,0
672,640,99,0
626,586,122,0
602,559,139,0
600,525,188,0
643,463,179,0
816,426,82,0
799,387,86,0
884,396,123,0
1011,499,201,0
988,452,162,0
952,359,105,0
997,354,68,0
1117,419,57,0
1015,397,100,0
881,369,101,0
862,383,101,0
838,378,65,0
804,424,90,0
765,431,133,0
754,443,173,0
776,424,190,0
781,430,203,0
810,415,209,0
829,429,191,0
825,438,183,0
1094,456,151,0
1318,518,111,0
1044,429,82,0
873,403,125,0
752,478,83,0
745,426,23,0
933,396,-20,0
1140,509,-55,0
1120,515,-161,0
1018,582,-105,0
970,633,8,0
962,759,-2,0
935,819,9,0
848,855,38,0
710,820,124,0
547,711,165,0
419,607,191,0
330,544,235,0
277,471,286,0
247,340,308,0
379,268,246,0
693,334,150,0
704,317,234,0
779,359,376,0
933,361,335,0
1164,345,170,0
1277,287,53,0
1214,351,98,0
1126,419,185,0
1065,468,144,0
1064,476,119,0
1022,528,119,0
931,542,156,0
872,593,215,0
810,605,204,0
771,630,208,0
818,591,165,0
1043,570,106,0
1477,606,20,0
1125,487,16,0
988,451,31,0
921,443,-65,0
1100,416,-109,0
1168,364,-96,0
1094,302,-133,0
998,287,-126,0
937,294,-124,0
919,322,-94,0
875,299,-80,0
831,293,-77,0
828,336,-21,0
835,356,21,0
814,353,96,0
917,309,129,0
1201,348,31,0
937,336,203,0
835,390,416,0
811,406,427,0
919,284,267,0
1033,220,220,0
1014,331,245,0
863,369,208,0
860,388,167,0
847,420,152,0
814,424,153,0
792,431,174,0
753,438,176,0
753,446,183,0
806,445,185,0
821,416,161,0
1164,482,131,0
1327,537,87,0
983,419,13,0
788,354,53,0
879,396,21,0
1124,427,-30,0
1154,371,-67,0
1016,273,-60,0
925,303,-40,0
868,310,-40,0
870,277,-33,0
924,294,12,0
880,282,26,0
883,277,69,0
946,303,129,0
1030,313,131,0
1143,268,53,0
941,290,148,0
877,376,283,0
902,399,308,0
883,280,174,0
899,278,114,0
999,382,160,0
958,421,144,0
862,422,159,0
888,437,158,0
890,441,142,0
868,413,168,0
855,426,192,0
838,418,211,0
830,404,209,0
837,379,218,0
835,335,202,0
813,310,174,0
837,310,161,0
1234,371,175,0
1042,222,86,0
910,70,88,0
976,154,163,0
858,132,173,0
780,126,197,0
877,230,146,0
1109,302,68,0
1160,295,20,0
969,323,33,0
810,390,105,0
787,433,103,0
817,425,73,0
833,417,74,0
843,432,61,0
836,430,61,0
846,438,36,0
794,392,34,0
766,413,28,0
774,452,23,0
827,419,44,0
868,385,128,0
1017,321,218,0
1205,115,118,0
1291,261,175,0
1003,346,447,0
915,110,366,0
1216,216,176,0
1077,303,158,0
928,424,281,0
924,492,357,0
761,482,311,0
735,429,234,0
782,404,237,0
811,352,220,0
813,377,193,0
792,366,147,0
776,363,86,0
1254,470,-22,0
1173,564,-63,0
918,334,-210,0
843,557,23,0
911,455,-3,0
1043,458,-22,0
1005,536,-71,0
985,583,-40,0
885,583,118,0
846,794,264,0
838,868,265,0
798,810,222,0
750,792,248,0
628,727,266,0
446,595,201,0
374,524,174,0
359,414,183,0
363,335,206,0
488,370,134,0
562,434,24,0
753,455,70,0
986,524,195,0
1194,451,109,0
1321,375,43,0
1139,449,100,0
928,457,164,0
938,463,191,0
986,495,185,0
934,589,177,0
873,603,189,0
865,639,169,0
825,530,40,0
934,512,-18,0
992,477,-44,0
1382,601,-106,0
1050,641,-57,0
1023,454,-85,0
1288,420,-198,0
1295,484,-184,0
1089,494,-9,0
995,500,42,0
1038,504,82,0
990,454,55,0
847,418,46,0
710,290,58,0
668,275,49,0
655,286,97,0
704,136,100,0
1006,-76,-93,0
1220,221,-267,0
1230,885,-281,0
1005,851,-255,0
838,737,39,0
814,633,-18,0
736,548,-198,0
735,564,-211,0
783,539,-230,0
839,492,-294,0
859,601,-268,0
813,541,-337,0
886,565,-402,0
941,731,-585,0
1011,673,-649,0
1399,173,-886,0
747,661,-454,0
786,543,-373,0
1029,359,-580,0
1052,393,-440,0
988,547,-244,0
981,807,-168,0
1062,1057,-115,0
1149,1039,-526,0
1225,609,-603,0
960,-228,-393,0
626,-634,-4,0
617,-305,285,0
827,-45,239,0
1293,63,-114,0
1281,184,-288,0
1216,593,-181,0
1285,694,123,0
1156,575,127,0
846,437,94,0
884,416,27,0
937,296,-65,0
892,351,43,0
958,534,114,0
951,705,136,0
982,671,62,0
1078,719,-58,0
926,701,-89,0
1128,616,-45,0
1119,772,-134,0
847,650,-31,0
1208,515,-224,0
1332,535,-308,0
1205,538,-133,0
1163,437,-46,0
1268,389,14,0
1241,258,-33,0
1058,229,57,0
877,186,116,0
758,190,77,0
735,186,99,0
752,167,166,0
1115,154,163,0
1084,335,175,0
849,277,530,0
1105,125,436,0
1256,211,92,0
1123,215,-95,0
978,319,-107,0
1001,552,106,0
979,554,37,0
948,657,6,0
839,706,-68,0
802,745,-146,0
889,807,-175,0
761,947,-239,0
1258,1462,-518,0
925,1011,-685,0
1096,283,-483,0
1603,256,-148,0
1457,185,100,0
1244,161,205,0
1271,180,186,0
1386,230,128,0
1435,185,92,0
1400,-27,-255,0
833,-335,-299,0
565,-303,62,0
807,-155,157,0
970,179,258,0
897,136,687,0
1422,156,743,0
1943,416,29,0
1652,-8,-245,0
909,370,-259,0
710,719,-220,0
714,826,-333,0
682,857,-362,0
556,564,-175,0
538,453,-126,0
755,454,-148,0
865,467,-181,0
1426,542,-326,0
951,786,-145,0
972,515,-155,0
1376,380,-241,0
1159,399,-24,0
983,313,169,0
1005,358,226,0
1022,176,145,0
924,167,165,0
912,172,172,0
950,212,146,0
1058,194,131,0
1377,125,-78,0
936,342,29,0
897,439,303,0
1220,276,201,0
986,280,133,0
707,186,130,0
623,275,139,0
569,410,191,0
538,421,334,0
860,81,312,0
1516,546,44,0
1438,1040,-25,0
1275,887,22,0
1260,681,-9,0
1126,664,52,0
858,692,127,0
1076,774,7,0
1321,539,-241,0
1393,146,-217,0
1412,203,-138,0
1522,418,-117,0
1494,475,-186,0
1453,743,-189,0
1280,256,-443,0
1006,-6,-366,0
759,-170,-143,0
586,-182,52,0
501,-168,151,0
380,-448,58,0
462,-903,-131,0
1143,500,419,0
1746,418,50,0
1910,531,240,0
1997,846,798,0
1683,403,187,0
1166,-240,76,0
1078,-995,300,0
1269,-479,261,0
1227,644,-227,0
899,996,-214,0
671,497,-20,0
657,297,89,0
626,131,184,0
653,361,76,0
1177,587,-162,0
1267,874,-4,0
1347,529,-34,0
1662,455,-5,0
1477,287,63,0
1379,215,103,0
1388,227,56,0
1328,282,9,0
1121,181,55,0
1025,102,169,0
847,-79,176,0
701,-140,168,0
872,-67,153,0
983,182,227,0
751,110,488,0
1090,30,498,0
1466,280,323,0
1321,241,169,0
1255,245,59,0
1281,573,158,0
1105,828,122,0
831,826,150,0
772,487,197,0
868,531,36,0
879,698,-69,0
731,748,-48,0
1412,858,-193,0
1181,1054,-118,0
1489,942,-252,0
1760,735,-289,0
1510,348,-190,0
1363,660,-234,0
1468,724,-496,0
1300,695,-509,0
1017,382,-373,0
685,73,-200,0
537,6,-99,0
420,-108,-82,0
416,29,-164,0
453,280,-208,0
850,840,-637,0
809,1587,-188,0
970,602,815,0
1315,314,1129,0
1047,633,830,0
699,224,866,0
449,-213,692,0
372,24,767,0
333,204,836,0
410,302,998,0
468,313,902,0
551,251,743,0
727,277,728,0
772,215,681,0
837,270,666,0
1076,352,828,0
1006,460,485,0
883,503,231,0
759,261,453,0
715,107,749,0
702,-115,428,0
853,514,566,0
778,252,789,0
599,364,781,0
587,400,617,0
597,404,513,0
615,398,474,0
661,366,424,0
825,340,333,0
1099,309,126,0
996,378,117,0
1051,544,388,0
955,462,562,0
928,253,407,0
911,23,77,0
929,-428,6,0
999,-143,-233,0
837,766,-472,0
737,1009,-321,0
698,811,-37,0
719,553,-101,0
656,672,-171,0
713,709,-241,0
896,673,-304,0
951,912,-168,0
1290,977,-334,0
1053,156,-243,0
917,78,238,0
788,540,-67,0
810,1290,-174,0
879,1547,-210,0
1052,601,-409,0
905,-334,2,0
955,-25,219,0
971,581,613,0
712,210,381,0
624,147,357,0
574,104,406,0
667,14,402,0
821,-33,475,0
1057,-300,183,0
1140,-269,-124,0
1214,250,-395,0
1087,905,-575,0
697,1164,-268,0
812,1191,-356,0
667,1042,-274,0
533,388,-261,0
650,108,59,0
825,-47,186,0
915,193,134,0
853,510,144,0
787,695,237,0
772,565,207,0
940,482,185,0
1065,378,189,0
1304,411,83,0
1418,649,93,0
1018,588,178,0
766,521,160,0
977,509,-57,0
1106,472,-11,0
1007,348,142,0
987,300,100,0
991,513,91,0
977,557,99,0
910,461,115,0
895,406,154,0
885,395,153,0
943,425,241,0
1054,344,213,0
1071,247,83,0
900,283,187,0
752,353,339,0
602,285,405,0
624,221,328,0
696,244,155,0
745,316,48,0
855,386,62,0
1002,464,68,0
946,529,114,0
914,518,196,0
906,487,212,0
891,507,203,0
927,559,218,0
961,577,213,0
1538,692,61,0
1214,662,113,0
869,492,232,0
1076,508,35,0
1178,569,-68,0
1006,536,49,0
914,393,95,0
1032,406,53,0
1126,543,36,0
1027,649,89,0
846,356,84,0
669,190,95,0
592,267,165,0
568,281,216,0
690,245,227,0
1044,186,116,0
1098,205,22,0
1123,317,236,0
1167,393,289,0
1088,355,158,0
997,262,62,0
913,302,69,0
904,368,58,0
935,419,76,0
937,498,81,0
872,579,143,0
855,568,157,0
885,591,139,0
983,566,107,0
1024,504,64,0
1235,553,32,0
1304,743,-55,0
775,582,48,0
947,454,25,0
1143,488,-144,0
1080,457,-100,0
1022,337,-31,0
1016,362,-45,0
1012,399,-48,0
993,364,-22,0
885,339,-11,0
805,368,79,0
757,384,95,0
736,396,145,0
811,352,242,0
1125,274,95,0
971,230,121,0
991,344,234,0
946,323,135,0
963,381,188,0
1013,363,92,0
946,390,95,0
878,352,89,0
875,384,80,0
886,438,84,0
892,485,76,0
866,498,115,0
834,486,129,0
899,474,117,0
981,473,28,0
1290,526,-64,0
1374,748,-25,0
920,614,-22,0
908,400,0,0
1047,419,-106,0
1058,446,-95,0
1009,361,-51,0
974,344,-59,0
940,363,-95,0
914,378,-73,0
882,383,-42,0
866,400,-30,0
846,410,-18,0
833,447,-2,0
813,457,-5,0
753,446,86,0
838,415,95,0
944,395,-35,0
801,416,83,0
989,486,197,0
1073,488,160,0
989,385,83,0
824,328,107,0
781,311,150,0
770,363,131,0
817,402,140,0
847,442,132,0
809,468,121,0
881,455,170,0
841,460,257,0
858,459,223,0
984,408,67,0
1141,443,20,0
1540,639,-9,0
989,551,27,0
897,381,46,0
972,407,-77,0
1029,441,-120,0
894,382,-61,0
803,383,-22,0
841,459,-19,0
959,488,-145,0
1018,545,-38,0
855,510,-17,0
721,461,-21,0
627,412,34,0
542,353,37,0
498,371,71,0
521,405,159,0
757,394,104,0
1113,398,-45,0
1155,434,41,0
1330,596,123,0
1326,568,-7,0
1014,342,3,0
871,235,101,0
833,256,79,0
796,439,46,0
760,519,46,0
749,441,65,0
724,461,104,0
775,451,145,0
792,441,143,0
885,399,128,0
1037,352,53,0
1229,402,0,0
1380,567,22,0
1054,484,44,0
874,342,80,0
924,374,-27,0
1045,399,-84,0
988,408,-44,0
867,406,-21,0
858,403,-13,0
900,434,-17,0
888,472,-28,0
828,473,22,0
780,429,68,0
727,411,52,0
704,418,79,0
696,414,141,0
747,379,156,0
1141,387,-13,0
1023,478,134,0
957,537,488,0
968,462,425,0
994,217,176,0
978,126,56,0
977,288,57,0
883,480,95,0
768,418,0,0
766,388,22,0
755,420,-4,0
732,407,106,0
781,390,156,0
817,423,191,0
879,441,236,0
933,385,280,0
928,333,258,0
1241,452,206,0
1389,585,289,0
1034,428,243,0
716,320,207,0
811,331,30,0
994,454,8,0
956,378,26,0
866,328,4,0
878,393,-22,0
917,484,-79,0
918,405,-97,0
901,469,-61,0
880,524,-101,0
718,946,-388,0
764,1189,71,0
712,857,472,0
723,885,195,0
872,886,91,0
1004,504,133,0
756,308,280,0
987,340,514,0
955,128,269,0
835,27,83,0
749,155,103,0
710,271,154,0
661,250,87,0
644,225,-44,0
809,410,-91,0
894,544,-29,0
1056,379,-146,0
1172,578,-12,0
1301,731,-38,0
1190,686,-252,0
1277,306,103,0
1506,432,175,0
719,840,183,0
931,614,26,0
1107,584,-123,0
836,552,18,0
777,419,76,0
853,313,-23,0
930,387,-81,0
1027,470,-121,0
1080,490,-105,0
1040,587,-83,0
1022,828,-71,0
1045,927,-37,0
919,731,-35,0
553,672,-81,0
199,780,39,0
37,708,145,0
75,584,181,0
163,611,325,0
607,755,739,0
1114,706,615,0
1263,287,251,0
1050,67,165,0
790,387,252,0
562,676,320,0
381,393,162,0
441,259,-15,0
567,432,-136,0
707,654,-211,0
802,764,-277,0
922,611,-377,0
1123,665,-254,0
1239,700,-122,0
1474,541,-313,0
1435,609,-131,0
1048,477,99,0
1052,493,-21,0
1063,654,-152,0
853,624,-13,0
670,481,34,0
620,482,29,0
702,434,-34,0
862,424,-82,0
1030,480,-74,0
1175,465,-144,0
1190,362,-183,0
1095,327,-133,0
950,343,-72,0
993,292,-124,0
1012,286,-203,0
808,596,-57,0
844,792,-399,0
916,36,-558,0
759,-468,-105,0
646,-62,93,0
1126,512,1068,0
1092,295,946,0
883,378,79,0
753,847,-99,0
657,461,75,0
539,26,99,0
596,278,137,0
617,536,106,0
678,395,-99,0
757,100,-447,0
1440,434,-711,0
1396,1251,1244,0
599,-364,5,0
705,47,-41,0
952,496,-284,0
819,403,-716,0
589,588,-659,0
610,671,-761,0
655,416,-985,0
660,109,-1333,0
677,-226,-1777,0
521,590,-248,0
505,-780,-63,0
281,1087,-1083,0
-4,53,-1023,0
-19,53,-690,0
104,134,-982,0
369,122,-1202,0
487,297,-1447,0
571,529,-1744,0
512,341,-1214,0
359,153,-890,0
236,-20,-568,0
171,129,-403,0
144,162,-426,0
107,170,-501,0
106,232,-568,0
42,38,-679,0
-104,172,-812,0
-161,85,-1019,0
-136,70,-1746,0
-150,-70,-1763,0
-195,50,-1236,0
-429,585,-1323,0
-323,467,-1566,0
-389,514,-925,0
-165,185,-623,0
-91,128,-455,0
-228,-129,-453,0
-333,-596,-597,0
-357,2,-571,0
-598,732,-1282,0
-831,1152,-1101,0
-610,604,-715,0
-379,-722,-89,0
-432,-756,947,0
-484,377,1598,0
-572,359,1008,0
-729,300,625,0
-739,115,324,0
-458,-44,105,0
-316,439,578,0
-139,1561,1401,0
275,822,1422,0
995,-301,1319,0
351,280,32,0
-481,721,-1265,0
-684,1156,-1394,0
-436,1270,-990,0
-434,1347,-895,0
-555,1852,-1390,0
-300,1015,-1991,0
80,-1257,-1181,0
-548,-1654,967,0
-620,38,-287,0
-902,612,-793,0
-1325,1032,-800,0
-1111,1917,-748,0
-753,893,-1008,0
-732,-971,-391,0
-639,-789,11,0
-736,951,-761,0
-729,1788,-515,0
-625,600,-439,0
-677,-737,-223,0
-579,0,201,0
-801,601,110,0
-928,564,-233,0
-1019,304,-215,0
-1057,494,-86,0
-1000,678,91,0
-866,765,335,0
-736,724,612,0
-533,478,724,0
-347,649,706,0
-373,801,738,0
-292,768,626,0
-122,554,385,0
-117,282,252,0
-38,353,227,0
51,610,195,0
119,567,171,0
256,656,165,0
428,511,118,0
660,750,3,0
697,1079,-83,0
831,1042,-254,0
1146,1141,-231,0
1452,1062,-298,0
1065,936,-333,0
969,687,-65,0
1332,869,-106,0
1161,770,-223,0
894,599,-64,0
791,485,-41,0
646,258,70,0
602,1057,-27,0
850,983,-388,0
978,664,-311,0
913,678,-309,0
840,619,-270,0
779,510,-296,0
889,380,-252,0
827,316,-18,0
798,422,175,0
889,283,261,0
984,70,143,0
936,79,27,0
855,307,4,0
743,415,74,0
661,385,84,0
667,387,91,0
737,428,121,0
759,457,127,0
821,465,137,0
941,522,150,0
1128,651,114,0
1236,538,133,0
1620,345,248,0
1419,434,284,0
900,366,208,0
945,290,95,0
1008,412,42,0
908,415,158,0
777,363,170,0
795,557,124,0
879,632,90,0
832,627,16,0
702,569,1,0
694,593,90,0
705,634,195,0
831,533,411,0
1328,313,408,0
1523,121,157,0
1218,52,596,0
978,-248,330,0
687,-343,83,0
634,267,160,0
653,463,218,0
612,377,112,0
732,318,121,0
888,426,192,0
975,500,194,0
947,452,153,0
844,389,151,0
859,363,225,0
974,373,257,0
1070,428,217,0
1314,462,216,0
1213,573,344,0
1213,378,207,0
925,425,233,0
858,405,129,0
988,511,137,0
985,499,151,0
915,422,148,0
838,393,177,0
770,402,126,0
719,447,134,0
681,406,129,0
665,392,101,0
754,495,108,0
848,473,122,0
922,361,90,0
1155,303,26,0
1119,289,104,0
1073,373,445,0
1064,243,524,0
991,92,354,0
822,208,379,0
841,277,755,0
801,397,739,0
713,115,551,0
670,317,406,0
613,409,275,0
562,363,208,0
620,383,148,0
724,368,-68,0
1585,568,-134,0
1276,887,169,0
1120,588,325,0
1042,671,271,0
786,1082,170,0
688,854,135,0
665,589,186,0
716,572,130,0
715,532,59,0
676,547,22,0
633,509,40,0
611,415,69,0
615,375,85,0
727,370,90,0
939,314,7,0
1151,305,-171,0
1060,367,-77,0
1311,690,447,0
1436,599,148,0
1131,358,-72,0
881,118,124,0
749,152,195,0
753,334,125,0
797,543,93,0
733,485,130,0
622,319,123,0
628,399,116,0
802,433,165,0
1093,439,131,0
1115,377,59,0
1515,435,10,0
1185,592,83,0
886,458,36,0
1100,466,-66,0
1032,474,-142,0
887,390,24,0
848,448,5,0
876,565,-70,0
927,637,-54,0
860,658,11,0
826,642,103,0
782,559,22,0
774,562,56,0
775,505,93,0
885,392,62,0
810,367,37,0
962,486,201,0
903,382,233,0
890,275,204,0
906,260,157,0
839,312,114,0
769,278,109,0
796,275,91,0
874,339,111,0
978,402,131,0
1029,442,140,0
997,481,194,0
991,599,188,0
1125,486,170,0
1124,366,130,0
1521,576,-1,0
1191,703,83,0
738,452,167,0
946,339,-9,0
1126,397,-84,0
1025,393,60,0
933,318,77,0
966,545,90,0
1005,703,-1,0
1105,1024,-121,0
971,130,-5,0
784,-246,305,0
705,30,477,0
654,50,455,0
651,-21,446,0
693,-77,421,0
990,48,201,0
832,398,336,0
922,315,270,0
1217,251,240,0
1212,98,242,0
1022,37,161,0
889,152,210,0
892,290,235,0
873,366,211,0
830,354,238,0
806,498,335,0
825,562,567,0
849,473,358,0
1058,52,438,0
1129,152,457,0
1168,313,335,0
1486,478,153,0
962,578,289,0
749,408,268,0
918,447,46,0
1180,359,-94,0
1090,283,32,0
1009,270,105,0
996,397,99,0
1080,559,162,0
1157,949,300,0
1100,715,103,0
889,551,62,0
677,476,181,0
547,404,614,0
567,89,939,0
487,-284,881,0
460,-529,811,0
594,-408,739,0
773,-79,554,0
1224,196,198,0
1613,304,-222,0
1723,545,-442,0
1377,732,-304,0
1079,592,-257,0
903,477,-272,0
949,290,-288,0
960,442,-157,0
901,529,-27,0
884,625,-9,0
925,661,-38,0
998,700,-18,0
1108,702,41,0
1433,647,23,0
968,695,130,0
940,577,72,0
1176,521,-100,0
1252,444,-115,0
1157,351,-11,0
1094,315,28,0
1066,355,-3,0
1021,369,-28,0
911,389,-30,0
800,388,26,0
728,313,38,0
644,281,36,0
604,289,73,0
640,296,119,0
892,308,22,0
904,272,54,0
1267,480,225,0
1462,556,237,0
1368,522,96,0
1060,506,114,0
902,111,144,0
858,98,127,0
893,357,6,0
893,617,25,0
684,378,65,0
561,342,115,0
595,359,123,0
710,383,163,0
849,411,213,0
1068,298,58,0
1598,379,-44,0
1489,561,104,0
1168,427,135,0
932,297,58,0
897,296,-33,0
894,381,-12,0
823,348,2,0
775,343,-32,0
827,417,-57,0
875,471,-69,0
911,470,-66,0
905,529,-7,0
888,522,49,0
823,530,95,0
789,540,134,0
734,406,163,0
710,369,187,0
725,343,244,0
904,284,181,0
1006,369,76,0
948,404,228,0
1000,420,411,0
980,375,345,0
1005,268,248,0
1001,235,156,0
889,247,250,0
736,256,208,0
688,290,173,0
641,361,204,0
505,403,275,0
475,432,349,0
613,445,338,0
743,409,336,0
798,299,285,0
879,332,272,0
694,394,331,0
624,399,263,0
1427,541,113,0
1958,911,-168,0
1714,363,-393,0
1728,299,-115,0
1090,404,-63,0
851,340,-39,0
851,333,-99,0
771,314,-114,0
729,214,-74,0
738,132,-62,0
781,290,-39,0
930,376,102,0
1454,277,-86,0
1238,400,242,0
1199,290,481,0
1162,56,364,0
934,-53,251,0
709,76,110,0
660,318,83,0
683,492,50,0
746,546,77,0
844,535,97,0
1016,537,66,0
1111,548,-24,0
1132,346,-258,0
1163,520,-199,0
1382,942,-205,0
1122,838,-14,0
832,788,172,0
828,651,180,0
908,473,71,0
925,443,52,0
951,466,6,0
1070,440,-84,0
1132,371,-82,0
1037,341,-132,0
975,491,-61,0
986,600,-49,0
1035,290,-88,0
929,66,-142,0
684,105,52,0
787,228,254,0
1231,459,31,0
981,525,233,0
1113,417,374,0
1270,226,113,0
1140,108,36,0
937,145,25,0
831,332,52,0
764,466,71,0
681,489,73,0
648,513,83,0
755,517,26,0
909,553,48,0
983,506,84,0
1134,504,70,0
1463,510,-17,0
1196,528,60,0
821,470,172,0
830,456,61,0
976,504,-41,0
960,444,63,0
903,325,83,0
923,278,121,0
951,258,71,0
947,313,110,0
911,222,61,0
982,244,51,0
1052,710,175,0
933,620,140,0
860,519,144,0
1153,372,-150,0
720,372,-84,0
548,526,208,0
826,530,213,0
827,404,47,0
716,244,37,0
711,243,94,0
731,327,107,0
756,360,114,0
809,387,141,0
893,435,166,0
871,396,195,0
867,386,257,0
974,454,230,0
1005,447,154,0
1122,447,102,0
1236,722,229,0
944,508,158,0
1083,507,129,0
1181,405,14,0
1030,288,53,0
845,294,91,0
784,422,86,0
726,474,125,0
710,400,115,0
751,451,128,0
929,513,86,0
1149,573,99,0
1362,526,214,0
1237,315,-22,0
1001,296,41,0
917,309,79,0
825,265,52,0
687,259,25,0
588,263,77,0
538,256,105,0
535,248,73,0
606,301,89,0
699,365,108,0
815,411,161,0
905,430,177,0
934,468,199,0
978,487,258,0
1085,424,171,0
1587,492,79,0
1368,565,100,0
924,434,83,0
1043,397,-79,0
1038,490,-130,0
874,425,-32,0
773,299,-1,0
864,606,17,0
984,516,-83,0
1095,497,-216,0
1060,383,-139,0
909,249,-1,0
789,215,52,0
708,206,22,0
638,333,85,0
652,377,162,0
790,267,59,0
1024,286,-19,0
1231,549,203,0
1190,557,358,0
1131,418,312,0
990,259,201,0
857,219,156,0
806,269,135,0
822,365,135,0
850,462,152,0
803,455,160,0
789,434,168,0
847,387,177,0
870,339,175,0
874,325,188,0
893,302,162,0
1027,333,130,0
1347,450,107,0
1296,423,74,0
957,345,43,0
843,323,-40,0
960,371,-75,0
914,438,-5,0
795,389,-18,0
753,380,53,0
733,371,65,0
691,326,88,0
663,399,127,0
726,402,138,0
793,351,177,0
923,297,238,0
1057,257,233,0
1166,280,189,0
1404,304,137,0
1390,369,41,0
1129,426,163,0
853,423,222,0
731,398,229,0
737,291,147,0
708,268,98,0
674,257,70,0
655,293,49,0
721,359,96,0
724,423,250,0
717,353,271,0
709,352,294,0
735,367,319,0
816,387,337,0
886,393,400,0
900,328,280,0
1264,300,251,0
1386,532,107,0
1000,571,5,0
879,400,189,0
1000,496,79,0
966,485,18,0
835,393,25,0
791,422,47,0
781,517,32,0
785,629,65,0
842,787,120,0
920,916,264,0
1070,785,272,0
975,526,169,0
756,439,153,0
586,418,193,0
512,282,245,0
756,219,192,0
763,233,-78,0
879,335,35,0
1117,311,86,0
1192,284,-1,0
1030,260,31,0
850,292,94,0
821,368,137,0
842,402,100,0
823,426,86,0
797,437,183,0
836,421,206,0
871,478,240,0
965,479,284,0
1036,416,228,0
1096,393,150,0
1520,525,64,0
1190,663,143,0
896,454,122,0
932,380,18,0
1056,414,-75,0
968,369,-39,0
877,329,-14,0
890,359,-47,0
944,387,-69,0
948,415,-55,0
919,522,7,0
941,607,10,0
837,587,30,0
769,573,266,0
650,465,190,0
569,435,214,0
559,409,272,0
762,369,212,0
741,359,164,0
880,428,294,0
1069,418,247,0
1119,340,163,0
1027,304,143,0
875,371,155,0
812,414,170,0
811,413,116,0
862,450,98,0
914,472,132,0
901,460,159,0
882,484,202,0
896,460,242,0
945,434,189,0
1167,439,117,0
1466,542,65,0
1097,498,84,0
900,405,83,0
968,435,-50,0
1020,432,-79,0
904,330,-28,0
848,329,-47,0
865,454,-57,0
874,496,-43,0
833,534,0,0
791,622,71,0
759,649,98,0
729,599,108,0
691,551,133,0
663,531,147,0
651,511,185,0
770,446,123,0
873,439,-9,0
787,467,109,0
862,499,285,0
894,459,236,0
962,311,181,0
970,239,119,0
898,307,160,0
868,351,159,0
872,390,147,0
869,406,130,0
852,412,128,0
830,414,134,0
830,463,169,0
846,448,218,0
884,452,204,0
1032,432,141,0
1600,534,12,0
1169,602,82,0
805,479,167,0
869,453,59,0
993,479,-46,0
925,387,25,0
879,352,28,0
930,441,6,0
976,498,9,0
978,534,35,0
934,641,108,0
888,648,136,0
779,567,147,0
701,505,194,0
671,486,211,0
657,439,262,0
884,362,134,0
830,384,49,0
683,405,238,0
787,343,277,0
883,375,223,0
966,260,164,0
976,278,96,0
920,346,185,0
900,367,184,0
908,420,183,0
921,452,165,0
911,502,183,0
874,510,236,0
835,515,225,0
912,530,216,0
1012,457,131,0
1369,492,29,0
1325,635,39,0
991,564,137,0
770,479,100,0
851,472,-34,0
953,380,-17,0
935,291,-1,0
915,381,20,0
976,488,8,0
995,521,22,0
921,576,98,0
869,622,158,0
821,605,179,0
729,534,145,0
668,477,168,0
649,489,163,0
648,483,167,0
770,444,112,0
1008,420,-7,0
653,389,127,0
822,385,228,0
1062,462,213,0
1067,314,80,0
960,200,23,0
936,358,114,0
867,414,141,0
851,406,114,0
844,422,129,0
832,424,102,0
807,417,164,0
815,456,198,0
942,472,227,0
1059,426,158,0
1149,480,133,0
1500,624,84,0
974,498,72,0
748,358,145,0
890,386,14,0
1146,445,-91,0
1067,407,-7,0
916,346,10,0
891,438,2,0
917,507,17,0
857,548,24,0
781,627,112,0
739,553,51,0
724,484,31,0
664,470,44,0
611,448,87,0
619,422,144,0
742,408,145,0
918,405,51,0
955,381,61,0
1169,517,261,0
1272,510,251,0
1186,346,137,0
1008,221,83,0
889,233,71,0
886,361,73,0
892,537,114,0
777,421,82,0
693,330,-41,0
715,385,-40,0
733,420,31,0
763,398,93,0
951,381,135,0
1117,348,119,0
1524,448,82,0
1275,626,196,0
861,259,126,0
748,233,133,0
967,422,-32,0
1093,623,-116,0
991,496,-91,0
914,392,-83,0
920,446,-58,0
919,466,-69,0
844,498,-62,0
782,513,-15,0
716,511,-21,0
699,489,26,0
755,450,0,0
815,414,-73,0
954,518,-10,0
1061,688,83,0
952,564,84,0
1014,273,41,0
998,159,64,0
856,193,111,0
814,307,92,0
834,409,94,0
812,447,53,0
779,431,74,0
804,407,119,0
825,426,110,0
797,473,129,0
857,465,162,0
1007,452,98,0
1259,460,42,0
1430,609,10,0
947,523,54,0
828,384,81,0
982,391,-80,0
1089,415,-68,0
1007,377,3,0
961,355,-31,0
943,388,-35,0
916,430,-5,0
879,532,11,0
804,530,46,0
757,525,14,0
698,539,11,0
637,473,18,0
630,475,34,0
689,520,137,0
978,412,25,0
921,424,-44,0
881,541,253,0
988,526,308,0
1079,373,178,0
974,211,170,0
861,232,173,0
808,319,142,0
783,389,116,0
810,416,123,0
833,399,95,0
841,371,133,0
800,378,163,0
740,407,187,0
762,404,209,0
835,386,192,0
837,398,136,0
1400,523,66,0
1257,704,137,0
845,498,109,0
849,329,73,0
1062,420,-57,0
1077,442,-23,0
964,316,23,0
929,340,-29,0
951,433,-97,0
953,421,-98,0
935,434,-64,0
937,558,-58,0
889,614,-34,0
782,627,36,0
712,667,63,0
682,638,100,0
677,568,127,0
668,524,107,0
760,509,123,0
841,569,239,0
745,503,213,0
703,382,155,0
786,425,152,0
801,442,164,0
724,405,103,0
720,423,70,0
788,421,51,0
833,430,19,0
923,445,96,0
992,465,133,0
1013,505,187,0
994,471,220,0
935,421,162,0
1129,426,82,0
1576,605,73,0
1303,577,75,0
876,407,143,0
860,381,24,0
986,465,-39,0
924,383,23,0
875,319,-5,0
861,431,-13,0
881,460,0,0
885,474,-20,0
846,486,28,0
825,455,22,0
805,438,30,0
829,412,55,0
843,419,107,0
891,404,164,0
1189,367,28,0
939,336,75,0
906,351,238,0
996,369,222,0
994,321,182,0
878,219,84,0
814,277,60,0
806,377,115,0
790,432,136,0
802,435,81,0
846,457,110,0
852,426,126,0
855,437,175,0
861,444,209,0
881,446,197,0
884,437,181,0
1362,525,120,0
1185,549,95,0
855,414,118,0
908,400,65,0
1059,472,-63,0
1054,404,-47,0
936,339,-13,0
889,386,-50,0
901,504,-73,0
916,617,-62,0
845,1025,89,0
992,1074,295,0
908,560,548,0
686,453,528,0
530,337,510,0
328,234,474,0
280,234,463,0
341,121,438,0
509,285,291,0
527,442,229,0
672,289,242,0
832,310,324,0
949,245,228,0
1131,200,185,0
1127,219,187,0
1084,203,89,0
1128,315,141,0
1169,465,144,0
1076,647,197,0
995,760,357,0
877,550,352,0
830,340,348,0
953,260,265,0
1081,372,171,0
1427,485,45,0
1392,636,86,0
1333,606,158,0
855,514,216,0
753,453,154,0
938,497,-3,0
958,490,-65,0
1119,501,1,0
1296,807,141,0
1300,754,-10,0
1071,560,0,0
757,490,106,0
589,501,113,0
460,367,152,0
390,234,132,0
399,222,144,0
571,301,122,0
720,456,-26,0
784,584,-156,0
849,721,-90,0
788,573,25,0
926,378,83,0
1208,291,57,0
1172,407,23,0
1104,670,434,0
1141,472,486,0
1182,252,509,0
1082,171,485,0
976,340,399,0
878,484,298,0
940,537,208,0
1009,526,52,0
893,546,52,0
1463,609,-153,0
895,817,-75,0
783,657,-87,0
990,451,-188,0
1118,248,-197,0
963,329,4,0
865,384,111,0
931,461,108,0
932,471,94,0
858,374,93,0
815,345,168,0
882,368,180,0
967,390,169,0
1013,372,229,0
1032,320,274,0
1020,230,296,0
1211,132,-1,0
918,210,-6,0
934,345,111,0
870,428,123,0
787,386,80,0
771,296,74,0
725,352,97,0
768,355,51,0
858,323,-14,0
990,579,-61,0
926,722,118,0
811,558,246,0
862,578,241,0
1004,622,207,0
1003,572,150,0
1082,570,135,0
1385,757,-5,0
1035,1013,8,0
894,690,-25,0
959,336,-109,0
1123,288,-35,0
1084,332,46,0
992,378,-2,0
971,376,-71,0
942,398,-48,0
903,293,-42,0
842,224,-46,0
821,187,17,0
883,-79,178,0
936,130,30,0
812,416,-70,0
757,862,281,0
1008,629,207,0
1065,503,209,0
1231,409,278,0
1535,324,140,0
1253,497,16,0
881,-17,48,0
773,-373,-151,0
729,398,-630,0
668,1123,-774,0
641,641,-597,0
505,416,-262,0
448,376,-185,0
472,368,-350,0
554,513,-443,0
767,797,-357,0
1111,729,-537,0
1502,502,-606,0
1090,307,45,0
899,257,-12,0
799,814,-309,0
864,1238,-462,0
1172,919,-519,0
1322,570,-354,0
1366,327,-201,0
1262,342,47,0
1027,274,62,0
775,133,106,0
529,-21,95,0
323,-225,-13,0
150,381,-22,0
269,632,-31,0
517,632,-190,0
905,605,-261,0
1409,1146,436,0
1620,788,232,0
1339,-1064,162,0
1436,-838,422,0
1404,234,-52,0
1189,737,-272,0
1076,656,-354,0
978,552,-423,0
766,583,-249,0
627,375,-223,0
522,263,-285,0
480,289,-285,0
553,304,-189,0
792,305,-252,0
1079,315,-496,0
1406,737,-212,0
1021,607,-184,0
1021,807,-285,0
1083,692,-396,0
1712,1236,603,0
729,-898,391,0
1219,-233,360,0
920,-41,387,0
907,202,295,0
948,155,199,0
948,236,51,0
1011,242,-24,0
1126,370,-70,0
1084,274,-21,0
1405,229,7,0
1383,299,-125,0
902,424,390,0
754,168,439,0
716,42,233,0
688,118,149,0
688,275,128,0
677,349,100,0
693,380,77,0
770,401,19,0
810,453,52,0
854,408,60,0
808,386,106,0
763,386,153,0
791,430,201,0
882,429,159,0
1489,495,8,0
1419,689,35,0
824,492,144,0
781,347,114,0
988,386,-87,0
1185,509,-97,0
1024,462,-11,0
948,340,26,0
974,359,-6,0
995,401,-89,0
964,444,-42,0
886,461,13,0
828,495,75,0
763,497,103,0
697,472,103,0
660,436,142,0
647,410,196,0
926,381,63,0
823,464,81,0
761,435,248,0
997,448,283,0
1067,367,74,0
1031,245,10,0
998,263,63,0
928,353,102,0
883,386,85,0
850,382,74,0
825,400,53,0
783,403,89,0
799,412,92,0
847,435,110,0
785,431,129,0
844,463,143,0
1006,467,119,0
1010,469,85,0
1480,624,101,0
1146,555,75,0
837,348,138,0
944,337,49,0
1306,438,-87,0
1269,365,-88,0
999,261,13,0
836,246,43,0
773,302,-37,0
712,325,-48,0
678,303,-15,0
706,339,7,0
686,391,68,0
551,418,92,0
432,461,171,0
409,463,173,0
464,500,235,0
719,431,209,0
1105,651,278,0
1078,633,836,0
1891,491,436,0
1428,247,224,0
837,-98,284,0
859,-117,55,0
894,254,-44,0
842,667,31,0
651,503,118,0
535,381,154,0
506,361,159,0
555,353,207,0
833,343,208,0
1037,371,185,0
1535,431,77,0
1645,710,74,0
841,669,179,0
785,344,292,0
1029,391,56,0
1071,561,-23,0
980,452,95,0
962,297,145,0
1014,346,84,0
1089,467,0,0
1068,481,-13,0
1018,479,44,0
909,425,79,0
799,389,120,0
729,370,170,0
700,340,191,0
906,296,74,0
729,315,274,0
635,369,478,0
871,301,391,0
1045,202,257,0
965,73,137,0
850,156,105,0
825,316,132,0
853,393,98,0
879,448,91,0
921,491,109,0
927,550,199,0
904,581,304,0
891,522,242,0
954,476,175,0
993,450,141,0
1607,630,25,0
1036,643,53,0
681,467,133,0
974,461,-30,0
1224,528,-161,0
1105,388,-105,0
1070,241,-161,0
1128,465,-66,0
1101,341,10,0
1034,371,47,0
981,513,39,0
939,525,-25,0
724,416,-132,0
687,269,22,0
604,278,178,0
748,272,309,0
1011,213,166,0
963,13,273,0
1136,83,333,0
1275,190,266,0
1274,236,247,0
1145,240,176,0
1012,286,96,0
943,317,19,0
912,358,-60,0
903,414,-113,0
849,458,-142,0
836,550,-75,0
813,625,13,0
854,626,34,0
975,622,22,0
1297,609,-60,0
1214,680,-32,0
780,563,139,0
841,526,21,0
1110,556,-130,0
1252,527,-75,0
1195,342,-46,0
1183,288,-52,0
1188,323,-25,0
1147,310,-22,0
1016,304,-22,0
891,273,25,0
837,268,39,0
825,268,54,0
792,221,121,0
992,186,35,0
963,248,64,0
791,295,307,0
890,259,310,0
1105,321,196,0
1194,250,79,0
1147,272,60,0
1037,328,94,0
969,367,83,0
944,409,93,0
889,470,72,0
821,526,68,0
781,547,111,0
851,509,111,0
976,493,83,0
1085,486,11,0
1542,698,-11,0
780,621,65,0
890,373,32,0
1311,378,-129,0
1185,440,-50,0
945,291,37,0
935,294,10,0
963,346,-12,0
915,287,-39,0
889,264,-29,0
991,310,-94,0
1130,436,-58,0
1163,472,38,0
1222,472,166,0
1284,437,105,0
1193,465,136,0
927,409,186,0
888,324,136,0
975,366,108,0
872,337,126,0
675,237,48,0
575,266,20,0
555,327,24,0
609,352,-5,0
750,392,0,0
892,421,11,0
920,440,105,0
838,560,237,0
906,522,198,0
1121,353,114,0
1506,271,37,0
1491,411,83,0
1070,399,171,0
971,331,27,0
1066,432,-44,0
989,464,39,0
845,277,-14,0
801,304,6,0
809,344,-47,0
856,409,-79,0
887,332,-97,0
910,244,-32,0
941,210,34,0
1002,222,73,0
1094,276,168,0
1170,261,195,0
1231,139,21,0
1216,199,-14,0
1033,411,241,0
705,334,336,0
756,198,353,0
709,239,161,0
666,333,183,0
636,382,219,0
681,399,182,0
766,393,134,0
820,367,105,0
843,377,121,0
845,385,111,0
926,393,189,0
970,393,219,0
1287,376,203,0
1715,541,215,0
1432,465,192,0
923,375,201,0
843,313,98,0
956,356,3,0
842,285,-25,0
714,202,4,0
671,220,0,0
710,260,-5,0
745,299,38,0
787,315,70,0
864,296,79,0
934,315,79,0
1031,333,87,0
1110,364,141,0
1198,354,159,0
1392,234,-58,0
1422,364,21,0
1048,351,214,0
896,307,276,0
822,215,189,0
681,233,111,0
591,272,97,0
585,305,88,0
608,317,66,0
687,354,99,0
739,403,174,0
810,355,218,0
842,364,218,0
870,403,281,0
970,345,243,0
1499,295,43,0
1623,470,55,0
1202,423,120,0
802,286,82,0
876,332,-10,0
899,415,20,0
754,329,68,0
737,226,42,0
799,309,-9,0
803,318,-55,0
807,355,-13,0
794,363,49,0
815,323,79,0
913,332,58,0
1066,321,-3,0
1255,449,106,0
1366,357,118,0
1369,432,188,0
746,454,261,0
639,492,298,0
609,446,183,0
567,365,51,0
544,290,-37,0
587,237,-100,0
701,270,-99,0
769,356,-27,0
752,353,35,0
819,377,80,0
958,460,153,0
1027,263,188,0
1068,172,178,0
1330,371,164,0
1290,484,138,0
1143,472,114,0
939,467,96,0
919,473,3,0
944,413,-69,0
793,352,-139,0
747,410,-112,0
832,457,-123,0
939,479,-190,0
1011,359,-194,0
1031,303,-100,0
1024,276,-71,0
999,303,-54,0
963,318,18,0
927,291,24,0
935,310,101,0
1045,285,109,0
1138,269,-9,0
1029,426,195,0
911,436,332,0
852,361,304,0
807,233,161,0
814,240,64,0
783,264,-1,0
778,307,7,0
801,359,31,0
814,372,-5,0
800,389,3,0
776,388,25,0
805,376,74,0
819,376,127,0
832,384,169,0
972,375,151,0
1529,464,136,0
1547,476,88,0
1034,339,142,0
820,276,119,0
849,378,-18,0
815,423,-21,0
697,341,39,0
628,264,-2,0
710,294,-105,0
868,460,-177,0
927,589,-228,0
905,545,-250,0
900,461,-231,0
922,392,-350,0
871,434,-567,0
805,559,-667,0
758,635,-607,0
788,492,-550,0
916,263,-497,0
903,312,-469,0
825,381,-485,0
596,467,-298,0
567,1156,69,0
612,958,-415,0
614,81,-375,0
626,-299,102,0
803,-558,243,0
1043,75,208,0
1110,732,203,0
993,716,183,0
923,372,117,0
981,293,20,0
943,355,-9,0
985,347,-4,0
1191,364,-95,0
1409,441,-174,0
1281,512,-103,0
898,511,-1,0
683,485,16,0
755,421,-32,0
804,398,-38,0
787,368,9,0
826,330,13,0
926,277,4,0
958,256,-4,0
973,310,102,0
969,288,121,0
932,284,112,0
831,264,132,0
768,227,136,0
840,259,97,0
1004,331,57,0
1133,400,61,0
1484,449,-52,0
1614,574,-41,0
1288,593,5,0
805,382,19,0
642,145,157,0
796,245,158,0
887,317,111,0
793,408,36,0
671,304,76,0
604,299,84,0
568,298,68,0
547,286,100,0
626,308,108,0
730,364,137,0
831,354,137,0
997,342,132,0
1244,336,109,0
1562,480,86,0
1408,578,227,0
989,438,278,0
823,315,193,0
978,345,41,0
964,367,28,0
836,297,71,0
782,275,89,0
810,304,38,0
847,339,-35,0
895,329,-31,0
945,305,-44,0
971,327,-25,0
1045,338,31,0
1049,266,32,0
1073,285,65,0
1108,297,139,0
1293,214,79,0
1160,181,-31,0
1030,360,165,0
961,388,313,0
989,362,278,0
908,252,167,0
766,214,127,0
670,231,82,0
661,254,65,0
684,282,52,0
696,382,11,0
740,381,58,0
750,378,142,0
783,333,166,0
823,240,212,0
882,260,199,0
986,309,226,0
1061,271,166,0
1418,384,154,0
1386,485,260,0
1238,334,220,0
982,215,169,0
949,228,88,0
946,335,46,0
880,367,40,0
746,289,21,0
680,267,12,0
657,286,-7,0
645,251,-19,0
708,274,-6,0
868,295,-21,0
1021,303,-33,0
1177,344,25,0
1191,381,115,0
1171,288,158,0
1501,207,-156,0
1347,390,38,0
1057,501,236,0
835,508,254,0
769,342,169,0
741,174,58,0
676,161,0,0
658,205,74,0
657,353,144,0
704,344,188,0
698,332,154,0
724,330,143,0
756,325,140,0
755,278,212,0
793,276,249,0
942,299,237,0
1196,328,266,0
1599,573,338,0
1446,476,304,0
1022,284,162,0
865,308,34,0
868,420,-69,0
785,476,-59,0
708,356,-17,0
697,276,-3,0
799,348,-71,0
877,452,-112,0
983,393,-53,0
1009,350,17,0
956,410,104,0
909,423,144,0
907,428,166,0
897,425,203,0
890,360,210,0
1035,342,93,0
965,416,41,0
948,495,166,0
755,448,177,0
732,299,130,0
834,263,124,0
859,300,63,0
834,289,71,0
860,314,119,0
875,354,92,0
839,375,108,0
788,371,137,0
781,364,168,0
796,348,172,0
803,363,202,0
843,368,208,0
966,386,175,0
1375,422,136,0
1581,517,20,0
1042,418,-5,0
851,305,97,0
936,360,-19,0
928,452,-45,0
796,358,47,0
766,262,45,0
797,285,-26,0
806,322,-60,0
799,295,-33,0
832,377,-63,0
833,493,-109,0
795,478,-120,0
726,466,-162,0
660,508,-168,0
646,525,-113,0
681,598,-18,0
774,618,84,0
928,589,169,0
1142,518,49,0
1254,605,197,0
1308,490,275,0
1099,287,139,0
924,169,109,0
928,191,32,0
854,356,70,0
772,428,90,0
783,410,36,0
767,253,-27,0
688,141,-16,0
677,178,16,0
690,223,70,0
727,280,157,0
779,351,305,0
829,341,359,0
891,326,320,0
1126,330,227,0
1591,451,174,0
1708,503,86,0
1149,362,45,0
811,266,16,0
814,373,-32,0
828,468,24,0
768,289,8,0
766,256,14,0
804,343,-88,0
825,464,-113,0
779,424,-84,0
755,393,-19,0
751,457,16,0
792,501,46,0
827,452,150,0
903,423,261,0
1009,394,309,0
1040,400,290,0
1250,478,123,0
1207,569,44,0
1106,632,135,0
843,582,127,0
733,433,129,0
751,326,55,0
711,298,-17,0
652,270,-3,0
652,305,14,0
683,347,19,0
696,356,63,0
678,343,118,0
698,379,194,0
727,338,185,0
783,310,219,0
911,362,227,0
1600,297,61,0
1547,480,152,0
1091,441,193,0
864,386,136,0
900,389,32,0
852,458,81,0
694,350,115,0
653,376,46,0
752,466,-29,0
898,438,-46,0
935,511,-52,0
938,584,-39,0
899,567,-8,0
827,557,30,0
770,528,42,0
774,508,91,0
813,508,167,0
944,449,170,0
1113,419,-2,0
938,453,119,0
911,436,216,0
905,432,235,0
827,317,200,0
728,198,110,0
720,211,37,0
777,293,43,0
848,388,81,0
811,393,102,0
781,396,121,0
800,383,133,0
857,402,139,0
863,403,177,0
888,423,202,0
935,379,152,0
1288,386,40,0
1453,504,12,0
1174,462,51,0
1022,421,39,0
1021,446,-91,0
953,426,-69,0
805,407,-66,0
738,615,-102,0
830,576,-163,0
890,447,-135,0
843,356,75,0
803,329,292,0
765,460,366,0
739,473,411,0
717,285,434,0
694,263,441,0
660,205,448,0
589,131,314,0
799,242,-38,0
1064,1100,177,0
1026,725,363,0
1042,671,245,0
988,556,244,0
817,434,195,0
669,340,85,0
646,282,-10,0
703,285,-71,0
813,311,-65,0
845,331,-37,0
786,368,0,0
821,405,69,0
871,356,6,0
846,485,80,0
850,467,177,0
949,414,171,0
1225,466,117,0
1657,599,95,0
1452,461,65,0
1212,496,35,0
1032,446,-44,0
918,317,-106,0
798,269,-114,0
759,281,-51,0
761,285,-57,0
741,280,-76,0
732,263,-69,0
765,229,-53,0
823,194,-53,0
918,214,-48,0
970,246,-40,0
1075,370,-7,0
1156,419,54,0
1275,293,-92,0
1359,433,31,0
1260,430,197,0
1101,116,252,0
922,20,278,0
755,519,530,0
607,409,477,0
518,348,303,0
545,313,166,0
615,346,60,0
673,360,22,0
702,331,57,0
740,352,225,0
815,277,145,0
844,270,153,0
1186,215,67,0
1614,562,146,0
1360,555,209,0
1070,390,93,0
1058,175,-160,0
908,271,-78,0
757,330,68,0
695,304,47,0
684,290,-13,0
715,338,-51,0
786,393,-42,0
896,391,6,0
1022,397,-12,0
1098,320,-64,0
1113,280,-45,0
1067,352,69,0
972,360,166,0
1124,287,37,0
1109,316,-125,0
864,436,207,0
801,474,319,0
856,449,205,0
828,279,41,0
798,281,31,0
829,332,26,0
825,377,24,0
822,368,44,0
789,361,44,0
749,336,35,0
775,335,58,0
757,362,73,0
747,364,72,0
1141,362,-35,0
1508,509,-39,0
1054,451,0,0
947,354,-32,0
1029,368,-181,0
903,336,-135,0
767,249,-72,0
767,275,-104,0
843,329,-157,0
827,304,-139,0
805,273,-103,0
814,327,-78,0
866,354,-105,0
957,313,-91,0
1041,273,-112,0
1054,281,-98,0
1241,257,-285,0
1141,361,-436,0
948,1063,282,0
716,685,50,0
946,464,48,0
1134,389,105,0
995,344,189,0
845,219,243,0
696,186,172,0
608,165,118,0
468,113,133,0
639,8,19,0
769,133,-42,0
523,404,48,0
554,1025,205,0
541,1447,128,0
476,1475,417,0
1228,614,204,0
1266,987,395,0
1326,546,417,0
1359,605,483,0
859,621,313,0
516,500,366,0
493,221,337,0
445,426,323,0
282,437,439,0
173,381,621,0
215,474,748,0
439,487,760,0
1265,323,257,0
1433,473,520,0
1346,134,549,0
1260,137,185,0
709,265,405,0
272,269,443,0
196,351,379,0
292,533,245,0
478,700,58,0
684,656,-1,0
957,649,25,0
909,813,108,0
837,554,-1,0
1583,405,-177,0
1347,813,-182,0
924,582,53,0
1006,455,297,0
796,666,341,0
636,636,369,0
714,1023,65,0
827,1335,-23,0
893,949,-6,0
883,767,-23,0
1050,511,-69,0
876,196,56,0
946,-137,29,0
940,-109,-218,0
969,143,-14,0
985,187,108,0
729,316,89,0
633,448,214,0
841,568,229,0
988,954,155,0
846,1119,-21,0
769,454,52,0
1098,-636,569,0
1437,-721,1079,0
1448,757,254,0
1133,90,87,0
1586,-41,118,0
1022,444,322,0
1157,131,180,0
1107,178,40,0
889,480,61,0
785,500,206,0
750,348,203,0
703,309,143,0
648,215,208,0
643,120,368,0
667,52,183,0
676,119,-198,0
714,622,-56,0
862,645,-3,0
1327,407,-202,0
1742,578,-5,0
1590,524,34,0
1206,232,-226,0
815,180,69,0
580,118,204,0
518,408,217,0
591,544,260,0
644,552,272,0
729,489,265,0
874,452,209,0
1007,422,111,0
1085,400,75,0
1132,353,53,0
1549,382,-50,0
1280,540,-5,0
934,422,29,0
1100,364,-66,0
1057,344,-91,0
837,317,54,0
693,325,133,0
737,387,91,0
813,440,21,0
793,469,78,0
765,423,62,0
767,454,56,0
878,635,200,0
1052,600,331,0
1170,254,164,0
1220,-20,-115,0
963,29,125,0
1044,201,85,0
913,322,-59,0
576,375,-22,0
460,218,200,0
551,29,476,0
678,102,316,0
754,199,380,0
915,166,447,0
1119,231,442,0
1211,172,410,0
1170,176,354,0
1224,247,286,0
1291,271,192,0
1477,535,242,0
810,488,328,0
912,276,249,0
1123,269,130,0
1073,383,211,0
826,278,281,0
771,307,297,0
702,428,245,0
647,390,214,0
613,396,195,0
598,542,216,0
583,562,261,0
634,591,289,0
764,619,264,0
938,561,274,0
1195,381,90,0
1087,308,-33,0
1104,576,229,0
887,535,484,0
708,69,407,0
631,-26,365,0
698,362,341,0
787,533,321,0
850,435,202,0
866,452,136,0
865,441,91,0
802,439,122,0
831,471,135,0
995,533,172,0
1069,475,207,0
1338,329,123,0
1359,480,41,0
1137,632,-8,0
719,569,34,0
760,435,-33,0
915,429,-65,0
890,392,8,0
848,277,6,0
891,408,54,0
937,474,-15,0
874,495,45,0
821,447,82,0
755,439,80,0
748,446,97,0
794,456,102,0
901,452,108,0
995,429,94,0
1087,416,-13,0
1050,454,132,0
1172,479,243,0
1165,384,139,0
943,219,81,0
700,201,129,0
595,253,105,0
618,338,95,0
684,382,109,0
712,408,116,0
757,383,162,0
850,382,198,0
893,375,232,0
1051,353,253,0
1231,269,149,0
1549,400,117,0
1226,530,226,0
934,361,189,0
956,357,74,0
928,466,49,0
787,372,132,0
685,322,121,0
743,417,89,0
806,481,52,0
803,502,56,0
758,488,73,0
758,492,62,0
836,518,89,0
929,497,141,0
1006,473,179,0
1115,419,133,0
1126,340,17,0
938,397,130,0
843,410,248,0
829,393,309,0
793,308,247,0
716,221,132,0
666,221,88,0
692,280,89,0
761,351,133,0
811,402,167,0
856,397,198,0
915,410,214,0
940,405,255,0
982,376,252,0
1022,334,179,0
1254,367,89,0
1321,518,85,0
1046,467,76,0
972,396,43,0
1068,425,-95,0
1026,498,-77,0
890,357,-14,0
869,268,25,0
897,424,-11,0
906,569,-21,0
838,584,34,0
740,555,53,0
677,572,76,0
708,518,69,0
747,473,80,0
745,473,136,0
876,460,160,0
1008,360,30,0
1001,354,140,0
1044,358,223,0
1048,472,274,0
994,550,138,0
875,164,71,0
855,-46,178,0
862,194,196,0
851,276,226,0
757,251,255,0
789,195,299,0
861,179,213,0
808,289,88,0
826,452,161,0
862,571,236,0
843,500,283,0
929,405,285,0
1551,487,134,0
1773,407,136,0
1208,263,185,0
998,257,160,0
1056,410,-26,0
927,351,-15,0
856,249,-12,0
915,551,-37,0
932,772,-160,0
630,785,-246,0
507,640,-63,0
441,497,20,0
404,353,29,0
418,328,68,0
530,389,129,0
721,371,151,0
941,333,114,0
1343,286,-41,0
1558,390,-35,0
1594,661,278,0
1236,959,571,0
913,457,417,0
956,-493,350,0
921,-69,406,0
846,423,433,0
665,349,234,0
606,488,84,0
570,456,68,0
586,396,27,0
690,405,36,0
779,371,10,0
866,416,111,0
989,369,120,0
1223,272,110,0
1467,251,113,0
1312,366,237,0
957,350,210,0
888,400,121,0
961,466,186,0
946,199,112,0
852,289,61,0
765,509,277,0
667,351,286,0
658,362,164,0
750,393,185,0
941,422,177,0
1069,437,147,0
1151,512,241,0
1137,529,364,0
1282,439,221,0
1145,279,-132,0
929,352,93,0
877,522,289,0
766,358,150,0
650,266,91,0
574,178,29,0
613,233,14,0
707,316,53,0
748,390,141,0
811,337,184,0
803,332,213,0
776,340,255,0
752,316,308,0
816,277,303,0
1077,275,395,0
1229,132,248,0
1477,155,48,0
1260,383,295,0
861,298,244,0
681,608,507,0
792,911,449,0
733,1103,385,0
686,885,238,0
882,617,133,0
964,699,-28,0
1025,659,-43,0
1102,496,-36,0
1081,364,-83,0
968,301,-87,0
938,276,-30,0
1081,235,202,0
989,-92,415,0
1044,-256,223,0
1049,72,307,0
1103,304,352,0
1174,262,233,0
1144,278,344,0
959,173,272,0
854,149,209,0
889,89,243,0
877,224,-191,0
828,1122,-10,0
928,856,356,0
846,488,387,0
756,368,369,0
775,383,202,0
824,445,137,0
960,325,134,0
1411,307,76,0
1619,555,118,0
1472,594,195,0
994,428,212,0
756,329,80,0
907,340,-47,0
936,405,74,0
764,210,71,0
636,126,2,0
662,110,15,0
772,183,72,0
802,379,219,0
911,439,284,0
1005,270,341,0
1037,213,373,0
1112,185,342,0
1335,213,286,0
1340,133,-44,0
1247,362,0,0
1118,691,182,0
698,661,142,0
600,324,132,0
663,48,67,0
654,99,-15,0
573,123,-38,0
666,191,39,0
731,338,133,0
845,515,323,0
883,466,454,0
829,373,479,0
857,267,480,0
870,199,364,0
846,201,322,0
1017,202,185,0
1243,285,140,0
1504,435,165,0
1408,451,56,0
1058,384,6,0
876,377,69,0
837,424,52,0
761,432,62,0
703,392,65,0
759,375,33,0
847,355,21,0
849,361,19,0
831,436,12,0
856,423,4,0
879,388,5,0
924,426,38,0
1029,446,82,0
1141,413,185,0
1395,289,84,0
1245,295,-18,0
926,443,266,0
801,431,413,0
853,362,394,0
841,160,208,0
710,32,64,0
619,84,11,0
636,240,23,0
672,344,104,0
730,322,171,0
772,296,144,0
799,301,158,0
787,276,178,0
799,297,192,0
832,344,218,0
953,348,315,0
1091,264,237,0
1466,184,52,0
1590,434,182,0
1216,392,247,0
928,238,222,0
912,209,61,0
911,371,5,0
853,411,62,0
712,401,93,0
698,435,93,0
743,527,25,0
750,576,22,0
733,583,81,0
729,581,81,0
792,586,89,0
1010,536,132,0
1120,526,142,0
1288,410,20,0
1081,399,-1,0
845,509,210,0
771,453,289,0
677,346,242,0
602,265,146,0
623,233,89,0
623,255,63,0
701,299,84,0
783,347,135,0
857,354,134,0
878,372,197,0
842,371,230,0
837,462,338,0
737,419,188,0
998,333,140,0
1365,167,93,0
1622,159,57,0
1646,365,296,0
1284,297,354,0
936,151,206,0
825,218,103,0
822,421,83,0
750,409,49,0
684,320,-3,0
790,350,-35,0
943,334,-39,0
949,322,-30,0
871,354,-32,0
825,384,23,0
706,360,53,0
677,420,97,0
866,575,111,0
1082,604,85,0
1324,505,-9,0
1307,326,-60,0
1200,347,130,0
1031,354,177,0
864,352,246,0
709,238,255,0
610,157,147,0
557,184,58,0
564,212,34,0
661,371,47,0
722,510,40,0
716,536,44,0
723,490,111,0
707,449,183,0
876,398,203,0
1142,365,127,0
1282,339,148,0
1568,432,160,0
1513,507,149,0
1048,458,160,0
751,374,179,0
800,324,19,0
835,369,6,0
781,320,53,0
740,289,40,0
768,329,-23,0
796,335,-43,0
785,291,-50,0
768,266,-58,0
787,219,-76,0
855,211,-107,0
969,285,-120,0
1085,340,-113,0
1228,387,-69,0
1435,367,-110,0
1565,467,-15,0
1452,757,296,0
920,569,263,0
1155,-125,230,0
971,-730,369,0
727,-107,162,0
692,288,7,0
587,327,-3,0
569,461,55,0
680,501,57,0
755,148,110,0
718,9,198,0
674,40,175,0
642,88,228,0
771,90,256,0
1121,123,183,0
1617,117,147,0
1874,303,158,0
1774,603,136,0
976,536,41,0
760,303,82,0
734,279,11,0
722,383,-117,0
602,537,-111,0
598,418,-7,0
707,399,-2,0
855,414,-49,0
870,530,83,0
1053,681,330,0
1387,1299,578,0
1682,1118,578,0
1408,778,406,0
988,318,321,0
697,4,190,0
577,45,129,0
870,969,319,0
1393,1793,321,0
821,1174,358,0
331,329,356,0
97,-122,322,0
3,-256,340,0
-60,-337,349,0
-120,-423,266,0
-90,-421,305,0
285,800,924,0
806,1553,747,0
236,1398,868,0
-397,921,925,0
-458,352,747,0
-242,553,828,0
-137,723,831,0
36,925,1000,0
476,1072,1144,0
561,997,985,0
319,929,799,0
154,835,690,0
81,567,541,0
4,324,509,0
-56,245,508,0
-56,339,567,0
-53,433,746,0
-18,377,838,0
12,264,705,0
-33,176,703,0
-143,141,639,0
-84,71,575,0
256,113,490,0
870,-65,-144,0
1750,165,-307,0
1997,925,404,0
1997,815,321,0
1409,792,71,0
805,153,218,0
811,206,352,0
818,461,295,0
648,539,325,0
496,253,340,0
527,383,349,0
757,418,356,0
933,332,287,0
936,283,243,0
1083,236,197,0
1191,244,91,0
1439,245,4,0
1312,515,128,0
985,382,71,0
903,322,21,0
943,451,-47,0
844,428,-2,0
703,322,75,0
693,379,105,0
777,537,82,0
781,555,137,0
752,618,205,0
744,679,235,0
725,674,274,0
691,642,292,0
678,687,288,0
724,649,266,0
817,622,285,0
903,447,2,0
743,559,-31,0
790,669,146,0
839,531,130,0
758,356,96,0
667,257,113,0
621,232,115,0
660,302,78,0
759,373,105,0
839,430,111,0
911,492,206,0
921,455,245,0
889,464,272,0
1047,432,217,0
1180,520,123,0
1446,694,94,0
1440,842,77,0
1233,943,67,0
1000,819,-99,0
1065,753,-350,0
1128,651,-425,0
983,544,-558,0
800,416,-608,0
661,364,-532,0
555,331,-396,0
486,348,-287,0
472,408,-282,0
517,589,-355,0
692,945,-289,0
676,1051,-185,0
588,1102,-178,0
393,1123,-96,0
286,1344,24,0
243,1231,-220,0
145,1248,-521,0
2,1343,-722,0
-224,1236,-896,0
-359,503,-1220,0
-428,73,-1174,0
-519,469,-803,0
-175,462,-599,0
-8,803,-634,0
-27,1067,-365,0
220,702,-362,0
196,714,145,0
-195,475,89,0
-1009,1401,-195,0
-752,573,-313,0
-467,-5,-353,0
-274,256,264,0
-308,703,-330,0
-222,715,-488,0
-341,232,-772,0
-509,206,-1093,0
-1165,-35,-599,0
-808,407,-574,0
-692,1598,-514,0
-962,779,-571,0
-769,756,-401,0
-673,782,-232,0
-589,661,-397,0
-490,725,-598,0
-409,1006,-720,0
-254,1071,-738,0
-125,1171,-604,0
-6,1263,-745,0
-28,945,-853,0
-134,964,-714,0
54,821,-609,0
128,470,-547,0
99,565,-454,0
33,553,-495,0
-74,421,-411,0
-147,175,-397,0
-160,559,-474,0
-157,811,-457,0
-163,955,-457,0
-168,907,-579,0
-207,867,-685,0
-207,811,-813,0
-230,867,-887,0
-179,931,-1334,0
-166,1043,-1308,0
-74,691,-848,0
-131,436,-749,0
-152,209,-697,0
-141,385,-608,0
-112,426,-529,0
-151,450,-495,0
-209,323,-538,0
-224,469,-436,0
-159,834,-400,0
-201,978,-584,0
-204,872,-675,0
-154,965,-707,0
-3,1097,-553,0
62,1352,-369,0
143,1151,-394,0
194,1167,-337,0
264,994,-458,0
306,793,-522,0
268,587,-450,0
218,523,-338,0
137,451,-301,0
71,433,-281,0
61,529,-310,0
105,844,-241,0
171,1225,-178,0
129,1027,-211,0
63,838,-282,0
6,993,-260,0
2,1256,-271,0
-81,1286,-453,0
-98,1187,-770,0
70,1585,-898,0
238,1094,-645,0
123,571,-378,0
80,466,-326,0
-23,487,-286,0
-44,550,-140,0
-86,637,36,0
-240,1141,-215,0
-66,1018,-304,0
-148,1035,-38,0
-104,1109,-278,0
68,1056,-337,0
101,868,-104,0
210,800,106,0
522,776,-71,0
517,996,-122,0
570,736,-33,0
615,413,283,0
775,449,413,0
766,459,239,0
673,442,48,0
664,515,-1,0
790,620,-19,0
942,734,-52,0
959,705,67,0
926,523,143,0
946,449,145,0
1148,500,136,0
1237,533,76,0
1468,582,45,0
1375,691,-49,0
724,528,21,0
797,456,-64,0
772,423,-64,0
678,414,8,0
684,413,22,0
790,434,-37,0
932,472,-102,0
980,457,-92,0
918,440,-89,0
868,475,-93,0
870,518,-56,0
896,502,-26,0
923,462,12,0
1002,473,87,0
1096,446,6,0
1125,536,81,0
1061,512,237,0
910,418,258,0
793,270,204,0
716,203,129,0
643,248,93,0
632,311,97,0
681,341,79,0
701,354,44,0
706,401,96,0
721,427,158,0
755,425,199,0
817,420,217,0
1063,412,211,0
1269,316,37,0
1497,445,-1,0
1334,679,200,0
905,541,151,0
843,373,30,0
921,384,-11,0
878,414,39,0
766,373,63,0
717,367,39,0
765,393,-1,0
825,463,-35,0
813,602,-27,0
745,625,-64,0
622,574,-24,0
570,566,98,0
617,550,130,0
718,533,100,0
900,507,128,0
1158,446,132,0
1294,423,69,0
1356,530,194,0
1101,457,255,0
845,307,204,0
799,243,177,0
748,291,103,0
675,293,60,0
634,293,54,0
646,347,31,0
697,369,18,0
725,388,39,0
797,334,63,0
832,351,70,0
872,398,136,0
972,392,170,0
1077,321,89,0
1535,383,35,0
1545,706,222,0
1159,504,228,0
730,289,176,0
735,262,72,0
713,379,72,0
673,398,82,0
696,379,88,0
801,400,38,0
913,417,-39,0
869,418,-49,0
769,481,-48,0
713,520,-10,0
689,498,44,0
723,485,39,0
818,534,79,0
972,565,134,0
1221,488,151,0
1411,482,59,0
1465,593,239,0
1141,512,302,0
706,279,258,0
650,116,180,0
700,162,66,0
714,245,42,0
706,263,37,0
701,305,63,0
805,356,103,0
764,339,108,0
708,315,137,0
679,314,138,0
664,309,132,0
631,259,-14,0
718,442,233,0
1030,395,286,0
1303,434,145,0
1647,646,184,0
1652,758,211,0
1212,528,-15,0
811,316,84,0
731,291,4,0
800,414,-74,0
882,431,-27,0
853,338,26,0
811,348,-1,0
823,445,-69,0
809,421,-104,0
777,426,-35,0
786,492,28,0
787,511,18,0
828,506,47,0
896,508,103,0
977,482,137,0
1107,415,90,0
1136,371,-30,0
1120,520,134,0
986,569,313,0
883,431,238,0
803,296,179,0
767,241,107,0
706,264,74,0
693,291,78,0
710,336,75,0
735,377,75,0
741,373,93,0
736,363,111,0
782,376,148,0
808,396,181,0
888,405,233,0
996,363,218,0
1403,402,129,0
1574,542,106,0
1147,428,64,0
752,407,159,0
763,435,63,0
842,424,-30,0
797,401,-8,0
747,342,-1,0
765,368,-35,0
812,375,-61,0
822,454,-35,0
805,498,-16,0
755,508,19,0
760,549,79,0
788,556,102,0
872,526,117,0
1012,516,169,0
1093,495,144,0
1183,479,26,0
1147,542,155,0
1023,511,240,0
843,379,182,0
760,267,164,0
754,267,119,0
719,275,58,0
673,272,39,0
657,307,67,0
715,287,69,0
790,321,76,0
773,380,101,0
764,411,202,0
810,402,262,0
795,386,254,0
866,383,259,0
988,410,268,0
1293,536,223,0
1252,503,151,0
1089,383,54,0
912,348,-13,0
924,413,-49,0
926,449,-32,0
855,404,-11,0
809,374,-23,0
826,422,-88,0
860,466,-108,0
888,553,-121,0
907,720,-151,0
890,844,-101,0
574,948,75,0
591,1029,125,0
749,939,110,0
920,798,178,0
936,632,265,0
971,486,180,0
830,311,10,0
781,393,134,0
696,423,321,0
627,284,290,0
600,188,123,0
584,223,52,0
617,266,61,0
756,328,68,0
898,411,88,0
973,556,320,0
1130,641,502,0
1100,593,318,0
952,501,288,0
877,193,280,0
876,182,242,0
939,392,172,0
1201,536,92,0
1548,535,40,0
1508,630,171,0
1186,482,241,0
746,408,377,0
681,319,359,0
738,291,225,0
762,341,166,0
731,311,182,0
680,288,134,0
684,309,106,0
718,328,92,0
774,340,104,0
826,332,130,0
909,318,87,0
1041,373,89,0
1178,485,174,0
1198,351,92,0
1499,332,-115,0
1352,509,63,0
1031,541,467,0
751,626,449,0
740,612,422,0
893,546,373,0
990,558,206,0
867,534,128,0
653,531,5,0
612,608,-152,0
535,849,-194,0
480,884,-298,0
329,904,-334,0
183,828,-306,0
20,615,-392,0
-132,647,-445,0
-240,817,-367,0
-245,640,-365,0
-469,514,-444,0
-836,487,-620,0
-708,563,-823,0
-534,572,-669,0
-370,481,-467,0
-369,345,-386,0
-438,333,-586,0
-468,412,-578,0
-482,662,-571,0
-517,548,-558,0
-583,366,-610,0
-594,331,-567,0
-587,404,-524,0
-641,552,-569,0
-699,569,-610,0
-732,572,-611,0
-768,591,-701,0
-705,599,-715,0
-597,569,-614,0
-585,482,-656,0
-618,433,-906,0
-462,591,-1149,0
-174,854,-794,0
-48,816,-592,0
-201,468,-627,0
-345,255,-598,0
-380,197,-483,0
-566,371,-560,0
-551,264,-652,0
-480,601,-584,0
-423,656,-569,0
-434,556,-654,0
-537,535,-674,0
-785,327,-732,0
-1059,460,-1396,0
-768,475,-1593,0
-352,557,-937,0
-194,537,-717,0
-237,382,-780,0
-285,421,-728,0
-291,418,-558,0
-384,484,-588,0
-428,323,-661,0
-492,429,-651,0
-500,521,-595,0
-514,600,-536,0
-549,614,-517,0
-621,664,-586,0
-672,946,-702,0
-603,980,-658,0
-462,859,-454,0
-509,983,-613,0
-317,704,-482,0
-185,1027,-234,0
-241,996,-332,0
-262,619,-228,0
-281,383,-95,0
-255,513,-37,0
-338,727,3,0
-412,872,130,0
-303,540,191,0
-540,1011,15,0
-610,630,40,0
-567,649,133,0
-806,896,-10,0
-602,683,47,0
-628,1325,134,0
-221,950,527,0
-151,845,732,0
-188,902,610,0
-109,911,561,0
2,788,559,0
40,594,424,0
-3,539,406,0
-69,667,368,0
-124,759,472,0
-141,923,532,0
-199,1058,639,0
-233,897,601,0
-114,841,541,0
-41,884,549,0
26,1020,759,0
78,1193,876,0
82,1307,843,0
119,1342,695,0
217,922,375,0
265,510,252,0
109,525,423,0
-26,640,529,0
-120,591,419,0
-150,441,298,0
-84,498,416,0
29,632,619,0
59,714,714,0
8,794,671,0
-72,802,635,0
-104,888,760,0
22,1109,852,0
251,1581,789,0
49,1590,572,0
167,621,222,0
19,498,69,0
-138,280,246,0
10,994,390,0
68,928,392,0
-65,602,217,0
-30,766,149,0
-74,931,241,0
-127,1003,312,0
-148,988,375,0
-180,997,529,0
-213,921,533,0
-256,859,627,0
-259,986,715,0
-267,1057,645,0
-70,1439,463,0
184,1358,388,0
334,888,458,0
320,699,256,0
58,671,144,0
-108,700,391,0
-135,593,409,0
-120,532,300,0
-33,589,361,0
67,722,536,0
74,707,602,0
-20,645,502,0
-30,807,484,0
-81,953,622,0
-154,937,671,0
-215,942,779,0
-242,1307,438,0
-132,1583,752,0
87,1331,378,0
169,931,71,0
281,791,263,0
177,841,598,0
0,599,249,0
-120,430,178,0
-200,545,212,0
-230,783,254,0
-241,870,271,0
-204,932,298,0
-76,898,430,0
-33,825,475,0
-79,865,510,0
-147,1188,775,0
-139,1268,846,0
-107,1369,570,0
-15,1506,364,0
136,1204,459,0
219,710,218,0
89,490,187,0
-71,653,364,0
-134,664,325,0
-148,493,223,0
-96,517,279,0
26,687,445,0
69,733,521,0
51,681,496,0
-26,770,587,0
-122,793,518,0
-228,916,633,0
-276,1086,691,0
-71,1561,463,0
152,1569,622,0
271,1382,526,0
231,843,226,0
160,680,240,0
73,808,329,0
27,786,424,0
-23,599,365,0
-67,508,296,0
-82,615,268,0
-106,761,306,0
-116,795,343,0
-101,824,378,0
-74,841,484,0
-31,892,558,0
21,959,589,0
17,1142,707,0
12,1364,765,0
68,1496,509,0
144,1290,453,0
291,942,389,0
355,628,249,0
193,626,300,0
67,654,396,0
-5,523,339,0
-6,392,269,0
42,474,252,0
74,727,452,0
114,855,676,0
81,758,607,0
-5,796,623,0
-59,895,713,0
-122,1022,745,0
-40,1423,516,0
87,1745,937,0
354,1357,424,0
376,656,155,0
237,526,320,0
90,608,365,0
-3,506,303,0
-47,636,304,0
-73,649,250,0
-90,755,252,0
-77,810,355,0
-58,792,392,0
-127,768,288,0
23,992,826,0
28,1246,908,0
56,1171,724,0
20,1204,568,0
72,1497,249,0
138,1374,269,0
319,914,305,0
340,717,144,0
139,702,166,0
20,652,300,0
-62,524,268,0
-102,466,229,0
-98,644,254,0
-91,832,496,0
58,959,759,0
100,663,583,0
66,554,519,0
-34,754,577,0
-97,970,677,0
-201,1046,728,0
-149,1475,601,0
90,1667,665,0
245,1222,289,0
206,627,143,0
144,535,110,0
57,635,325,0
-27,663,344,0
-123,673,274,0
-151,832,253,0
-189,927,272,0
-180,941,310,0
-98,910,407,0
-17,852,440,0
-25,859,401,0
-123,1047,440,0
-133,1270,566,0
-39,1427,539,0
98,1334,378,0
185,1184,391,0
327,842,314,0
312,619,77,0
146,647,141,0
61,727,253,0
12,650,246,0
34,581,265,0
104,659,286,0
171,765,345,0
198,784,387,0
208,758,337,0
136,881,411,0
-3,1034,359,0
-82,1108,444,0
-82,1140,488,0
79,1299,211,0
397,1798,194,0
521,1373,126,0
307,692,-156,0
27,497,-71,0
-86,798,114,0
-94,1065,287,0
-103,883,280,0
-42,717,148,0
-12,758,99,0
-25,879,126,0
-39,967,167,0
-30,972,197,0
-16,945,231,0
1,984,290,0
-21,1074,385,0
-11,1159,510,0
11,1239,441,0
163,1377,223,0
211,1225,232,0
349,1043,366,0
430,668,113,0
279,434,14,0
139,657,236,0
47,854,377,0
-5,767,337,0
65,666,314,0
141,699,399,0
162,800,569,0
168,813,514,0
123,718,451,0
27,731,405,0
-66,862,448,0
-163,975,579,0
-135,1272,805,0
-104,1194,574,0
34,1501,602,0
264,1281,618,0
232,973,271,0
226,452,134,0
71,458,139,0
-1,611,145,0
-56,844,226,0
-104,922,305,0
-155,918,395,0
-173,814,342,0
-131,761,278,0
-95,863,263,0
-94,898,288,0
-88,977,494,0
-120,1144,750,0
-87,1276,764,0
-18,1407,631,0
138,1389,347,0
243,1328,349,0
331,995,148,0
141,291,137,0
29,523,305,0
-42,716,322,0
-52,662,256,0
29,670,341,0
170,793,641,0
228,794,611,0
116,633,505,0
-19,716,395,0
-139,937,468,0
-88,1144,678,0
-20,1175,576,0
21,1447,477,0
189,1630,603,0
273,1255,312,0
174,612,97,0
96,543,126,0
38,659,171,0
7,774,207,0
-25,749,256,0
-67,711,249,0
-102,792,271,0
-127,895,302,0
-125,983,279,0
-122,986,259,0
-109,1061,405,0
-80,1027,605,0
-88,1003,862,0
-79,1141,797,0
-85,1301,494,0
-25,1185,345,0
78,937,91,0
62,663,34,0
-4,611,228,0
-35,792,411,0
0,839,367,0
66,754,260,0
147,727,194,0
167,735,265,0
204,739,505,0
148,680,456,0
104,761,469,0
121,859,473,0
117,860,466,0
124,866,545,0
53,847,605,0
118,1227,494,0
233,1665,491,0
384,1569,269,0
241,980,-13,0
61,657,-34,0
32,764,-11,0
2,914,30,0
-44,917,121,0
-52,819,198,0
-55,726,220,0
-59,705,267,0
-34,785,319,0
-20,904,323,0
-43,940,319,0
-86,900,318,0
-132,880,320,0
-155,935,313,0
-142,1035,375,0
-136,1120,459,0
-69,1232,654,0
106,1334,699,0
227,1373,535,0
310,1172,490,0
289,761,176,0
187,546,137,0
106,538,152,0
69,663,204,0
38,786,239,0
55,818,265,0
129,805,434,0
226,725,790,0
215,622,696,0
147,480,599,0
52,668,466,0
-58,835,403,0
-141,936,452,0
-106,968,612,0
-81,855,826,0
70,1227,521,0
254,1629,752,0
227,1361,457,0
137,808,236,0
87,527,126,0
47,531,76,0
7,735,170,0
-6,883,265,0
-98,885,319,0
-121,784,455,0
-93,737,474,0
-74,777,369,0
-89,824,261,0
-99,897,307,0
-146,918,430,0
-174,1000,512,0
-122,1011,590,0
98,1140,553,0
207,1287,486,0
131,1330,436,0
91,1612,654,0
220,1301,322,0
262,599,1,0
102,408,-65,0
23,533,233,0
3,609,343,0
17,606,243,0
95,638,210,0
216,690,405,0
262,699,657,0
146,721,591,0
19,688,518,0
-57,846,476,0
-68,1045,538,0
-88,1209,578,0
28,1530,485,0
257,1718,511,0
302,1312,381,0
224,694,196,0
154,398,58,0
110,545,121,0
114,834,261,0
39,921,292,0
-50,852,254,0
-102,827,219,0
-141,845,244,0
-152,825,251,0
-167,855,240,0
-153,892,310,0
-114,867,377,0
-67,800,504,0
-7,872,548,0
209,923,602,0
239,1186,665,0
58,1565,388,0
87,1936,648,0
146,1366,501,0
91,658,139,0
161,392,-93,0
269,597,40,0
229,705,103,0
186,684,17,0
97,587,256,0
220,581,839,0
265,522,800,0
170,376,504,0
33,632,507,0
-25,895,525,0
-70,997,623,0
-120,967,690,0
-172,1014,755,0
-141,957,816,0
46,1363,595,0
328,1365,435,0
337,985,393,0
173,574,272,0
96,466,224,0
90,714,319,0
47,839,423,0
-48,812,417,0
-80,773,381,0
-95,787,352,0
-112,910,400,0
-84,868,385,0
15,710,534,0
19,695,687,0
-64,724,710,0
-171,1123,714,0
-115,1215,841,0
46,1307,813,0
130,1170,800,0
529,965,1203,0
541,546,500,0
372,135,266,0
249,397,324,0
163,576,310,0
67,642,275,0
42,741,254,0
8,771,296,0
-6,785,407,0
59,765,805,0
212,505,1666,0
184,104,767,0
84,552,681,0
43,940,817,0
-27,1096,700,0
-37,1107,618,0
200,1551,722,0
444,1298,595,0
410,921,235,0
241,679,109,0
87,654,258,0
64,709,343,0
-6,612,334,0
-41,529,317,0
0,669,376,0
21,802,448,0
7,891,452,0
-18,981,471,0
-76,914,547,0
-159,920,652,0
-174,982,754,0
-225,960,752,0
-165,1243,757,0
50,1403,653,0
198,1255,548,0
430,995,283,0
345,528,4,0
128,387,82,0
34,582,390,0
-37,789,560,0
-15,689,436,0
110,631,354,0
198,692,406,0
176,697,555,0
99,663,610,0
36,709,584,0
208,785,639,0
229,779,556,0
135,775,621,0
9,1116,679,0
70,1624,860,0
119,1364,534,0
146,949,100,0
138,828,-89,0
155,937,0,0
155,1001,211,0
68,696,301,0
3,462,495,0
-12,415,515,0
-36,638,389,0
-17,910,424,0
-15,1078,351,0
-72,1036,312,0
-96,950,359,0
-27,1009,478,0
91,1079,778,0
205,928,1016,0
294,1008,685,0
309,1106,530,0
348,1107,451,0
277,934,140,0
141,671,39,0
74,708,184,0
85,722,450,0
126,584,634,0
175,483,481,0
209,461,479,0
180,630,409,0
103,816,333,0
42,967,383,0
27,1082,572,0
20,1176,799,0
116,1023,636,0
287,1442,527,0
444,1592,334,0
357,1164,61,0
179,904,-84,0
79,939,-14,0
24,1060,109,0
-30,889,159,0
-50,611,136,0
-28,485,110,0
19,532,127,0
56,699,169,0
64,838,213,0
40,952,289,0
-2,1016,403,0
-46,1036,546,0
-35,1087,752,0
2,1157,775,0
39,1203,554,0
75,1302,458,0
177,1195,317,0
164,769,141,0
3,442,106,0
-100,468,234,0
-115,627,363,0
-38,755,406,0
135,759,411,0
260,675,459,0
273,665,527,0
171,576,515,0
10,639,513,0
-122,839,556,0
-162,1050,652,0
-116,1078,437,0
362,1706,486,0
435,1414,202,0
251,849,78,0
44,663,64,0
-6,732,174,0
-59,617,173,0
-117,451,136,0
-123,616,115,0
-64,910,169,0
-53,1145,199,0
-85,1126,277,0
-74,1119,346,0
-29,1039,420,0
45,916,499,0
139,836,810,0
147,849,804,0
100,1243,614,0
-87,1342,451,0
-114,1226,366,0
5,930,139,0
43,594,-28,0
54,539,88,0
84,684,296,0
76,673,458,0
144,598,601,0
247,689,512,0
290,752,461,0
264,665,424,0
123,638,417,0
-53,691,481,0
-145,974,743,0
-86,1176,1011,0
-19,835,767,0
50,1083,407,0
504,1835,669,0
795,1671,352,0
482,789,-39,0
212,230,-19,0
59,330,323,0
-42,447,410,0
-87,905,477,0
-85,1028,617,0
-32,1072,345,0
43,933,100,0
144,856,35,0
137,821,64,0
160,793,194,0
145,997,483,0
215,1296,990,0
383,1518,953,0
249,1084,246,0
243,1005,120,0
495,863,99,0
459,662,24,0
295,596,45,0
196,682,328,0
92,583,544,0
47,587,379,0
50,761,413,0
15,785,431,0
104,929,265,0
251,749,485,0
149,887,647,0
103,1260,569,0
258,1261,354,0
259,1470,263,0
239,1175,14,0
100,998,-162,0
5,864,-77,0
-21,802,58,0
-72,671,94,0
-119,593,186,0
-135,644,230,0
-88,1062,308,0
-39,936,303,0
-146,870,192,0
-177,948,182,0
-168,988,178,0
-189,1120,185,0
-148,1465,258,0
-180,1456,523,0
-99,1223,483,0
102,1019,419,0
333,892,426,0
446,728,200,0
224,593,205,0
1,563,275,0
-122,580,288,0
-133,556,315,0
-111,593,143,0
17,795,228,0
151,818,364,0
178,700,760,0
13,766,754,0
-114,985,881,0
-83,1396,796,0
101,1616,627,0
358,1508,504,0
390,1061,255,0
263,707,39,0
103,634,-4,0
77,794,207,0
10,644,302,0
-13,531,254,0
26,557,202,0
65,726,209,0
54,864,198,0
85,1042,209,0
110,1208,330,0
10,1156,519,0
-32,1165,734,0
109,1204,832,0
174,1434,564,0
542,1611,422,0
691,1095,-63,0
361,477,-274,0
156,458,-69,0
83,506,256,0
122,496,422,0
211,572,372,0
167,572,303,0
43,631,306,0
-36,764,327,0
-66,988,378,0
42,1223,767,0
231,1378,981,0
164,1070,480,0
148,879,490,0
234,1158,600,0
253,1100,381,0
64,861,161,0
-3,960,157,0
62,1079,222,0
80,934,220,0
90,701,135,0
120,634,157,0
168,852,388,0
76,491,-139,0
-45,854,-167,0
-115,1012,9,0
169,1178,672,0
305,1400,721,0
41,1167,-35,0
62,977,-364,0
160,1061,-737,0
301,978,-849,0
491,1052,-812,0
387,847,-719,0
218,472,-466,0
120,391,-287,0
67,390,-224,0
9,429,-178,0
66,689,-301,0
121,777,-370,0
93,858,-331,0
92,911,-234,0
127,1095,-270,0
194,1270,-289,0
135,1462,-221,0
164,1628,-644,0
286,1318,-559,0
313,890,-415,0
230,793,-397,0
110,825,-415,0
88,723,-358,0
73,511,-82,0
-16,523,24,0
-30,491,85,0
-35,732,112,0
-42,994,69,0
-45,1036,10,0
-59,1107,40,0
-32,1014,155,0
31,968,224,0
173,752,-49,0
227,1529,-343,0
154,1975,178,0
232,1561,156,0
238,533,-163,0
226,246,-159,0
113,378,-47,0
111,516,-124,0
89,898,-134,0
85,984,31,0
122,935,258,0
223,805,451,0
204,645,348,0
142,773,172,0
112,945,156,0
24,1138,249,0
-31,1458,334,0
51,1350,114,0
292,1647,46,0
396,1309,151,0
426,1047,5,0
293,817,-36,0
133,709,-21,0
45,693,-3,0
-9,696,-17,0
-31,601,-179,0
46,786,-196,0
62,858,131,0
2,806,217,0
-15,939,281,0
-40,1082,344,0
-59,1249,460,0
-9,1404,958,0
32,1223,941,0
171,1186,361,0
233,1378,379,0
340,1142,307,0
320,697,90,0
187,370,65,0
83,448,202,0
19,560,278,0
0,639,284,0
26,702,304,0
97,839,375,0
134,782,615,0
224,624,627,0
135,693,453,0
76,863,579,0
32,1024,641,0
3,1091,598,0
7,1228,391,0
74,1592,291,0
172,1635,198,0
190,1137,68,0
151,616,32,0
137,561,73,0
107,600,180,0
72,647,280,0
-5,650,261,0
-57,709,167,0
-44,918,122,0
-24,1036,121,0
-7,987,152,0
67,975,434,0
208,987,792,0
269,1281,838,0
287,1466,620,0
318,1384,239,0
373,1355,89,0
481,1240,103,0
421,784,-17,0
251,425,-27,0
159,434,135,0
109,488,250,0
64,559,242,0
39,564,207,0
118,712,274,0
313,947,478,0
418,981,636,0
314,627,530,0
194,521,387,0
136,803,417,0
73,1127,522,0
100,1433,458,0
203,1611,363,0
357,1525,195,0
413,1217,90,0
375,798,83,0
288,534,82,0
259,467,115,0
189,628,310,0
148,869,398,0
123,742,114,0
75,902,31,0
-27,999,76,0
-17,916,72,0
81,928,132,0
320,877,225,0
557,899,368,0
329,1105,319,0
38,1244,170,0
-72,1426,291,0
49,1375,690,0
281,1160,587,0
594,1146,380,0
700,844,27,0
448,340,-109,0
253,384,10,0
179,710,146,0
120,887,180,0
52,739,204,0
110,653,231,0
239,800,279,0
350,692,364,0
414,411,696,0
297,316,680,0
109,536,835,0
253,1112,915,0
698,1405,498,0
921,1720,384,0
914,1483,148,0
466,879,46,0
186,671,212,0
102,633,285,0
101,624,282,0
149,579,272,0
195,525,205,0
248,601,128,0
272,728,53,0
231,838,19,0
220,1013,81,0
242,1193,274,0
268,1335,454,0
257,970,707,0
367,781,1108,0
502,547,1173,0
503,1021,704,0
696,1221,346,0
680,917,123,0
440,640,149,0
238,534,238,0
144,454,258,0
110,501,285,0
148,552,592,0
248,439,757,0
320,344,824,0
325,274,753,0
224,386,687,0
133,429,784,0
162,591,1002,0
212,654,1170,0
330,1100,1145,0
534,1223,1180,0
482,976,828,0
248,829,378,0
96,589,272,0
28,466,457,0
44,454,528,0
0,476,557,0
-21,691,572,0
65,911,878,0
57,761,870,0
-64,581,638,0
-58,549,535,0
-24,583,693,0
-42,411,747,0
-413,884,873,0
-340,1106,1087,0
-90,924,1091,0
57,850,658,0
606,1241,483,0
658,1045,387,0
259,794,116,0
27,511,234,0
-57,511,395,0
-95,548,392,0
-131,639,468,0
-104,348,552,0
120,709,729,0
176,606,576,0
238,689,499,0
192,798,577,0
155,820,656,0
133,982,661,0
171,1031,643,0
75,1021,703,0
-6,1511,736,0
263,1340,614,0
250,928,162,0
57,855,-100,0
-47,764,-100,0
1,676,68,0
58,648,147,0
52,635,191,0
-13,849,182,0
-96,943,169,0
-207,1023,155,0
-443,1157,159,0
-296,905,540,0
-116,688,510,0
-31,1066,279,0
28,1079,188,0
76,1032,289,0
108,1352,245,0
204,1420,-6,0
299,1483,-64,0
265,1034,-60,0
174,418,32,0
66,372,136,0
-77,620,231,0
-39,955,327,0
6,933,184,0
123,876,88,0
215,897,48,0
237,828,74,0
220,877,200,0
125,1027,236,0
-65,1415,491,0
-128,1434,861,0
-88,1403,541,0
22,1738,366,0
91,929,373,0
-158,692,446,0
-180,406,250,0
-290,-116,-77,0
103,-144,207,0
431,1219,292,0
-75,1747,111,0
-273,1041,-15,0
-322,585,-91,0
-270,541,48,0
-228,1093,123,0
-204,1483,299,0
-64,1198,437,0
-38,997,380,0
-136,986,179,0
-223,1049,193,0
-263,977,-44,0
-338,780,-30,0
-337,1193,580,0
-216,1084,458,0
-82,689,253,0
-7,440,219,0
-31,672,302,0
-12,969,498,0
43,890,499,0
60,832,399,0
17,803,411,0
-40,781,418,0
-83,803,418,0
-123,859,470,0
-146,941,423,0
-109,1061,551,0
-61,1029,579,0
-102,1094,327,0
-163,1483,123,0
-190,1527,81,0
-75,1136,149,0
-77,706,62,0
-107,450,-4,0
-84,657,144,0
-93,929,236,0
-131,897,154,0
-154,822,102,0
-166,849,138,0
-162,851,222,0
-142,889,305,0
-147,994,273,0
-136,932,232,0
-178,887,221,0
-232,922,269,0
-288,985,311,0
-343,1030,357,0
-374,1338,224,0
-284,1594,147,0
-117,1458,292,0
87,881,133,0
92,469,-38,0
-4,479,-76,0
-80,865,145,0
-161,1006,289,0
-173,840,284,0
-70,820,236,0
35,866,227,0
18,876,237,0
-7,800,228,0
-18,779,378,0
-2,733,375,0
-66,1170,403,0
-1,1076,489,0
225,927,455,0
274,1691,252,0
155,1425,146,0
27,1055,78,0
-21,731,138,0
-61,593,148,0
-40,582,184,0
12,751,298,0
53,894,263,0
46,947,262,0
-27,898,259,0
-88,815,290,0
-121,851,292,0
-94,975,300,0
-50,1038,323,0
-22,993,335,0
