AccX [mg],AccY,AccZ,Ground Truth
-724,789,192,0
-884,842,75,0
-898,1022,44,0
-742,963,141,0
-763,867,109,0
-707,838,61,0
-658,727,53,0
-616,573,43,0
-581,517,72,0
-564,471,108,0
-621,412,61,0
-662,459,118,0
-685,500,218,0
-780,516,226,0
-926,779,246,0
-926,779,246,0
-926,779,246,0
-886,887,249,0
-736,907,293,0
-569,826,281,0
-524,788,231,0
-504,793,224,0
-527,712,251,0
-588,573,278,0
-613,526,293,0
-643,491,284,0
-651,444,268,0
-687,411,313,0
-726,460,362,0
-760,485,392,0
-818,588,388,0
-787,674,395,0
-863,652,430,0
-1034,702,307,0
-1034,702,307,0
-837,651,253,0
-776,516,193,0
-823,630,125,0
-685,721,224,0
-586,631,274,0
-577,460,287,0
-597,453,294,0
-631,459,267,0
-676,429,239,0
-688,459,288,0
-769,510,299,0
-876,541,314,0
-904,607,381,0
-1037,697,400,0
-947,817,398,0
-811,853,363,0
-617,762,332,0
-493,654,241,0
-493,654,241,0
-540,609,221,0
-654,541,248,0
-753,526,294,0
-771,437,275,0
-767,448,260,0
-730,463,280,0
-699,449,321,0
-687,415,338,0
-769,480,307,0
-823,585,254,0
-777,659,256,0
-873,665,281,0
-1056,666,274,0
-1080,738,166,0
-858,566,88,0
-868,532,-6,0
-825,641,-58,0
-743,598,-11,0
-743,598,-11,0
-712,576,35,0
-710,552,140,0
-738,520,138,0
-749,486,139,0
-773,464,186,0
-826,429,174,0
-954,468,126,0
-944,614,144,0
-881,680,173,0
-801,719,194,0
-753,781,203,0
-642,758,210,0
-593,694,221,0
-629,624,171,0
-730,567,137,0
-737,604,155,0
-733,563,200,0
-706,499,200,0
-706,499,200,0
-724,457,153,0
-738,515,98,0
-704,565,144,0
-708,605,161,0
-775,697,121,0
-821,811,118,0
-854,822,203,0
-932,766,170,0
-976,777,24,0
-820,691,-22,0
-800,638,-56,0
-758,742,-113,0
-627,797,-65,0
-518,751,9,0
-521,615,59,0
-557,571,83,0
-609,583,99,0
-680,635,151,0
-680,635,151,0
-705,661,214,0
-738,644,220,0
-770,657,168,0
-781,770,139,0
-733,1004,221,0
-690,1001,294,0
-714,1048,189,0
-547,943,173,0
-513,745,197,0
-547,621,64,0
-575,561,14,0
-641,580,65,0
-669,561,104,0
-659,549,183,0
-659,570,217,0
-662,559,174,0
-645,599,164,0
-612,727,181,0
-612,727,181,0
-578,732,121,0
-601,742,90,0
-644,749,90,0
-750,795,100,0
-853,866,141,0
-968,1019,188,0
-889,1141,246,0
-728,850,220,0
-700,665,91,0
-730,694,9,0
-715,740,-36,0
-633,743,-96,0
-542,749,-95,0
-501,607,-18,0
-504,583,13,0
-521,629,51,0
-510,632,119,0
-639,850,278,0
-639,850,278,0
-639,850,278,0
-701,904,280,0
-743,969,231,0
-699,1102,228,0
-519,1102,284,0
-425,816,299,0
-438,729,220,0
-491,723,107,0
-533,731,67,0
-560,712,118,0
-572,687,194,0
-614,621,192,0
-651,572,184,0
-662,595,212,0
-649,652,224,0
-642,765,175,0
-601,933,142,0
-578,944,141,0
-688,1016,103,0
-701,1189,87,0
-540,939,127,0
-560,746,122,0
-606,904,144,0
-519,882,134,0
-456,722,111,0
-464,626,104,0
-485,538,122,0
-548,515,107,0
-612,549,108,0
-641,591,122,0
-670,658,127,0
-716,779,146,0
-729,891,200,0
-720,937,238,0
-663,1137,214,0
-536,1296,212,0
-350,1112,250,0
-307,926,209,0
-369,910,157,0
-420,756,150,0
-491,740,165,0
-532,732,214,0
-552,622,255,0
-545,562,261,0
-556,550,286,0
-581,499,320,0
-610,550,330,0
-708,687,329,0
-710,751,320,0
-789,772,295,0
-948,789,242,0
-971,805,161,0
-793,759,159,0
-765,683,105,0
-768,619,65,0
-706,609,98,0
-650,576,122,0
-651,518,143,0
-647,456,164,0
-680,397,168,0
-719,390,172,0
-749,446,166,0
-877,584,142,0
-863,685,208,0
-900,644,288,0
-1012,743,284,0
-852,1043,350,0
-609,953,353,0
-590,755,250,0
-576,692,247,0
-645,603,237,0
-716,578,266,0
-662,559,330,0
-652,416,321,0
-654,435,340,0
-638,400,405,0
-667,329,380,0
-708,533,398,0
-737,752,443,0
-722,671,445,0
-749,618,474,0
-842,642,502,0
-914,697,464,0
-897,716,361,0
-822,619,294,0
-778,476,256,0
-810,401,156,0
-789,426,128,0
-783,500,115,0
-756,495,151,0
-776,478,193,0
-766,375,233,0
-754,419,273,0
-731,484,321,0
-734,526,341,0
-735,505,365,0
-723,521,383,0
-737,532,387,0
-744,571,381,0
-756,659,402,0
-745,705,441,0
-722,708,465,0
-730,684,415,0
-796,763,295,0
-827,932,267,0
-772,904,270,0
-672,798,225,0
-556,711,193,0
-495,671,183,0
-494,672,193,0
-550,681,205,0
-573,689,256,0
-603,660,292,0
-611,640,303,0
-605,616,316,0
-628,591,306,0
-653,575,283,0
-706,591,252,0
-782,684,230,0
-777,703,221,0
-822,665,242,0
-834,757,264,0
-854,576,174,0
-952,606,72,0
-899,643,27,0
-810,610,109,0
-748,578,172,0
-717,513,202,0
-713,446,176,0
-706,409,150,0
-722,392,139,0
-755,380,118,0
-775,398,121,0
-829,454,140,0
-875,506,164,0
-898,514,173,0
-873,537,175,0
-855,592,178,0
-854,652,178,0
-892,775,161,0
-881,787,148,0
-933,924,134,0
-807,1065,183,0
-583,982,253,0
-454,901,192,0
-368,927,165,0
-302,897,202,0
-350,770,198,0
-435,784,235,0
-471,748,305,0
-474,731,334,0
-451,638,363,0
-453,504,342,0
-507,433,281,0
-560,451,287,0
-608,593,295,0
-695,757,288,0
-755,911,287,0
-875,1068,310,0
-903,1097,279,0
-805,908,199,0
-715,794,197,0
-747,744,182,0
-737,574,77,0
-667,605,104,0
-632,535,144,0
-626,418,145,0
-622,363,165,0
-637,340,174,0
-644,380,182,0
-626,461,230,0
-678,517,255,0
-767,603,296,0
-806,781,366,0
-888,825,377,0
-967,913,329,0
-844,1092,314,0
-560,1036,338,0
-357,843,358,0
-414,864,307,0
-425,775,298,0
-468,704,329,0
-540,647,326,0
-549,599,322,0
-548,519,304,0
-572,513,284,0
-567,479,303,0
-598,413,302,0
-617,455,310,0
-680,647,316,0
-693,810,328,0
-781,754,318,0
-976,930,276,0
-997,944,190,0
-871,809,137,0
-804,662,114,0
-835,677,44,0
-746,663,4,0
-636,630,61,0
-595,548,124,0
-596,486,190,0
-623,443,214,0
-663,370,177,0
-695,368,161,0
-710,436,172,0
-747,487,194,0
-840,620,195,0
-926,804,197,0
-903,849,276,0
-974,929,218,0
-926,1076,158,0
-651,1042,226,0
-467,764,230,0
-499,748,146,0
-507,706,138,0
-576,669,149,0
-629,649,190,0
-620,587,225,0
-589,501,250,0
-572,505,273,0
-564,503,295,0
-576,536,316,0
-602,580,338,0
-640,626,347,0
-704,751,328,0
-707,734,327,0
-863,739,292,0
-1057,904,219,0
-930,979,165,0
-702,802,175,0
-709,646,103,0
-752,634,19,0
-695,607,22,0
-684,597,45,0
-658,553,97,0
-632,494,159,0
-634,421,154,0
-650,414,151,0
-671,455,164,0
-682,501,181,0
-759,564,166,0
-831,748,178,0
-797,859,301,0
-884,826,351,0
-926,1075,240,0
-714,1213,280,0
-409,1003,354,0
-271,737,303,0
-317,743,188,0
-387,762,197,0
-470,737,190,0
-512,672,217,0
-499,637,258,0
-486,611,282,0
-469,583,277,0
-463,587,279,0
-479,631,279,0
-499,664,264,0
-554,742,214,0
-566,857,199,0
-574,878,185,0
-690,1008,130,0
-745,1144,55,0
-683,1158,69,0
-582,900,109,0
-648,870,40,0
-622,930,21,0
-544,894,23,0
-483,785,50,0
-451,643,63,0
-439,565,68,0
-439,536,70,0
-456,577,65,0
-474,638,89,0
-551,734,107,0
-629,1018,122,0
-595,1076,226,0
-605,1049,278,0
-590,1231,204,0
-369,1296,280,0
-75,1101,356,0
-114,961,254,0
-186,817,186,0
-246,779,236,0
-303,824,269,0
-314,762,255,0
-312,666,255,0
-329,604,270,0
-360,570,266,0
-406,652,280,0
-453,863,298,0
-457,1000,323,0
-454,1057,336,0
-510,1126,313,0
-510,1111,258,0
-456,957,202,0
-432,739,150,0
-483,643,111,0
-518,757,92,0
-474,883,57,0
-458,922,45,0
-454,847,63,0
-522,696,50,0
-558,631,73,0
-557,641,120,0
-586,690,89,0
-588,793,116,0
-585,861,143,0
-609,877,143,0
-602,916,164,0
-567,874,174,0
-591,827,108,0
-606,1048,85,0
-478,1190,134,0
-299,1047,205,0
-258,1013,280,0
-256,905,265,0
-254,843,234,0
-316,843,234,0
-369,808,223,0
-395,730,217,0
-396,665,221,0
-393,628,214,0
-395,608,217,0
-406,610,228,0
-442,645,235,0
-488,727,236,0
-497,832,217,0
-502,854,183,0
-564,995,171,0
-644,1202,121,0
-612,1319,67,0
-484,1246,134,0
-480,1048,104,0
-455,996,50,0
-407,939,22,0
-362,816,29,0
-334,682,44,0
-339,616,64,0
-357,624,117,0
-399,628,118,0
-470,680,101,0
-545,778,101,0
-634,915,106,0
-663,1054,151,0
-688,970,179,0
-738,972,128,0
-684,1147,118,0
-505,1296,175,0
-374,958,241,0
-371,900,152,0
-376,927,82,0
-394,782,103,0
-423,710,116,0
-438,638,138,0
-446,564,140,0
-478,513,153,0
-501,504,179,0
-529,549,256,0
-559,600,318,0
-600,734,327,0
-634,874,319,0
-610,887,337,0
-735,819,260,0
-907,867,122,0
-843,945,71,0
-682,769,107,0
-760,671,2,0
-728,702,-50,0
-603,778,22,0
-529,702,87,0
-538,585,147,0
-542,513,206,0
-590,454,206,0
-631,477,140,0
-677,560,120,0
-684,638,118,0
-727,720,113,0
-746,843,148,0
-737,871,221,0
-765,877,223,0
-788,1144,147,0
-565,1361,239,0
-374,1033,253,0
-381,937,164,0
-358,921,155,0
-324,781,167,0
-356,760,194,0
-379,713,250,0
-421,655,296,0
-452,601,309,0
-459,589,320,0
-486,520,322,0
-525,520,335,0
-681,619,335,0
-746,802,334,0
-751,854,360,0
-833,891,330,0
-919,938,275,0
-912,950,203,0
-754,842,148,0
-754,590,12,0
-788,565,-50,0
-707,536,-2,0
-672,465,3,0
-633,460,73,0
-620,414,146,0
-608,376,147,0
-615,416,164,0
-650,514,199,0
-745,664,190,0
-799,905,241,0
-790,846,352,0
-960,808,368,0
-916,1091,266,0
-569,1024,304,0
-409,922,318,0
-408,917,287,0
-516,691,232,0
-602,581,216,0
-587,582,243,0
-555,475,218,0
-530,425,225,0
-547,468,245,0
-589,551,273,0
-671,775,304,0
-654,895,337,0
-738,757,376,0
-995,889,256,0
-1099,949,103,0
-861,864,54,0
-732,654,44,0
-766,636,-33,0
-699,656,-54,0
-657,646,-34,0
-611,643,8,0
-577,564,85,0
-560,481,136,0
-555,437,148,0
-595,431,135,0
-612,505,140,0
-655,612,131,0
-788,855,103,0
-770,1003,148,0
-791,947,205,0
-772,1110,89,0
-470,1224,-54,0
-260,1126,132,0
-346,1056,147,0
-437,1032,119,0
-486,917,204,0
-477,832,166,0
-467,690,84,0
-462,600,92,0
-481,569,120,0
-497,524,147,0
-539,510,177,0
-601,531,191,0
-685,639,172,0
-723,790,157,0
-737,788,177,0
-870,883,156,0
-933,999,85,0
-782,969,19,0
-702,805,-11,0
-725,800,-51,0
-693,739,-40,0
-629,647,-16,0
-589,610,13,0
-557,540,53,0
-562,506,79,0
-588,496,92,0
-610,508,135,0
-654,589,153,0
-764,730,138,0
-761,791,165,0
-780,789,206,0
-823,860,146,0
-733,1141,59,0
-468,1108,136,0
-344,996,117,0
-344,977,63,0
-363,864,71,0
-410,781,103,0
-429,701,127,0
-437,613,123,0
-463,538,103,0
-483,603,158,0
-502,635,204,0
-491,602,191,0
-510,688,225,0
-549,871,235,0
-507,978,235,0
-531,970,227,0
-604,1067,211,0
-615,1163,185,0
-488,1076,149,0
-478,960,81,0
-466,1007,76,0
-420,981,85,0
-384,825,50,0
-373,728,64,0
-372,668,97,0
-384,620,92,0
-403,637,82,0
-409,708,109,0
-453,804,111,0
-513,926,96,0
-482,1031,126,0
-483,1053,196,0
-522,1081,188,0
-437,1275,171,0
-219,1357,253,0
-141,1051,212,0
-165,950,158,0
-124,843,144,0
-150,801,116,0
-191,800,149,0
-219,722,174,0
-264,639,186,0
-293,655,225,0
-319,657,243,0
-372,684,221,0
-447,796,221,0
-490,1002,241,0
-483,1096,229,0
-538,1156,198,0
-567,1233,182,0
-505,1161,148,0
-456,946,83,0
-490,903,46,0
-473,914,28,0
-410,856,12,0
-376,773,31,0
-368,679,75,0
-398,610,95,0
-441,599,111,0
-487,650,131,0
-524,729,157,0
-571,804,157,0
-601,880,144,0
-579,938,170,0
-573,996,193,0
-562,1141,185,0
-408,1279,186,0
-225,1157,219,0
-156,927,191,0
-175,751,127,0
-216,734,92,0
-291,772,91,0
-343,803,138,0
-380,751,193,0
-416,672,213,0
-443,686,232,0
-451,694,260,0
-488,768,256,0
-492,902,257,0
-509,979,248,0
-514,971,228,0
-564,995,207,0
-631,1086,171,0
-587,1010,131,0
-552,779,70,0
-592,718,25,0
-627,794,0,0
-576,887,-10,0
-514,866,-17,0
-489,734,0,0
-509,651,25,0
-540,603,41,0
-569,622,47,0
-582,682,63,0
-599,755,74,0
-628,826,85,0
-650,870,88,0
-648,896,116,0
-643,945,147,0
-594,1008,156,0
-496,1141,191,0
-350,1035,235,0
-291,822,181,0
-298,729,120,0
-325,732,87,0
-344,798,101,0
-383,873,120,0
-408,865,158,0
-424,859,222,0
-437,851,263,0
-411,818,275,0
-384,784,272,0
-370,767,258,0
-363,764,241,0
-378,780,223,0
-407,883,211,0
-409,933,205,0
-491,1013,168,0
-562,1150,140,0
-578,1153,108,0
-565,994,129,0
-586,852,140,0
-616,827,83,0
-584,841,36,0
-528,789,55,0
-467,676,103,0
-491,578,118,0
-541,573,102,0
-579,586,105,0
-570,608,127,0
-591,618,144,0
-649,675,110,0
-717,785,82,0
-730,958,159,0
-736,937,304,0
-852,876,171,0
-860,1073,131,0
-522,1068,249,0
-472,819,161,0
-491,658,81,0
-472,612,87,0
-517,650,79,0
-538,681,141,0
-505,606,225,0
-512,546,247,0
-573,526,254,0
-635,499,272,0
-762,710,252,0
-803,954,247,0
-749,937,245,0
-784,931,202,0
-818,940,182,0
-780,804,115,0
-732,608,102,0
-810,645,48,0
-796,645,-33,0
-677,631,49,0
-610,567,142,0
-596,527,192,0
-589,462,212,0
-597,438,186,0
-631,478,152,0
-727,647,124,0
-788,773,119,0
-761,780,200,0
-830,727,248,0
-894,863,192,0
-741,1092,223,0
-460,1055,321,0
-339,801,329,0
-327,769,252,0
-367,746,245,0
-472,778,267,0
-540,684,283,0
-531,599,336,0
-541,524,353,0
-559,528,335,0
-575,509,332,0
-617,540,316,0
-688,717,312,0
-703,831,311,0
-744,785,295,0
-887,871,316,0
-997,897,229,0
-902,858,96,0
-813,679,56,0
-799,706,-29,0
-678,697,6,0
-584,624,82,0
-587,546,155,0
-597,498,191,0
-615,450,189,0
-630,447,182,0
-648,463,198,0
-679,473,219,0
-786,545,223,0
-824,635,258,0
-865,720,319,0
-880,818,356,0
-876,906,323,0
-762,995,268,0
-555,987,284,0
-424,808,251,0
-462,807,183,0
-472,729,209,0
-527,692,257,0
-576,648,260,0
-558,567,263,0
-540,527,272,0
-549,522,276,0
-573,504,293,0
-603,514,317,0
-675,578,318,0
-758,758,300,0
-735,817,305,0
-804,780,279,0
-958,892,262,0
-985,927,164,0
-796,852,62,0
-729,703,23,0
-713,679,11,0
-640,654,25,0
-558,598,74,0
-528,601,141,0
-516,533,208,0
-524,504,209,0
-547,462,175,0
-556,559,193,0
-582,642,183,0
-621,701,144,0
-578,783,182,0
-561,962,248,0
-534,1031,253,0
-272,1190,289,0
-157,1167,236,0
-137,1174,257,0
-113,1038,246,0
-109,912,229,0
-146,768,236,0
-174,768,288,0
-205,722,329,0
-223,650,319,0
-239,665,324,0
-259,678,333,0
-294,714,302,0
-323,893,312,0
-294,1087,325,0
-321,1204,288,0
-327,1319,289,0
-306,1342,265,0
-244,1115,215,0
-278,963,156,0
-260,1013,167,0
-211,943,128,0
-190,801,96,0
-209,720,121,0
-236,674,125,0
-251,648,123,0
-263,699,149,0
-260,784,186,0
-289,843,219,0
-332,989,229,0
-306,1126,275,0
-254,1201,311,0
-249,1246,275,0
-139,1358,283,0
32,1185,303,0
-18,978,223,0
-6,907,139,0
-16,859,145,0
-51,820,180,0
-106,768,218,0
-150,674,242,0
-197,622,243,0
-237,655,261,0
-254,723,283,0
-290,789,282,0
-303,988,298,0
-250,1102,305,0
-293,1097,281,0
-349,1161,256,0
-369,1240,244,0
-309,1103,200,0
-331,1077,152,0
-253,1048,142,0
-198,866,124,0
-207,717,118,0
-226,667,127,0
-248,637,134,0
-271,678,150,0
-311,739,160,0
-345,805,179,0
-397,895,188,0
-450,1031,194,0
-395,1120,224,0
-357,1132,210,0
-328,1211,211,0
-214,1363,244,0
-60,1215,262,0
-61,890,181,0
-101,809,103,0
-108,827,74,0
-139,794,52,0
-172,787,59,0
-209,754,117,0
-249,714,146,0
-273,704,156,0
-273,757,194,0
-284,797,221,0
-322,852,227,0
-356,978,232,0
-320,1138,244,0
-289,1093,264,0
-341,994,232,0
-437,1101,198,0
-386,1156,198,0
-340,970,171,0
-374,956,147,0
-352,1002,122,0
-308,933,91,0
-283,869,77,0
-275,790,69,0
-285,673,53,0
-294,684,68,0
-308,723,81,0
-299,729,95,0
-317,776,106,0
-397,904,136,0
-406,1051,204,0
-451,1155,210,0
-526,1459,213,0
-343,1572,370,0
-103,1262,367,0
-97,931,160,0
-83,837,101,0
-67,724,114,0
-110,686,98,0
-143,769,136,0
-176,759,182,0
-240,727,206,0
-285,715,233,0
-328,697,278,0
-414,687,304,0
-486,806,298,0
-501,1051,282,0
-497,1186,261,0
-528,1268,201,0
-458,1183,151,0
-470,964,96,0
-495,979,54,0
-456,992,64,0
-364,832,81,0
-348,741,102,0
-336,626,122,0
-351,547,139,0
-395,550,130,0
-438,615,122,0
-457,756,127,0
-485,897,149,0
-517,1006,167,0
-528,1080,224,0
-553,1049,252,0
-570,1104,175,0
-508,1307,170,0
-342,1290,224,0
-228,969,303,0
-274,923,213,0
-279,866,143,0
-312,801,145,0
-356,774,161,0
-347,785,220,0
-363,674,240,0
-388,566,240,0
-450,512,303,0
-517,546,368,0
-617,634,363,0
-662,670,387,0
-660,762,384,0
-732,818,358,0
-835,857,330,0
-826,846,275,0
-715,803,244,0
-707,733,149,0
-684,682,125,0
-651,638,117,0
-623,599,136,0
-615,557,186,0
-621,509,215,0
-636,460,224,0
-673,439,258,0
-721,508,260,0
-736,554,266,0
-738,706,305,0
-853,723,323,0
-1000,800,283,0
-780,1023,273,0
-561,891,347,0
-521,785,327,0
-540,719,282,0
-665,620,276,0
-702,586,264,0
-637,545,312,0
-620,495,308,0
-578,447,291,0
-635,465,333,0
-672,539,354,0
-715,553,361,0
-772,645,305,0
-786,771,296,0
-830,782,276,0
-933,765,168,0
-846,614,122,0
-772,550,154,0
-796,580,159,0
-802,567,64,0
-763,537,41,0
-720,564,90,0
-725,527,140,0
-742,523,199,0
-752,526,240,0
-728,511,256,0
-733,553,253,0
-784,668,208,0
-755,763,211,0
-729,696,244,0
-889,588,208,0
-902,840,208,0
-669,1156,369,0
-541,812,417,0
-568,677,299,0
-630,571,231,0
-643,573,263,0
-589,603,300,0
-551,459,282,0
-560,479,292,0
-581,475,302,0
-604,488,313,0
-678,528,326,0
-735,620,323,0
-737,724,321,0
-754,759,303,0
-880,772,267,0
-1043,849,227,0
-902,828,93,0
-746,856,70,0
-737,717,6,0
-688,669,-19,0
-710,712,24,0
-687,632,62,0
-655,546,128,0
-646,466,165,0
-652,415,174,0
-654,454,210,0
-694,450,193,0
-781,530,144,0
-842,662,150,0
-876,720,226,0
-978,718,282,0
-998,915,226,0
-735,1131,233,0
-458,941,303,0
-414,680,260,0
-530,775,166,0
-579,634,190,0
-580,565,220,0
-554,515,232,0
-555,394,210,0
-596,495,243,0
-633,492,256,0
-679,488,281,0
-773,651,269,0
-819,828,263,0
-859,791,285,0
-1072,778,208,0
-1215,827,17,0
-923,854,-45,0
-770,745,-19,0
-691,721,13,0
-631,613,71,0
-621,515,115,0
-610,476,163,0
-604,444,176,0
-620,409,161,0
-646,397,178,0
-719,432,184,0
-860,557,148,0
-895,721,220,0
-890,615,305,0
-954,645,301,0
-953,933,276,0
-762,1029,283,0
-538,867,268,0
-526,749,208,0
-519,749,197,0
-524,651,213,0
-549,564,250,0
-542,542,267,0
-507,487,291,0
-529,460,292,0
-555,469,312,0
-584,506,317,0
-708,601,287,0
-815,787,253,0
-825,868,250,0
-880,843,221,0
-1034,922,173,0
-942,954,89,0
-747,743,41,0
-743,753,8,0
-695,729,-22,0
-621,669,22,0
-620,607,43,0
-608,533,94,0
-599,475,140,0
-610,441,145,0
-630,448,153,0
-680,521,167,0
-798,711,173,0
-833,848,219,0
-949,834,285,0
-988,922,264,0
-821,1040,309,0
-396,867,296,0
-403,746,194,0
-450,663,186,0
-527,603,199,0
-545,549,188,0
-539,500,208,0
-552,463,209,0
-565,488,223,0
-582,512,270,0
-615,566,324,0
-710,748,346,0
-714,875,342,0
-772,880,322,0
-915,943,251,0
-912,931,157,0
-712,767,92,0
-688,698,19,0
-701,705,-20,0
-642,752,-27,0
-557,663,-27,0
-538,521,11,0
-541,491,35,0
-560,482,47,0
-607,482,38,0
-680,536,33,0
-742,599,-5,0
-864,884,4,0
-737,944,176,0
-652,1067,230,0
-591,1274,107,0
-278,1404,226,0
-53,1264,276,0
-186,1099,145,0
-221,978,177,0
-245,907,290,0
-287,788,278,0
-310,678,221,0
-345,590,184,0
-400,559,193,0
-457,547,227,0
-514,522,266,0
-607,509,249,0
-718,582,191,0
-701,971,139,0
-794,1121,194,0
-838,1260,166,0
-750,1321,129,0
-555,998,154,0
-526,827,123,0
-499,774,74,0
-446,659,37,0
-403,575,41,0
-426,537,102,0
-481,582,144,0
-572,583,135,0
-643,610,159,0
-720,679,214,0
-785,747,226,0
-793,837,222,0
-709,880,261,0
-671,946,237,0
-648,1129,199,0
-396,1254,307,0
-340,952,337,0
-419,899,247,0
-387,865,260,0
-425,769,266,0
-490,709,262,0
-511,644,286,0
-531,561,287,0
-522,450,290,0
-529,399,304,0
-549,438,324,0
-599,482,337,0
-710,617,348,0
-765,720,367,0
-849,677,396,0
-991,686,361,0
-1051,784,247,0
-933,768,148,0
-865,635,95,0
-853,648,55,0
-742,580,61,0
-652,528,128,0
-611,459,225,0
-634,363,223,0
-664,332,141,0
-681,320,99,0
-684,385,133,0
-737,421,145,0
-848,578,126,0
-871,787,223,0
-930,779,348,0
-1023,971,295,0
-861,1179,330,0
-614,1061,414,0
-471,864,330,0
-444,814,239,0
-414,737,211,0
-447,666,214,0
-521,597,221,0
-556,546,267,0
-582,477,290,0
-593,445,301,0
-572,447,316,0
-579,469,310,0
-631,571,284,0
-694,783,307,0
-703,828,359,0
-848,720,356,0
-987,836,241,0
-1009,912,170,0
-838,920,135,0
-752,630,50,0
-738,621,65,0
-680,614,52,0
-641,593,76,0
-643,539,142,0
-640,485,180,0
-619,399,162,0
-626,405,143,0
-635,447,167,0
-691,472,155,0
-822,644,148,0
-858,936,274,0
-893,872,404,0
-969,954,342,0
-830,1201,260,0
-501,1070,349,0
-355,788,369,0
-389,798,215,0
-406,787,200,0
-438,713,234,0
-448,625,244,0
-435,549,255,0
-461,485,252,0
-513,486,247,0
-562,513,269,0
-632,561,281,0
-723,683,270,0
-775,846,267,0
-819,814,298,0
-1048,919,208,0
-1013,1214,131,0
-757,1121,150,0
-637,947,78,0
-554,805,50,0
-538,594,114,0
-518,493,152,0
-490,402,161,0
-480,370,142,0
-485,381,131,0
-503,444,146,0
-537,513,171,0
-687,606,147,0
-768,833,182,0
-765,920,324,0
-796,1081,264,0
-688,1389,222,0
-402,1339,293,0
-245,1107,297,0
-268,955,180,0
-327,815,136,0
-373,645,183,0
-410,597,213,0
-447,567,242,0
-472,552,254,0
-481,524,255,0
-498,504,237,0
-524,593,222,0
-600,857,226,0
-582,1020,266,0
-694,1010,257,0
-768,1183,169,0
-710,1136,130,0
-631,921,118,0
-669,948,59,0
-591,956,11,0
-473,795,17,0
-413,626,35,0
-404,501,39,0
-413,450,31,0
-434,460,26,0
-474,566,47,0
-523,671,109,0
-647,877,128,0
-659,1108,193,0
-608,1125,287,0
-617,1224,261,0
-490,1463,282,0
-181,1253,322,0
-174,1025,226,0
-200,935,157,0
-222,779,176,0
-278,757,200,0
-299,717,222,0
-310,596,243,0
-346,537,256,0
-389,546,275,0
-420,549,272,0
-527,655,284,0
-566,906,310,0
-530,916,321,0
-637,950,278,0
-683,1068,241,0
-625,1119,222,0
-510,985,209,0
-569,915,125,0
-548,941,78,0
-480,862,43,0
-435,766,38,0
-445,646,59,0
-477,565,55,0
-517,500,38,0
-587,505,23,0
-629,573,38,0
-643,671,56,0
-692,868,58,0
-660,1027,133,0
-603,896,201,0
-693,1091,147,0
-587,1335,206,0
-315,1204,307,0
-266,1025,304,0
-327,964,255,0
-286,821,216,0
-294,756,224,0
-297,684,219,0
-307,559,198,0
-330,511,220,0
-369,542,233,0
-404,550,246,0
-457,628,257,0
-560,853,286,0
-576,1042,315,0
-610,1037,318,0
-680,1162,272,0
-669,1237,225,0
-509,1059,180,0
-462,830,126,0
-489,790,61,0
-468,770,29,0
-434,708,-1,0
-432,659,27,0
-474,628,73,0
-513,599,70,0
-560,595,81,0
-582,644,111,0
-610,732,113,0
-674,1002,111,0
-594,1196,221,0
-512,1035,292,0
-566,1124,223,0
-441,1256,329,0
-286,1035,391,0
-349,943,308,0
-376,871,242,0
-387,786,242,0
-373,701,234,0
-339,574,248,0
-353,463,222,0
-403,432,173,0
-448,469,181,0
-522,544,186,0
-601,783,204,0
-567,1055,268,0
-629,950,314,0
-745,1119,257,0
-730,1295,201,0
-523,1140,203,0
-475,980,154,0
-478,887,81,0
-454,792,70,0
-422,688,76,0
-427,592,73,0
-454,532,62,0
-504,551,78,0
-527,548,131,0
-544,578,153,0
-625,666,137,0
-718,902,146,0
-651,1085,243,0
-637,1150,303,0
-613,1326,285,0
-396,1338,295,0
-211,1059,310,0
-242,930,227,0
-255,798,174,0
-266,670,191,0
-336,559,197,0
-376,513,195,0
-420,562,226,0
-464,586,254,0
-508,635,251,0
-600,791,267,0
-636,1025,275,0
-651,970,259,0
-745,1004,246,0
-784,1227,210,0
-650,1229,196,0
-523,966,163,0
-494,924,114,0
-415,772,99,0
-360,582,92,0
-354,509,116,0
-380,471,132,0
-425,455,116,0
-489,482,106,0
-569,565,125,0
-660,702,164,0
-804,976,205,0
-727,1109,295,0
-730,1103,313,0
-707,1398,253,0
-452,1429,271,0
-216,1131,306,0
-203,944,245,0
-209,831,176,0
-228,720,181,0
-279,717,216,0
-331,652,250,0
-361,547,262,0
-417,514,267,0
-468,512,300,0
-497,535,312,0
-608,592,305,0
-666,846,334,0
-669,980,374,0
-777,966,360,0
-852,1098,321,0
-706,1082,302,0
-633,802,195,0
-644,724,134,0
-565,688,136,0
-502,621,158,0
-492,566,193,0
-531,559,205,0
-550,496,232,0
-582,438,227,0
-606,469,250,0
-661,528,265,0
-767,658,255,0
-765,861,320,0
-787,843,356,0
-839,925,342,0
-719,1223,317,0
-485,1094,342,0
-312,919,300,0
-319,901,285,0
-297,818,247,0
-339,771,268,0
-387,692,276,0
-389,637,311,0
-404,572,317,0
-419,520,311,0
-420,551,329,0
-438,541,341,0
-508,621,340,0
-613,788,342,0
-624,886,350,0
-731,824,334,0
-929,1038,263,0
-876,1279,121,0
-661,1043,122,0
-607,788,97,0
-599,892,36,0
-522,789,27,0
-478,599,67,0
-488,566,133,0
-496,508,162,0
-520,495,147,0
-547,505,130,0
-559,581,161,0
-607,622,180,0
-752,822,191,0
-750,1023,263,0
-728,936,387,0
-818,1016,305,0
-747,1371,272,0
-399,1195,321,0
-253,812,300,0
-287,852,208,0
-271,817,183,0
-314,684,201,0
-365,677,251,0
-385,602,290,0
-389,485,281,0
-397,464,265,0
-421,494,280,0
-502,583,290,0
-702,838,326,0
-749,1139,367,0
-785,975,404,0
-925,1078,308,0
-889,1168,253,0
-728,976,205,0
-622,699,86,0
-653,644,-7,0
-607,629,-42,0
-499,559,-11,0
-436,472,62,0
-435,414,97,0
-463,420,142,0
-518,467,164,0
-570,553,189,0
-701,765,203,0
-788,1120,280,0
-774,1083,392,0
-849,1083,372,0
-835,1276,342,0
-550,1159,388,0
-419,910,318,0
-410,802,172,0
-383,704,145,0
-354,592,160,0
-343,515,191,0
-340,464,205,0
-379,381,229,0
-438,427,272,0
-545,504,333,0
-679,730,380,0
-694,1094,432,0
-642,934,369,0
-737,916,247,0
-763,1066,191,0
-663,1062,153,0
-621,817,89,0
-648,885,42,0
-585,845,82,0
-505,672,102,0
-489,546,107,0
-492,582,165,0
-520,525,188,0
-545,526,141,0
-544,596,163,0
-544,648,170,0
-616,796,142,0
-645,1039,172,0
-573,1168,287,0
-539,1231,316,0
-427,1326,276,0
-198,1223,344,0
-224,936,258,0
-338,890,173,0
-358,853,160,0
-352,739,180,0
-356,667,208,0
-346,554,220,0
-359,484,226,0
-396,515,226,0
-404,572,230,0
-447,717,231,0
-527,975,240,0
-534,1006,255,0
-638,1079,224,0
-749,1170,121,0
-724,1260,84,0
-616,1024,117,0
-618,882,34,0
-592,750,13,0
-568,700,28,0
-564,662,3,0
-548,625,27,0
-567,619,70,0
-635,678,119,0
-740,706,200,0
-787,710,243,0
-712,723,178,0
-651,940,298,0
-506,941,328,0
-442,869,325,0
-400,990,298,0
-411,914,243,0
-351,1039,352,0
-186,914,295,0
-154,751,196,0
-213,832,217,0
-239,731,223,0
-288,733,226,0
-317,797,285,0
-352,666,236,0
-413,594,250,0
-465,726,334,0
-344,757,254,0
-366,803,202,0
-514,1014,285,0
-571,1046,297,0
-599,1035,184,0
-688,1123,174,0
-631,1143,203,0
-569,979,122,0
-510,880,112,0
-487,809,162,0
-451,701,218,0
-384,632,276,0
-312,589,281,0
-305,480,223,0
-336,484,194,0
-354,498,152,0
-456,561,118,0
-610,854,220,0
-639,1149,478,0
-580,1230,412,0
-527,1399,408,0
-464,1402,483,0
-397,1208,371,0
-404,1005,248,0
-403,872,239,0
-385,727,226,0
-354,564,223,0
-323,497,221,0
-307,441,202,0
-323,443,205,0
-394,496,222,0
-517,633,245,0
-480,791,328,0
-537,792,312,0
-558,828,217,0
-599,933,187,0
-680,1091,168,0
-628,1144,172,0
-603,951,185,0
-605,937,154,0
-591,817,140,0
-547,749,129,0
-533,680,94,0
-548,594,80,0
-554,614,108,0
-551,605,95,0
-592,618,81,0
-695,765,69,0
-713,1121,118,0
-523,1410,219,0
-398,1284,159,0
-311,1543,161,0
-114,1361,348,0
-140,848,260,0
-193,807,236,0
-191,734,234,0
-186,594,194,0
-216,521,162,0
-255,511,147,0
-311,477,151,0
-394,517,166,0
-480,594,185,0
-576,784,236,0
-590,996,285,0
-627,1163,304,0
-728,1240,252,0
-720,1436,218,0
-564,1277,217,0
-509,967,154,0
-489,893,70,0
-426,786,20,0
-339,643,-2,0
-308,570,0,0
-303,515,10,0
-306,485,0,0
-315,496,-2,0
-355,605,32,0
-493,829,75,0
-567,1162,153,0
-580,1231,285,0
-630,1356,289,0
-551,1581,304,0
-251,1398,351,0
-98,1053,291,0
-146,903,179,0
-141,797,107,0
-146,651,114,0
-192,586,141,0
-230,511,166,0
-270,434,195,0
-353,486,223,0
-438,599,247,0
-522,691,241,0
-643,984,228,0
-683,1293,241,0
-735,1359,206,0
-607,1346,178,0
-481,932,121,0
-505,875,97,0
-458,800,80,0
-393,634,64,0
-395,550,73,0
-421,508,121,0
-451,458,134,0
-504,436,130,0
-586,474,197,0
-620,498,240,0
-722,555,236,0
-789,738,260,0
-729,952,342,0
-696,1041,387,0
-660,1172,359,0
-503,1214,334,0
-384,1051,303,0
-427,986,249,0
-393,943,198,0
-392,776,187,0
-413,648,200,0
-395,553,222,0
-392,460,231,0
-420,417,225,0
-445,448,267,0
-486,504,315,0
-649,620,313,0
-745,887,326,0
-782,1013,338,0
-937,1076,323,0
-976,1186,245,0
-814,1131,162,0
-626,906,132,0
-639,746,47,0
-602,704,6,0
-515,597,17,0
-470,482,73,0
-468,432,134,0
-487,408,184,0
-510,415,207,0
-581,460,218,0
-628,514,248,0
-757,628,236,0
-858,901,230,0
-777,997,351,0
-803,902,378,0
-808,964,232,0
-657,1205,182,0
-416,1092,215,0
-381,895,169,0
-383,985,152,0
-390,904,202,0
-438,709,203,0
-434,598,235,0
-415,501,246,0
-436,424,229,0
-460,448,237,0
-520,489,262,0
-612,616,284,0
-738,883,294,0
-775,947,289,0
-901,1012,337,0
-1015,1223,288,0
-879,1134,201,0
-645,801,134,0
-593,537,74,0
-617,533,48,0
-575,557,32,0
-552,557,53,0
-540,552,108,0
-530,514,200,0
-557,464,249,0
-619,409,253,0
-677,451,259,0
-686,527,287,0
-723,598,282,0
-834,733,266,0
-809,853,288,0
-817,941,240,0
-798,1307,192,0
-522,1331,232,0
-346,1102,247,0
-399,1030,142,0
-343,942,132,0
-372,763,156,0
-429,646,158,0
-397,583,214,0
-393,480,227,0
-427,480,238,0
-477,513,289,0
-590,682,361,0
-661,854,407,0
-732,904,379,0
-839,902,301,0
-975,981,209,0
-929,997,105,0
-731,840,33,0
-714,702,42,0
-722,690,16,0
-652,589,36,0
-556,493,98,0
-500,482,195,0
-500,424,240,0
-543,351,225,0
-590,381,197,0
-632,455,217,0
-715,512,238,0
-865,689,218,0
-856,897,298,0
-884,887,339,0
-951,1066,265,0
-725,1247,349,0
-448,1031,381,0
-394,827,241,0
-403,880,178,0
-415,803,211,0
-501,710,211,0
-489,604,244,0
-473,511,251,0
-478,486,239,0
-491,435,241,0
-515,409,260,0
-600,474,269,0
-720,569,244,0
-802,753,232,0
-797,907,250,0
-913,1026,217,0
-964,1088,144,0
-854,1030,96,0
-725,800,57,0
-745,733,-4,0
-690,664,-56,0
-619,661,-29,0
-586,598,22,0
-547,514,68,0
-537,437,102,0
-529,420,106,0
-544,439,114,0
-599,505,83,0
-685,789,37,0
-678,1028,85,0
-650,917,215,0
-748,998,161,0
-746,1298,101,0
-497,1249,191,0
-332,1057,213,0
-365,975,163,0
-333,835,126,0
-332,658,133,0
-362,607,133,0
-371,621,177,0
-397,563,213,0
-432,563,220,0
-467,592,234,0
-509,633,228,0
-559,819,231,0
-574,1011,248,0
-564,960,293,0
-651,983,254,0
-678,1163,134,0
-547,1155,146,0
-427,953,155,0
-442,967,88,0
-411,953,40,0
-351,852,68,0
-341,746,126,0
-352,660,141,0
-365,597,147,0
-401,600,122,0
-448,677,117,0
-485,811,115,0
-528,1036,115,0
-472,1160,148,0
-433,1069,212,0
-477,1106,166,0
-460,1256,127,0
-279,1266,216,0
-148,1008,276,0
-161,789,237,0
-177,652,171,0
-221,649,152,0
-266,733,160,0
-289,725,184,0
-311,701,218,0
-348,690,258,0
-387,688,299,0
-424,709,317,0
-461,820,324,0
-455,929,318,0
-440,930,279,0
-519,855,257,0
-648,1046,181,0
-559,1565,99,0
-326,1266,149,0
-349,925,101,0
-345,937,73,0
-319,887,81,0
-307,736,87,0
-309,632,104,0
-340,611,142,0
-399,584,171,0
-442,577,189,0
-489,646,211,0
-523,748,220,0
-598,931,231,0
-556,1070,301,0
-554,1090,342,0
-587,1174,277,0
-405,1284,252,0
-245,1195,328,0
-144,1101,301,0
-179,901,166,0
-228,749,146,0
-265,639,183,0
-324,620,240,0
-379,602,284,0
-402,584,301,0
-396,618,350,0
-388,614,356,0
-466,698,330,0
-470,952,332,0
-442,980,316,0
-560,976,288,0
-660,1057,260,0
-605,1100,217,0
-549,1057,177,0
-505,1144,158,0
-335,1001,175,0
-282,636,182,0
-315,528,180,0
-373,524,180,0
-418,544,159,0
-441,600,178,0
-407,566,227,0
-417,543,209,0
-541,840,229,0
-616,1272,281,0
-663,1596,354,0
-570,1326,342,0
-736,1381,340,0
-405,1334,320,0
-202,970,219,0
-251,986,86,0
-142,1124,76,0
-60,1053,116,0
-172,812,141,0
-240,693,171,0
-322,670,272,0
-366,616,324,0
-364,525,307,0
-381,463,310,0
-431,479,328,0
-501,441,324,0
-578,462,315,0
-634,523,314,0
-718,724,332,0
-770,966,375,0
-745,977,361,0
-747,981,324,0
-688,983,284,0
-602,734,175,0
-637,709,109,0
-632,778,94,0
-566,796,71,0
-475,793,80,0
-439,743,132,0
-460,627,158,0
-489,597,202,0
-512,622,237,0
-518,663,288,0
-534,732,325,0
-574,787,332,0
-607,850,336,0
-621,944,358,0
-615,1070,358,0
-574,1266,361,0
-404,1179,358,0
-310,872,281,0
-345,765,247,0
-359,711,250,0
-382,702,263,0
-411,695,293,0
-429,641,324,0
-453,588,336,0
-452,575,349,0
-448,573,357,0
-461,547,351,0
-498,554,338,0
-571,825,358,0
-531,832,362,0
-640,811,326,0
-753,900,295,0
-761,1171,266,0
-598,1121,242,0
-593,1056,217,0
-532,1058,222,0
-445,910,232,0
-401,741,188,0
-384,671,195,0
-396,590,192,0
-400,538,188,0
-454,528,198,0
-499,557,248,0
-541,613,298,0
-636,697,314,0
-683,854,349,0
-734,1000,405,0
-681,1180,420,0
-426,1254,394,0
-188,1111,399,0
-217,837,288,0
-329,747,224,0
-483,724,301,0
-604,710,320,0
-680,679,345,0
-701,637,345,0
-678,572,289,0
-665,568,287,0
-632,612,307,0
-657,624,276,0
-757,780,270,0
-642,778,343,0
-684,788,364,0
-795,614,406,0
-835,580,349,0
-818,585,273,0
-866,589,211,0
-778,625,230,0
-658,614,296,0
-617,489,359,0
-610,394,385,0
-639,370,372,0
-656,318,350,0
-702,347,347,0
-730,390,353,0
-867,369,374,0
-935,382,424,0
-945,506,458,0
-946,566,507,0
-818,645,502,0
-668,738,445,0
-563,810,408,0
-523,780,402,0
-492,661,409,0
-549,534,390,0
-676,473,368,0
-711,466,359,0
-709,450,338,0
-704,389,323,0
-696,393,358,0
-701,385,382,0
-710,382,344,0
-841,525,257,0
-856,674,263,0
-939,764,276,0
-1133,790,274,0
-1094,899,236,0
-862,646,207,0
-903,606,75,0
-799,672,25,0
-626,692,72,0
-564,578,110,0
-568,505,174,0
-593,425,236,0
-641,408,229,0
-699,440,224,0
-741,480,258,0
-865,583,287,0
-903,609,280,0
-966,706,305,0
-1061,846,323,0
-866,1033,360,0
-551,1051,366,0
-454,784,298,0
-456,726,274,0
-511,672,290,0
-597,510,290,0
-674,477,292,0
-677,423,278,0
-670,381,242,0
-667,400,278,0
-691,432,333,0
-726,434,352,0
-830,522,303,0
-864,734,303,0
-832,763,335,0
-957,667,380,0
-1091,678,274,0
-935,637,124,0
-907,570,31,0
-815,626,24,0
-652,719,149,0
-579,597,231,0
-577,507,291,0
-568,479,316,0
-599,476,285,0
-631,471,297,0
-655,483,319,0
-790,533,294,0
-873,577,320,0
-999,691,323,0
-1114,796,371,0
-806,1077,418,0
-498,922,382,0
-341,667,304,0
-364,673,273,0
-511,612,281,0
-659,583,314,0
-726,607,304,0
-680,511,272,0
-667,457,253,0
-656,471,258,0
-630,432,335,0
-718,493,326,0
-876,647,263,0
-832,738,278,0
-883,791,268,0
-1063,810,236,0
-947,836,190,0
-764,569,104,0
-762,552,9,0
-671,678,38,0
-548,779,63,0
-484,652,90,0
-486,564,153,0
-514,519,209,0
-600,488,180,0
-675,557,140,0
-673,657,148,0
-708,666,122,0
-777,751,108,0
-776,923,138,0
-797,1135,208,0
-737,1208,224,0
-473,1184,245,0
-297,1099,265,0
-324,971,226,0
-284,798,184,0
-313,619,152,0
-380,522,156,0
-430,569,203,0
-479,557,226,0
-514,574,239,0
-521,610,278,0
-541,631,286,0
-598,681,260,0
-657,966,288,0
-571,1125,322,0
-631,1005,333,0
-697,942,301,0
-701,993,204,0
-687,1011,154,0
-648,1108,95,0
-460,1041,110,0
-321,786,151,0
-276,634,166,0
-292,513,174,0
-319,497,141,0
-347,578,152,0
-372,621,177,0
-463,711,155,0
-560,864,168,0
-588,1007,237,0
-656,1335,303,0
-483,1534,398,0
-187,1313,461,0
-184,998,355,0
-158,865,210,0
-169,736,183,0
-216,665,194,0
-283,618,221,0
-340,514,215,0
-409,498,213,0
-470,563,252,0
-493,617,281,0
-591,742,262,0
-618,1164,306,0
-551,1242,316,0
-588,1206,256,0
-597,1229,215,0
-500,995,195,0
-544,904,128,0
-484,1051,116,0
-355,921,116,0
-284,700,133,0
-268,593,162,0
-282,534,164,0
-324,501,153,0
-392,567,170,0
-453,677,220,0
-535,731,238,0
-638,859,249,0
-658,1001,265,0
-630,1242,285,0
-524,1433,297,0
-202,1331,336,0
-69,1035,306,0
-91,935,178,0
-78,840,106,0
-149,675,160,0
-242,616,213,0
-307,610,231,0
-387,577,236,0
-434,644,248,0
-449,729,276,0
-471,715,271,0
-557,824,244,0
-560,1157,264,0
-482,1207,249,0
-538,1184,217,0
-556,1200,203,0
-455,960,184,0
-505,907,123,0
-456,1062,91,0
-343,994,86,0
-303,759,122,0
-290,663,157,0
-282,561,160,0
-301,500,153,0
-337,554,171,0
-370,631,199,0
-462,749,201,0
-541,920,216,0
-556,1164,279,0
-586,1359,330,0
-447,1474,388,0
-148,1359,407,0
-78,1056,297,0
-77,870,157,0
-117,752,149,0
-159,664,173,0
-221,564,195,0
-278,518,221,0
-341,538,248,0
-391,594,282,0
-429,617,296,0
-505,712,285,0
-603,973,304,0
-536,1313,330,0
-510,1311,290,0
-528,1354,261,0
-435,1166,240,0
-410,810,165,0
-448,849,140,0
-382,931,126,0
-316,811,79,0
-300,698,104,0
-310,675,122,0
-343,606,129,0
-400,631,157,0
-461,715,179,0
-495,738,189,0
-601,827,205,0
-589,976,263,0
-561,1034,301,0
-529,1145,276,0
-439,1293,278,0
-288,1167,283,0
-198,974,250,0
-172,887,193,0
-173,824,123,0
-224,720,126,0
-273,692,172,0
-318,658,217,0
-367,595,224,0
-415,638,259,0
-447,711,307,0
-477,728,322,0
-523,826,310,0
-538,994,305,0
-475,1127,302,0
-509,1093,294,0
-566,1105,253,0
-496,1055,219,0
-477,898,175,0
-478,910,111,0
-420,957,89,0
-349,909,94,0
-300,678,147,0
-288,627,158,0
-296,622,167,0
-312,670,172,0
-378,753,178,0
-474,882,178,0
-498,1026,233,0
-541,1156,333,0
-549,1463,366,0
-315,1438,453,0
-197,1095,447,0
-147,901,327,0
-144,722,211,0
-196,584,166,0
-265,557,180,0
-323,544,195,0
-404,509,202,0
-458,600,245,0
-481,689,333,0
-500,709,390,0
-595,795,380,0
-623,1025,394,0
-477,1066,373,0
-563,949,330,0
-657,939,269,0
-616,942,212,0
-563,814,185,0
-594,865,154,0
-520,1183,159,0
-358,1076,149,0
-270,834,165,0
-272,713,194,0
-297,561,205,0
-364,470,189,0
-410,511,218,0
-462,573,259,0
-548,676,244,0
-617,846,260,0
-603,1038,294,0
-602,1239,339,0
-414,1345,343,0
-114,1172,374,0
-97,920,310,0
-102,975,183,0
-118,848,155,0
-233,728,237,0
-311,746,284,0
-348,689,307,0
-377,584,285,0
-399,625,293,0
-419,637,297,0
-477,656,258,0
-539,884,273,0
-556,1070,290,0
-592,1395,277,0
-510,1565,251,0
-388,1142,225,0
-452,947,142,0
-472,1010,111,0
-379,932,73,0
-318,783,80,0
-313,673,133,0
-316,593,132,0
-330,527,127,0
-339,537,156,0
-353,603,177,0
-403,686,196,0
-465,810,233,0
-493,1023,335,0
-537,1219,431,0
-372,1358,468,0
-99,1266,472,0
-154,1117,431,0
-167,1043,262,0
-244,757,135,0
-328,634,139,0
-393,614,182,0
-423,569,186,0
-461,581,185,0
-461,619,237,0
-507,645,246,0
-617,857,266,0
-585,1178,312,0
-605,1140,278,0
-728,1059,238,0
-643,964,196,0
-656,777,157,0
-695,837,96,0
-594,926,103,0
-517,886,160,0
-512,724,176,0
-494,564,197,0
-495,521,258,0
-504,486,270,0
-509,448,256,0
-612,554,271,0
-645,662,333,0
-670,761,354,0
-771,880,432,0
-652,1143,571,0
-411,1159,574,0
-439,891,527,0
-443,706,453,0
-524,653,402,0
-552,578,411,0
-529,491,402,0
-546,400,375,0
-553,388,373,0
-563,384,386,0
-600,384,413,0
-691,465,424,0
-774,670,474,0
-685,681,483,0
-798,647,472,0
-1020,680,377,0
-973,757,293,0
-801,652,233,0
-867,696,157,0
-734,766,144,0
-574,719,211,0
-547,585,227,0
-557,425,252,0
-590,461,266,0
-645,456,208,0
-670,497,208,0
-700,534,242,0
-781,566,260,0
-803,658,298,0
-810,788,307,0
-751,995,331,0
-606,1141,363,0
-496,1130,346,0
-418,960,295,0
-448,940,245,0
-379,828,234,0
-407,684,234,0
-473,585,250,0
-480,538,294,0
-508,502,303,0
-542,521,314,0
-549,534,361,0
-579,525,378,0
-710,625,338,0
-801,817,290,0
-827,894,257,0
-902,854,278,0
-1015,828,218,0
-849,809,146,0
-813,756,109,0
-714,797,88,0
-536,803,121,0
-467,624,145,0
-504,499,164,0
-518,473,190,0
-569,462,172,0
-627,479,170,0
-644,566,231,0
-803,690,252,0
-806,791,300,0
-862,848,338,0
-873,992,307,0
-654,1107,290,0
-416,1017,287,0
-392,936,247,0
-392,902,228,0
-386,776,272,0
-436,613,304,0
-459,557,316,0
-462,514,315,0
-464,526,306,0
-511,549,345,0
-518,591,403,0
-643,632,385,0
-724,818,343,0
-652,859,322,0
-803,821,246,0
-940,979,221,0
-830,972,185,0
-792,839,92,0
-701,835,40,0
-510,776,102,0
-409,617,145,0
-438,530,173,0
-480,551,185,0
-503,577,171,0
-547,609,178,0
-594,662,213,0
-660,702,244,0
-751,789,253,0
-757,817,264,0
-806,887,252,0
-730,1033,210,0
-498,1163,253,0
-294,993,332,0
-330,926,326,0
-302,908,286,0
-333,790,289,0
-396,664,298,0
-418,584,315,0
-427,533,292,0
-432,569,260,0
-416,628,285,0
-423,601,315,0
-496,679,304,0
-562,867,279,0
-593,1016,233,0
-711,1132,189,0
-751,1262,172,0
-599,1094,107,0
-617,1016,24,0
-526,1001,14,0
-462,791,70,0
-446,610,137,0
-449,529,158,0
-456,505,139,0
-475,569,121,0
-467,635,156,0
-530,716,161,0
-616,876,162,0
-604,905,220,0
-714,903,251,0
-809,1057,204,0
-668,1199,188,0
-349,1073,279,0
-313,910,316,0
-245,833,228,0
-281,841,185,0
-350,713,233,0
-380,606,246,0
-405,565,243,0
-417,607,251,0
-430,638,277,0
-466,650,307,0
-560,735,289,0
-588,917,265,0
-588,1021,227,0
-707,1119,182,0
-759,1207,172,0
-616,1037,113,0
-595,886,30,0
-538,874,-10,0
-478,774,7,0
-476,679,57,0
-486,607,94,0
-502,576,108,0
-500,601,131,0
-487,592,160,0
-514,590,187,0
-613,669,187,0
-699,815,186,0
-742,904,201,0
-792,1001,228,0
-741,1009,206,0
-555,995,167,0
-403,952,203,0
-360,1018,195,0
-353,949,211,0
-414,750,209,0
-443,611,235,0
-447,574,263,0
-455,559,245,0
-442,562,241,0
-428,601,255,0
-481,610,269,0
-644,812,242,0
-675,1028,246,0
-769,988,230,0
-860,1012,209,0
-860,1082,163,0
-723,866,47,0
-734,843,-50,0
-618,846,-33,0
-503,692,30,0
-482,557,79,0
-478,489,121,0
-487,470,142,0
-496,504,158,0
-502,612,204,0
-608,734,229,0
-649,861,255,0
-699,890,299,0
-787,1054,327,0
-666,1206,315,0
-406,1028,277,0
-376,924,236,0
-373,878,154,0
-399,761,139,0
-455,633,181,0
-518,583,226,0
-539,552,260,0
-528,587,266,0
-515,597,295,0
-578,627,275,0
-713,827,230,0
-710,1010,196,0
-754,909,176,0
-939,1022,124,0
-847,965,52,0
-815,1011,3,0
-539,969,73,0
-374,619,152,0
-331,386,154,0
-358,440,208,0
-421,604,271,0
-484,689,228,0
-471,692,249,0
-404,737,297,0
-425,805,305,0
-354,940,315,0
-325,1044,293,0
-340,1223,279,0
-262,1364,248,0
-133,1323,214,0
-140,1162,176,0
-168,1119,95,0
-155,996,65,0
-199,827,101,0
-278,698,153,0
-358,639,183,0
-401,580,189,0
-430,576,182,0
-443,601,186,0
-507,641,174,0
-569,862,199,0
-592,995,193,0
-674,1174,153,0
-677,1313,54,0
-562,1031,-21,0
-579,1002,-83,0
-493,1060,-74,0
-388,886,-31,0
-356,717,43,0
-359,677,72,0
-350,745,61,0
-387,781,50,0
-416,764,13,0
-413,798,22,0
-457,828,12,0
-420,829,2,0
-414,786,28,0
-534,895,7,0
-538,1140,-52,0
-375,1266,40,0
-303,1145,142,0
-285,958,167,0
-319,797,167,0
-375,694,132,0
-420,738,143,0
-435,793,150,0
-429,830,176,0
-404,897,229,0
-349,946,300,0
-307,879,334,0
-296,834,321,0
-287,870,287,0
-280,889,253,0
-258,905,272,0
-304,799,298,0
-396,718,315,0
-504,763,387,0
-559,750,394,0
-615,724,318,0
-615,799,260,0
-596,875,218,0
-529,912,176,0
-464,892,196,0
-425,795,269,0
-467,736,232,0
-542,833,163,0
-556,1003,150,0
-535,1010,149,0
-498,865,185,0
-472,723,252,0
-481,670,236,0
-507,713,190,0
-562,783,169,0
-619,927,168,0
-518,940,274,0
-408,758,416,0
-441,666,324,0
-520,731,258,0
-548,860,186,0
-532,845,105,0
-530,823,142,0
-533,852,215,0
-497,851,241,0
-450,851,239,0
-450,857,247,0
-467,863,237,0
-470,859,206,0
-462,856,195,0
-454,847,190,0
-456,837,192,0
-456,832,201,0
-464,833,212,0
-473,850,220,0
-477,853,221,0
-477,849,217,0
-482,838,209,0
-487,829,197,0
-489,827,194,0
-499,820,189,0
-505,816,187,0
-507,820,188,0
-505,823,191,0
-508,825,199,0
-509,818,196,0
-515,812,192,0
-520,819,190,0
-528,838,197,0
-520,848,199,0
-514,842,198,0
-502,836,195,0
-492,825,192,0
-481,821,194,0
-477,834,198,0
-462,842,195,0
-467,833,182,0
-473,846,186,0
-480,850,183,0
-483,841,176,0
-489,839,174,0
-494,847,174,0
-498,838,170,0
-500,840,167,0
-492,845,167,0
-492,837,163,0
-490,841,171,0
-490,828,169,0
-494,850,170,0
-495,853,170,0
-495,849,169,0
-489,847,178,0
-485,828,176,0
-484,831,178,0
-486,825,171,0
-495,835,175,0
-508,834,180,0
-514,835,189,0
-510,818,186,0
-542,815,192,0
-540,819,213,0
-554,738,190,0
-605,717,167,0
-628,695,182,0
-668,781,157,0
-676,814,150,0
-644,813,135,0
-600,831,127,0
-570,852,108,0
-574,848,119,0
-573,896,114,0
-607,893,143,0
-602,886,152,0
-617,782,183,0
-598,775,182,0
-588,824,190,0
-533,840,175,0
-485,801,216,0
-491,709,251,0
-516,706,220,0
-471,653,246,0
-489,596,231,0
-582,491,222,0
-652,512,217,0
-600,628,231,0
-541,686,265,0
-513,875,286,0
-420,781,349,0
-329,893,290,0
-279,937,282,0
-225,973,310,0
-164,966,280,0
-140,989,309,0
-113,981,296,0
-75,1014,322,0
-40,1034,333,0
-66,987,321,0
-91,1017,298,0
-89,1017,331,0
-127,982,341,0
-130,884,303,0
-125,878,263,0
-53,928,245,0
-15,974,229,0
-14,952,226,0
-21,1010,278,0
-81,989,307,0
-105,969,313,0
-111,970,345,0
-99,932,381,0
-129,909,312,0
-194,958,266,0
-211,948,263,0
-164,955,314,0
-200,964,331,0
-185,942,398,0
-166,890,439,0
-133,833,443,0
-114,817,488,0
-92,825,500,0
-13,819,513,0
53,814,555,0
249,904,482,0
466,878,334,0
404,912,288,0
99,1014,308,0
-263,993,307,0
-411,1054,209,0
-410,1044,298,0
-365,1010,451,0
-266,1034,570,0
-128,803,658,0
-98,834,609,0
-42,738,634,0
-55,710,652,0
-106,725,629,0
-111,498,750,0
-161,445,721,0
-124,419,942,0
-132,236,905,0
-49,134,908,0
-56,17,1008,0
-113,-106,945,0
-142,-30,979,0
-177,-67,981,0
-163,106,945,0
-129,334,981,0
-172,290,907,0
-185,350,894,0
-191,335,841,0
-171,631,876,0
-147,500,833,0
-132,436,790,0
-168,590,775,0
-175,533,701,0
-191,668,686,0
-124,616,679,0
-151,883,561,0
-95,972,575,0
-130,1008,475,0
-162,904,448,0
-169,820,416,0
-148,862,436,0
-109,995,460,0
-16,1068,547,0
65,843,613,0
85,859,569,0
25,874,473,0
-21,733,369,0
-56,842,354,0
-72,906,399,0
-70,889,462,0
-104,841,471,0
-151,808,423,0
-205,843,437,0
-207,792,427,0
-241,752,459,0
-246,842,462,0
-287,849,472,0
-289,956,489,0
-279,871,478,0
-315,759,446,0
-363,739,368,0
-411,847,312,0
-421,848,286,0
-450,979,182,0
-459,1164,174,0
-509,1020,234,0
-603,1092,210,0
-728,1256,180,0
-819,1340,196,0
-769,1078,257,0
-586,673,313,0
-499,221,322,0
-430,71,376,0
-403,-23,413,0
-431,-50,456,0
-542,106,495,0
-651,264,539,0
-728,271,616,0
-837,171,627,0
-893,256,671,0
-904,326,662,0
-905,399,675,0
-886,395,659,0
-834,387,615,0
-728,384,552,0
-649,341,412,0
-619,291,386,0
-645,244,464,0
-600,129,584,0
-440,73,676,0
-295,-94,492,0
-160,-207,267,0
-23,49,133,0
102,414,-107,0
177,996,-407,0
113,1508,-471,0
-59,1853,-328,0
-253,1742,-641,0
-313,1681,-437,0
-400,1637,-240,0
-496,1466,-135,0
-505,1349,20,0
-356,1329,-42,0
-198,1290,-122,0
-45,1077,-119,0
13,867,-160,0
41,945,-163,0
29,1050,-120,0
68,1152,-43,0
87,1076,63,0
13,807,161,0
-98,614,204,0
-191,606,227,0
-225,689,240,0
-269,759,270,0
-305,800,312,0
-327,871,339,0
-338,923,361,0
-307,912,363,0
-292,1013,391,0
-230,1157,427,0
-162,1131,440,0
-96,996,428,0
-126,754,337,0
-192,743,246,0
-214,897,234,0
-192,1009,232,0
-245,941,262,0
-320,806,318,0
-338,720,354,0
-353,729,352,0
-306,779,382,0
-249,867,424,0
-254,871,392,0
-285,920,360,0
-231,991,356,0
-245,922,300,0
-313,811,299,0
-436,689,215,0
-538,699,64,0
-504,1009,-126,0
-331,1003,-348,0
-242,917,-611,0
-354,855,-771,0
-322,619,-792,0
-286,542,-734,0
-331,503,-740,0
-304,502,-595,0
-358,466,-608,0
-458,447,-681,0
-444,432,-643,0
-438,437,-801,0
-384,521,-636,0
-419,417,-834,0
-371,480,-766,0
-380,414,-883,0
-402,416,-904,0
-381,387,-925,0
-353,350,-941,0
-323,318,-938,0
-262,307,-971,0
-203,301,-946,0
-188,315,-857,0
-194,311,-814,0
-176,320,-863,0
-179,370,-943,0
-202,412,-976,0
-242,413,-853,0
-289,395,-810,0
-312,379,-767,0
-298,380,-747,0
-301,403,-748,0
-325,401,-745,0
-346,410,-757,0
-341,422,-821,0
-298,428,-913,0
-263,449,-937,0
-309,454,-885,0
-415,469,-822,0
-341,506,-859,0
-180,591,-894,0
-90,698,-834,0
-99,749,-732,0
-98,835,-428,0
-124,813,-196,0
101,1026,413,0
245,646,364,0
253,484,-35,0
250,68,-762,0
827,-99,-1742,0
837,819,-1975,0
230,1078,-1170,0
-230,1279,-389,0
-333,1211,38,0
-99,1493,495,0
-9,1182,562,0
71,825,425,0
208,559,725,0
206,595,776,0
255,689,706,0
259,716,590,0
213,703,438,0
189,740,456,0
186,654,579,0
181,449,758,0
125,403,798,0
153,333,1000,0
173,434,1119,0
127,410,1362,0
156,356,865,0
226,496,422,0
81,658,134,0
715,1409,219,0
1324,1309,232,0
762,1212,-587,0
377,1339,5,0
231,1036,123,0
231,844,202,0
343,922,496,0
321,978,688,0
382,1114,594,0
491,940,702,0
482,404,664,0
401,187,527,0
363,181,530,0
380,256,529,0
407,256,451,0
479,256,386,0
727,480,420,0
963,503,398,0
1199,262,321,0
1611,240,247,0
1598,543,256,0
1055,777,339,0
880,702,172,0
1122,546,-12,0
1125,414,-8,0
927,418,43,0
769,473,106,0
676,507,126,0
649,443,129,0
693,402,180,0
724,383,281,0
740,384,336,0
881,413,373,0
1161,403,360,0
1223,318,279,0
1141,304,201,0
1182,459,209,0
996,604,211,0
710,597,161,0
680,564,84,0
864,657,29,0
1047,781,-21,0
1021,796,-91,0
910,737,-43,0
784,627,2,0
671,540,48,0
597,477,75,0
449,556,157,0
294,707,255,0
279,736,272,0
305,702,266,0
342,713,260,0
414,749,280,0
534,833,282,0
721,982,254,0
769,994,299,0
543,947,394,0
278,816,323,0
99,822,231,0
12,1008,105,0
28,1078,-12,0
95,1131,8,0
112,1076,45,0
73,1024,44,0
14,992,98,0
-75,974,159,0
-115,974,193,0
-162,980,153,0
-120,1073,139,0
32,1117,69,0
73,1157,1,0
145,1229,11,0
6,1213,5,0
-175,1018,-20,0
-127,997,-41,0
-72,968,-27,0
-117,917,48,0
-216,851,47,0
-313,844,68,0
-322,762,44,0
-236,752,34,0
-273,790,68,0
-324,820,152,0
-410,812,176,0
-486,844,304,0
-469,849,302,0
-364,889,271,0
-314,968,275,0
-384,1075,383,0
-345,959,420,0
-383,744,323,0
-401,606,381,0
-329,677,386,0
-151,616,416,0
-8,517,428,0
82,421,406,0
137,287,345,0
186,205,250,0
240,234,153,0
341,303,62,0
551,351,-52,0
975,436,-175,0
1646,722,-299,0
1997,1003,-417,0
1997,1447,-421,0
1930,1510,-406,0
1628,1114,-236,0
1462,1033,-145,0
1019,946,-213,0
772,644,-216,0
627,689,-111,0
473,697,-70,0
529,698,-56,0
710,722,-57,0
877,686,-75,0
1012,757,-175,0
1192,911,-187,0
1332,1006,-212,0
1445,1155,-236,0
1495,1330,-220,0
1462,1385,-213,0
1236,1268,-119,0
817,952,84,0
588,642,118,0
460,431,6,0
166,154,-182,0
-81,305,-166,0
-320,449,-133,0
-419,566,-68,0
-373,646,235,0
-352,524,523,0
-219,589,536,0
-122,737,501,0
-47,805,441,0
-63,762,369,0
-114,747,306,0
-177,804,149,0
-123,951,4,0
-88,981,46,0
-63,980,53,0
-24,1136,-15,0
50,1335,-40,0
107,1335,44,0
140,1163,103,0
135,1016,100,0
98,978,82,0
32,1053,59,0
-41,1128,70,0
-133,1185,54,0
-186,1317,5,0
-179,1504,-66,0
-185,1523,-42,0
-138,1448,63,0
-126,1466,116,0
-15,1302,151,0
56,1104,123,0
-12,922,90,0
-79,629,46,0
-66,523,121,0
-255,496,181,0
-204,558,203,0
-83,727,253,0
-24,763,306,0
-144,868,357,0
-299,899,509,0
-333,888,478,0
-403,924,380,0
-420,922,440,0
-517,937,418,0
-521,819,348,0
-483,813,317,0
-334,874,135,0
-205,947,182,0
-228,939,327,0
-333,867,487,0
-430,811,546,0
-431,647,525,0
-452,573,479,0
-510,536,492,0
-546,480,452,0
-600,492,385,0
-605,523,392,0
-585,540,375,0
-571,620,294,0
-598,824,228,0
-512,1015,150,0
-427,1034,214,0
-409,960,261,0
-437,878,187,0
-467,828,169,0
-492,778,220,0
-536,687,215,0
-590,648,176,0
-642,712,228,0
-638,818,226,0
-544,817,235,0
-478,835,250,0
-506,976,277,0
-419,1212,238,0
-375,1040,166,0
-529,1047,129,0
-601,1235,80,0
-486,1086,54,0
-491,909,62,0
-461,1029,76,0
-356,992,34,0
-274,780,27,0
-259,660,87,0
-260,624,120,0
-319,597,109,0
-363,611,92,0
-382,694,103,0
-443,750,115,0
-524,888,126,0
-541,1083,153,0
-521,1366,110,0
-404,1467,131,0
-226,1266,171,0
-138,942,206,0
-178,755,136,0
-240,722,40,0
-273,698,4,0
-318,663,65,0
-353,651,158,0
-401,704,183,0
-444,760,234,0
-451,772,265,0
-480,791,252,0
-545,1009,214,0
-470,1276,160,0
-492,1128,144,0
-601,1018,72,0
-546,1063,45,0
-536,929,73,0
-528,1018,63,0
-360,1071,45,0
-262,753,85,0
-254,559,130,0
-255,573,179,0
-286,594,175,0
-351,648,137,0
-396,762,174,0
-489,830,207,0
-579,937,185,0
-622,1063,205,0
-561,1194,200,0
-415,1265,137,0
-203,1156,114,0
-26,997,158,0
-73,863,117,0
-134,826,32,0
-206,805,97,0
-268,742,160,0
-322,755,162,0
-348,784,203,0
-354,797,243,0
-342,823,243,0
-338,783,238,0
-383,844,222,0
-453,1038,212,0
-383,1131,168,0
-429,1029,146,0
-548,1083,115,0
-509,1099,126,0
-506,876,119,0
-532,931,81,0
-430,1064,57,0
-339,926,50,0
-342,691,57,0
-398,695,75,0
-436,677,112,0
-509,708,114,0
-554,805,127,0
-579,846,207,0
-573,826,250,0
-577,826,240,0
-628,932,231,0
-622,1035,235,0
-570,1062,244,0
-433,1050,194,0
-417,1054,153,0
-393,932,166,0
-419,823,197,0
-451,594,254,0
-501,490,287,0
-530,457,344,0
-571,508,379,0
-554,468,432,0
-550,413,416,0
-668,416,379,0
-786,592,383,0
-768,640,438,0
-933,737,446,0
-947,713,400,0
-972,770,283,0
-929,735,236,0
-785,712,273,0
-570,685,357,0
-525,473,334,0
-590,415,351,0
-622,512,340,0
-612,478,307,0
-612,483,335,0
-604,464,387,0
-555,318,404,0
-508,171,431,0
-579,136,454,0
-735,214,436,0
-888,279,405,0
-1029,417,451,0
-985,453,584,0
-860,316,666,0
-906,183,633,0
-1047,518,593,0
-697,866,790,0
-646,707,665,0
-664,340,602,0
-854,403,627,0
-985,296,564,0
-858,341,525,0
-727,383,553,0
-620,234,464,0
-594,185,305,0
-759,520,332,0
-851,783,335,0
-961,796,208,0
-1051,976,171,0
-1009,957,152,0
-938,913,105,0
-754,787,173,0
-583,698,233,0
-534,632,220,0
-488,494,222,0
-489,416,264,0
-439,379,293,0
-502,418,312,0
-576,556,333,0
-816,762,348,0
-835,832,380,0
-841,773,345,0
-931,981,275,0
-784,1436,273,0
-408,1131,286,0
-356,839,194,0
-456,607,102,0
-478,625,161,0
-483,632,200,0
-458,586,244,0
-447,563,290,0
-468,527,327,0
-525,533,371,0
-625,586,406,0
-741,750,421,0
-756,867,404,0
-823,858,344,0
-954,774,235,0
-999,852,173,0
-843,724,95,0
-854,612,19,0
-779,627,-60,0
-617,684,-24,0
-555,573,80,0
-536,445,170,0
-515,443,246,0
-566,456,277,0
-616,511,281,0
-629,516,293,0
-747,612,273,0
-795,771,250,0
-859,881,251,0
-966,934,182,0
-803,1220,58,0
-479,1330,55,0
-358,988,91,0
-432,895,38,0
-436,796,43,0
-442,586,152,0
-412,458,223,0
-451,434,238,0
-610,504,240,0
-636,531,229,0
-791,648,196,0
-823,813,103,0
-888,757,65,0
-1016,833,39,0
-1070,887,-23,0
-908,732,-84,0
-901,566,-134,0
-836,565,-148,0
-692,435,-68,0
-591,376,33,0
-568,356,65,0
-566,413,95,0
-634,400,107,0
-725,389,109,0
-813,432,97,0
-965,634,19,0
-968,958,93,0
-887,894,135,0
-815,1092,67,0
-587,1396,-20,0
-383,1075,40,0
-341,866,-12,0
-350,734,-103,0
-356,578,-22,0
-371,480,21,0
-413,447,24,0
-472,477,65,0
-538,526,100,0
-598,538,119,0
-718,623,53,0
-805,965,-5,0
-797,1208,37,0
-848,1137,0,0
-869,1021,-50,0
-775,1048,-46,0
-741,1001,-64,0
-632,925,-70,0
-478,822,-24,0
-363,661,18,0
-334,551,19,0
-332,516,7,0
-342,557,6,0
-352,641,11,0
-432,719,0,0
-510,870,-6,0
-521,1146,24,0
-508,1380,77,0
-405,1473,159,0
-185,1356,236,0
-146,1168,232,0
-168,985,106,0
-203,782,38,0
-227,592,55,0
-269,516,57,0
-321,503,58,0
-382,579,101,0
-441,654,116,0
-533,673,79,0
-619,904,92,0
-553,1231,149,0
-609,1314,126,0
-629,1162,72,0
-569,1100,29,0
-562,1042,-47,0
-471,933,-90,0
-290,814,-7,0
-177,636,40,0
-200,600,52,0
-250,654,22,0
-257,754,31,0
-315,814,11,0
-375,962,4,0
-385,1133,54,0
-402,1386,-4,0
-284,1543,57,0
-60,1347,211,0
12,1153,152,0
-36,949,53,0
-102,714,13,0
-135,594,40,0
-196,553,67,0
-251,584,78,0
-307,688,91,0
-354,792,114,0
-437,842,130,0
-470,1051,164,0
-437,1348,149,0
-435,1449,142,0
-444,1276,97,0
-430,1151,27,0
-380,1091,-6,0
-287,957,14,0
-216,710,64,0
-181,540,112,0
-166,493,108,0
-179,541,79,0
-203,627,60,0
-237,733,55,0
-337,851,50,0
-412,1003,68,0
-543,1158,74,0
-488,1612,83,0
-172,1553,236,0
-69,1284,267,0
5,1110,140,0
-29,846,62,0
-89,564,66,0
-160,475,50,0
-228,538,64,0
-309,623,95,0
-374,664,100,0
-479,711,149,0
-572,943,164,0
-548,1257,171,0
-455,1425,219,0
-312,1347,241,0
-300,1116,214,0
-326,1055,111,0
-234,983,78,0
-144,911,111,0
-155,768,176,0
-189,618,151,0
-228,611,125,0
-241,691,142,0
-247,711,155,0
-337,710,138,0
-478,721,137,0
-627,850,24,0
-668,1352,-147,0
-473,1467,64,0
-179,1716,28,0
-21,1336,-32,0
-18,996,-44,0
-54,796,-18,0
-95,631,-18,0
-137,562,25,0
-229,534,61,0
-348,501,99,0
-480,497,182,0
-596,675,227,0
-589,1109,201,0
-504,1302,106,0
-568,1335,49,0
-459,1364,51,0
-384,1186,17,0
-332,1110,-32,0
-210,1066,17,0
-143,869,93,0
-154,674,130,0
-188,536,123,0
-218,481,128,0
-220,657,148,0
-315,723,154,0
-484,822,141,0
-558,959,131,0
-581,966,136,0
-567,1037,193,0
-481,1089,166,0
-356,1044,187,0
-254,1133,175,0
-65,1242,108,0
26,1151,79,0
-113,1011,41,0
-173,939,59,0
-196,758,94,0
-203,634,101,0
-212,671,87,0
-220,754,126,0
-226,859,156,0
-249,946,180,0
-254,1067,169,0
-186,1158,161,0
-208,1158,101,0
-262,1246,10,0
-211,1254,-67,0
-120,1296,-131,0
31,1375,-136,0
19,1266,-93,0
-69,1045,-46,0
-137,859,-45,0
-219,779,-50,0
-249,726,-7,0
-317,702,38,0
-401,689,75,0
-498,667,164,0
-607,679,192,0
-619,717,167,0
-636,762,127,0
-662,891,125,0
-616,934,153,0
-671,915,135,0
-752,1086,170,0
-495,1143,278,0
-289,1021,299,0
-318,808,277,0
-347,676,245,0
-413,619,244,0
-453,530,252,0
-478,472,267,0
-506,381,285,0
-543,405,320,0
-585,444,373,0
-656,513,385,0
-765,631,362,0
-802,740,359,0
-780,725,348,0
-910,743,337,0
-1001,740,280,0
-929,761,155,0
-785,640,59,0
-779,656,18,0
-736,717,42,0
-641,668,94,0
-588,534,169,0
-595,455,191,0
-586,461,190,0
-606,456,170,0
-633,465,133,0
-708,601,85,0
-835,728,97,0
-926,876,246,0
-1004,880,313,0
-920,951,246,0
-612,1065,210,0
-366,1005,143,0
-358,853,76,0
-399,830,48,0
-427,717,122,0
-472,600,171,0
-493,552,187,0
-515,512,194,0
-574,550,212,0
-603,589,241,0
-681,653,213,0
-766,821,187,0
-799,948,175,0
-843,1049,141,0
-912,1042,34,0
-795,924,9,0
-765,774,-50,0
-756,673,-102,0
-656,560,-88,0
-564,468,-53,0
-532,425,-23,0
-513,440,-2,0
-518,553,-1,0
-508,623,-7,0
-555,626,-21,0
-650,811,-57,0
-569,901,-24,0
-597,947,33,0
-586,1140,20,0
-460,1251,56,0
-351,1079,103,0
-338,1117,83,0
-298,1150,43,0
-231,979,63,0
-220,781,112,0
-240,723,119,0
-250,707,142,0
-254,714,147,0
-277,784,181,0
-304,738,183,0
-479,776,137,0
-486,1002,182,0
-418,1114,172,0
-495,1064,86,0
-539,1110,21,0
-415,1133,17,0
-373,1075,35,0
-320,1158,5,0
-222,1091,-25,0
-185,842,24,0
-221,671,35,0
-269,552,18,0
-338,532,-16,0
-399,569,-28,0
-461,626,-12,0
-521,731,56,0
-552,892,173,0
-609,817,248,0
-653,717,299,0
-637,897,265,0
-574,971,259,0
-611,980,260,0
-661,1314,43,0
-373,1415,32,0
-208,1216,330,0
-109,1061,307,0
-140,854,119,0
-277,579,96,0
-350,493,89,0
-396,527,130,0
-463,600,164,0
-519,689,175,0
-562,796,167,0
-586,1022,181,0
-490,1127,234,0
-525,1040,146,0
-615,988,6,0
-620,1161,-68,0
-495,1139,-62,0
-433,926,88,0
-368,922,122,0
-354,788,143,0
-383,661,148,0
-443,598,55,0
-470,591,24,0
-481,709,40,0
-453,821,-3,0
-384,967,74,0
-351,949,147,0
-390,968,273,0
-410,1021,256,0
-356,1181,191,0
-238,1199,244,0
-251,1073,212,0
-293,847,45,0
-273,803,107,0
-311,765,135,0
-332,647,135,0
-354,583,152,0
-406,638,178,0
-458,729,189,0
-555,777,153,0
-586,887,117,0
-529,1020,100,0
-536,932,63,0
-609,1004,5,0
-485,1293,7,0
-350,1137,175,0
-363,901,174,0
-333,978,129,0
-292,911,131,0
-328,642,63,0
-387,624,59,0
-395,655,61,0
-403,733,92,0
-422,818,113,0
-473,954,64,0
-416,1056,107,0
-340,1125,179,0
-304,1105,141,0
-162,1349,193,0
-46,1296,200,0
-113,887,185,0
-211,713,217,0
-300,694,215,0
-390,749,210,0
-397,847,246,0
-335,803,243,0
-299,673,228,0
-331,647,207,0
-415,721,177,0
-488,917,194,0
-451,1183,173,0
-528,1099,97,0
-554,1194,72,0
-438,1080,38,0
-374,958,70,0
-349,817,92,0
-352,763,78,0
-296,781,112,0
-308,722,200,0
-283,562,257,0
-334,565,176,0
-481,784,81,0
-521,1225,28,0
-349,1410,12,0
-241,1107,120,0
-406,981,170,0
-467,1089,198,0
-225,1188,303,0
-92,1123,396,0
-169,1054,308,0
-173,820,223,0
-171,649,237,0
-196,630,169,0
-249,604,182,0
-318,544,211,0
-377,595,213,0
-421,719,290,0
-444,777,313,0
-491,871,287,0
-646,953,283,0
-803,1181,280,0
-732,1344,295,0
-582,1119,303,0
-526,847,246,0
-486,679,203,0
-536,532,118,0
-673,501,0,0
-636,540,38,0
-565,465,67,0
-524,492,82,0
-548,535,151,0
-632,716,266,0
-449,965,448,0
-427,996,581,0
-500,1266,482,0
-379,1313,489,0
-195,1274,518,0
-253,1049,411,0
-312,855,277,0
-291,656,253,0
-274,589,269,0
-282,556,282,0
-317,477,302,0
-356,558,371,0
-418,594,480,0
-535,585,420,0
-578,879,397,0
-528,1262,395,0
-541,1261,345,0
-569,1156,292,0
-496,971,216,0
-471,825,189,0
-437,745,184,0
-385,716,191,0
-338,709,216,0
-339,618,218,0
-360,649,230,0
-406,711,245,0
-454,743,240,0
-526,799,186,0
-601,1045,204,0
-481,1192,353,0
-434,1091,359,0
-425,1119,265,0
-249,1297,337,0
-95,1143,463,0
-110,955,456,0
-183,817,298,0
-246,705,99,0
-254,777,118,0
-327,684,222,0
-342,650,175,0
-373,697,204,0
-425,693,293,0
-500,693,285,0
-564,880,344,0
-515,1044,388,0
-531,1134,298,0
-651,1075,234,0
-749,1060,212,0
-676,1091,233,0
-654,963,171,0
-581,718,133,0
-493,454,219,0
-419,383,278,0
-431,394,289,0
-475,405,279,0
-533,296,319,0
-608,293,391,0
-738,377,419,0
-834,588,439,0
-851,648,533,0
-913,711,586,0
-916,829,521,0
-722,930,511,0
-504,932,440,0
-547,839,419,0
-549,753,427,0
-550,589,428,0
-553,469,409,0
-535,361,366,0
-536,198,339,0
-571,243,349,0
-639,290,374,0
-735,286,379,0
-879,455,384,0
-908,603,404,0
-977,580,412,0
-1186,795,281,0
-1159,713,101,0
-943,713,-26,0
-834,688,2,0
-798,678,22,0
-679,596,124,0
-588,414,166,0
-606,301,132,0
-609,317,106,0
-634,393,103,0
-720,467,147,0
-819,580,160,0
-887,643,172,0
-932,780,249,0
-1026,907,63,0
-911,1143,30,0
-620,1280,287,0
-488,1045,286,0
-449,787,185,0
-460,611,196,0
-498,562,191,0
-518,510,142,0
-478,429,136,0
-511,398,144,0
-584,451,182,0
-682,480,212,0
-807,589,136,0
-892,843,14,0
-857,928,44,0
-1037,894,113,0
-1092,862,49,0
-901,861,128,0
-869,709,32,0
-793,717,-8,0
-664,754,65,0
-575,571,123,0
-530,375,150,0
-540,330,142,0
-580,352,144,0
-654,385,152,0
-756,441,165,0
-891,603,166,0
-962,822,174,0
-1012,882,230,0
-1011,1053,272,0
-805,1116,284,0
-562,981,277,0
-494,837,233,0
-464,659,208,0
-508,525,199,0
-544,452,242,0
-577,435,254,0
-609,362,224,0
-640,345,207,0
-686,377,270,0
-746,412,311,0
-817,506,273,0
-875,737,235,0
-863,773,281,0
-993,731,297,0
-1112,714,101,0
-1016,685,-4,0
-873,570,39,0
-849,582,-79,0
-738,608,-34,0
-638,509,30,0
-620,444,73,0
-579,457,110,0
-597,368,123,0
-653,445,139,0
-751,531,139,0
-897,681,97,0
-945,847,119,0
-1005,841,216,0
-1104,983,185,0
-928,1123,66,0
-563,1097,141,0
-428,835,172,0
-418,731,110,0
-433,622,155,0
-511,519,180,0
-539,472,160,0
-549,425,164,0
-607,404,183,0
-634,432,234,0
-665,478,298,0
-706,540,313,0
-802,741,226,0
-827,738,163,0
-993,777,161,0
-1158,821,90,0
-1065,913,-87,0
-838,678,-84,0
-785,660,-96,0
-683,694,-91,0
-623,627,-39,0
-617,546,38,0
-595,469,101,0
-587,434,132,0
-633,420,119,0
-667,467,131,0
-700,534,142,0
-816,659,71,0
-869,921,29,0
-854,892,71,0
-850,1008,39,0
-725,1153,50,0
-491,976,111,0
-413,901,76,0
-423,827,36,0
-438,801,54,0
-414,673,89,0
-388,552,113,0
-375,462,112,0
-394,437,90,0
-436,503,80,0
-498,577,63,0
-617,740,21,0
-694,982,-21,0
-672,1145,-4,0
-719,1196,8,0
-778,1179,39,0
-716,1144,62,0
-623,1015,80,0
-565,1014,92,0
-504,965,67,0
-435,838,35,0
-386,738,12,0
-360,643,22,0
-366,603,28,0
-374,622,64,0
-393,645,55,0
-452,698,36,0
-559,929,29,0
-538,1044,112,0
-554,1027,143,0
-551,1241,195,0
-382,1301,240,0
-249,1120,190,0
-234,1017,176,0
-220,881,161,0
-250,692,166,0
-294,586,170,0
-325,559,201,0
-373,590,197,0
-431,642,207,0
-474,762,265,0
-528,749,286,0
-607,910,246,0
-563,1049,288,0
-645,1005,267,0
-783,1002,188,0
-836,1070,143,0
-695,1125,179,0
-657,950,243,0
-617,885,240,0
-526,662,227,0
-459,509,220,0
-458,370,193,0
-450,360,196,0
-489,421,198,0
-564,402,263,0
-646,376,251,0
-849,537,373,0
-854,687,596,0
-874,767,593,0
-905,827,650,0
-713,919,752,0
-457,909,635,0
-415,811,570,0
-409,705,547,0
-421,549,489,0
-429,471,477,0
-495,271,452,0
-557,221,443,0
-609,265,483,0
-677,283,492,0
-799,342,527,0
-839,600,636,0
-848,634,645,0
-969,712,603,0
-987,849,587,0
-820,765,472,0
-778,595,336,0
-726,566,306,0
-630,533,268,0
-591,465,222,0
-590,424,243,0
-589,519,296,0
-609,451,301,0
-626,374,342,0
-692,425,294,0
-861,590,309,0
-918,935,415,0
-958,985,406,0
-940,944,453,0
-776,967,495,0
-549,916,406,0
-492,692,368,0
-484,486,290,0
-465,532,249,0
-448,526,355,0
-501,418,308,0
-534,319,256,0
-571,356,305,0
-630,426,332,0
-724,472,347,0
-859,622,324,0
-877,827,306,0
-953,855,308,0
-1041,918,311,0
-1007,897,202,0
-803,744,128,0
-797,721,86,0
-713,638,44,0
-580,598,64,0
-515,529,126,0
-546,446,158,0
-563,455,167,0
-597,449,168,0
-633,429,187,0
-734,491,221,0
-910,672,209,0
-945,823,249,0
-944,885,296,0
-871,1004,341,0
-653,1151,336,0
-445,980,299,0
-392,839,275,0
-397,774,214,0
-473,711,191,0
-501,598,266,0
-537,547,272,0
-542,472,261,0
-547,449,296,0
-573,465,326,0
-610,481,330,0
-736,638,285,0
-785,818,249,0
-821,842,251,0
-958,973,234,0
-983,995,214,0
-796,823,164,0
-732,582,58,0
-764,708,-27,0
-660,694,-33,0
-567,575,33,0
-560,493,91,0
-558,446,124,0
-588,448,125,0
-650,486,128,0
-675,567,183,0
-791,615,143,0
-905,750,106,0
-888,886,178,0
-871,828,239,0
-778,1046,243,0
-573,1156,220,0
-349,954,212,0
-352,871,123,0
-328,884,84,0
-355,766,90,0
-386,623,114,0
-419,552,172,0
-450,501,195,0
-492,484,223,0
-533,525,239,0
-568,555,233,0
-651,733,200,0
-696,981,195,0
-693,1014,208,0
-793,1092,163,0
-833,1234,105,0
-677,1270,130,0
-540,993,179,0
-557,802,117,0
-484,805,70,0
-425,727,74,0
-412,605,55,0
-393,526,28,0
-407,502,7,0
-450,570,15,0
-474,662,61,0
-550,729,85,0
-687,906,60,0
-655,1123,150,0
-650,1164,232,0
-637,1265,137,0
-435,1409,121,0
-237,1191,187,0
-246,988,116,0
-236,830,30,0
-262,687,55,0
-315,608,89,0
-354,577,109,0
-384,539,124,0
-420,560,137,0
-466,590,169,0
-505,624,185,0
-597,712,160,0
-697,940,122,0
-669,1108,122,0
-724,1156,100,0
-761,1153,69,0
-672,1129,70,0
-568,930,90,0
-536,831,41,0
-504,813,-6,0
-457,744,-22,0
-414,625,-11,0
-398,517,9,0
-410,489,10,0
-445,532,16,0
-482,598,31,0
-529,684,50,0
-686,862,22,0
-670,1096,49,0
-607,1250,158,0
-578,1253,111,0
-418,1363,53,0
-200,1229,113,0
-179,1057,152,0
-208,927,52,0
-256,759,51,0
-317,672,109,0
-355,623,121,0
-380,548,105,0
-397,545,125,0
-437,590,146,0
-475,615,153,0
-561,734,138,0
-640,1066,123,0
-577,1224,148,0
-624,1185,156,0
-653,1049,116,0
-598,926,66,0
-593,836,47,0
-604,902,-5,0
-524,1043,-29,0
-425,823,-16,0
-384,610,11,0
-353,529,39,0
-354,504,62,0
-409,543,65,0
-455,642,86,0
-521,709,83,0
-655,873,39,0
-641,1055,63,0
-599,1117,139,0
-544,1176,53,0
-452,1323,8,0
-261,1296,92,0
-215,1099,116,0
-248,984,-2,0
-234,829,-29,0
-250,703,30,0
-278,663,79,0
-303,605,111,0
-344,558,122,0
-390,570,141,0
-422,646,183,0
-473,687,199,0
-578,912,199,0
-573,1096,214,0
-623,1039,183,0
-717,1093,108,0
-710,1246,76,0
-594,1196,67,0
-508,945,47,0
-486,848,3,0
-431,822,11,0
-391,698,-4,0
-377,616,10,0
-372,584,33,0
-383,530,43,0
-422,534,60,0
-477,620,98,0
-558,702,110,0
-665,854,98,0
-706,1040,110,0
-654,1136,159,0
-598,1249,155,0
-482,1410,132,0
-220,1277,135,0
-107,996,158,0
-132,860,130,0
-174,832,100,0
-234,715,128,0
-302,645,170,0
-361,623,191,0
-421,614,178,0
-463,632,185,0
-496,663,197,0
-524,677,177,0
-590,769,136,0
-625,1005,117,0
-522,1132,129,0
-545,1015,118,0
-653,952,64,0
-666,1063,39,0
-585,1046,90,0
-615,916,80,0
-633,933,26,0
-621,914,5,0
-551,778,12,0
-518,656,60,0
-536,624,103,0
-528,543,73,0
-562,568,81,0
-599,548,144,0
-704,616,132,0
-794,790,152,0
-732,871,281,0
-799,841,305,0
-866,955,246,0
-677,1134,348,0
-520,970,393,0
-532,738,339,0
-479,558,301,0
-480,487,276,0
-511,457,260,0
-533,432,300,0
-526,391,324,0
-553,310,309,0
-603,289,337,0
-681,376,391,0
-774,527,429,0
-870,625,497,0
-916,565,506,0
-1047,664,498,0
-1124,616,389,0
-1172,671,241,0
-980,729,216,0
-890,621,142,0
-808,441,55,0
-712,337,62,0
-665,340,72,0
-664,418,98,0
-654,297,149,0
-683,293,188,0
-727,285,210,0
-771,322,242,0
-875,391,264,0
-1019,541,272,0
-1016,693,344,0
-1044,716,419,0
-1077,859,300,0
-924,1024,235,0
-630,988,385,0
-560,786,317,0
-476,567,265,0
-449,544,277,0
-458,523,257,0
-471,489,294,0
-490,414,301,0
-542,396,317,0
-609,407,348,0
-750,479,335,0
-863,742,302,0
-865,857,309,0
-864,778,355,0
-918,741,281,0
-1028,794,93,0
-783,646,70,0
-766,547,-21,0
-649,572,-16,0
-600,578,20,0
-613,530,50,0
-592,482,89,0
-668,476,119,0
-756,505,114,0
-794,574,150,0
-825,617,154,0
-836,707,143,0
-844,827,214,0
-871,867,276,0
-866,1065,217,0
-711,1367,185,0
-451,1105,310,0
-365,806,277,0
-431,721,96,0
-473,629,113,0
-553,527,103,0
-619,528,103,0
-595,541,177,0
-576,466,200,0
-589,440,239,0
-608,438,304,0
-693,513,296,0
-799,672,265,0
-773,626,319,0
-832,790,267,0
-975,909,112,0
-1039,1019,40,0
-925,1039,36,0
-855,856,50,0
-749,618,53,0
-644,455,68,0
-614,412,64,0
-602,361,93,0
-591,330,130,0
-652,361,109,0
-706,293,136,0
-774,387,155,0
-870,489,184,0
-953,693,229,0
-893,761,340,0
-1013,815,321,0
-1026,989,398,0
-678,1123,579,0
-484,932,562,0
-536,584,545,0
-515,572,479,0
-530,615,423,0
-548,468,343,0
-541,362,299,0
-555,404,338,0
-603,366,367,0
-651,307,423,0
-746,356,486,0
-789,510,549,0
-823,500,520,0
-946,519,456,0
-1034,649,359,0
-964,740,236,0
-888,679,108,0
-874,620,58,0
-815,574,55,0
-718,516,66,0
-690,539,112,0
-685,402,134,0
-668,384,148,0
-698,386,119,0
-747,436,107,0
-807,447,141,0
-855,504,166,0
-988,576,149,0
-975,666,191,0
-980,638,186,0
-1106,761,147,0
-951,1050,180,0
-577,1042,269,0
-480,767,242,0
-515,583,179,0
-531,602,219,0
-628,559,237,0
-720,502,197,0
-714,405,206,0
-683,348,216,0
-691,346,245,0
-698,306,272,0
-730,326,255,0
-866,546,226,0
-848,686,261,0
-877,603,227,0
-1080,655,22,0
-1157,777,-51,0
-943,718,-22,0
-909,780,-39,0
-802,722,-13,0
-676,597,41,0
-658,491,96,0
-661,454,117,0
-624,422,96,0
-629,429,84,0
-620,477,106,0
-663,523,95,0
-760,599,40,0
-777,803,79,0
-870,822,269,0
-1013,969,153,0
-855,1270,181,0
-562,1151,257,0
-528,1063,201,0
-527,985,139,0
-514,753,109,0
-562,627,111,0
-566,565,147,0
-543,437,158,0
-543,401,151,0
-549,445,174,0
-576,421,207,0
-636,478,231,0
-740,645,240,0
-741,805,267,0
-670,685,288,0
-820,742,277,0
-908,825,188,0
-917,962,70,0
-744,932,-14,0
-690,815,-73,0
-670,869,-109,0
-564,771,-73,0
-527,692,-43,0
-516,608,-3,0
-491,567,18,0
-504,540,20,0
-543,536,19,0
-554,618,41,0
-554,656,56,0
-613,718,32,0
-677,855,36,0
-670,980,125,0
-719,1070,132,0
-707,1184,31,0
-593,1328,73,0
-351,1212,158,0
-262,1026,146,0
-260,935,85,0
-274,841,53,0
-344,760,59,0
-403,695,72,0
-432,624,73,0
-455,564,71,0
-486,573,83,0
-521,606,101,0
-559,607,99,0
-600,671,104,0
-614,853,119,0
-600,907,159,0
-637,857,116,0
-732,938,26,0
-783,1171,0,0
-643,1165,58,0
-549,856,102,0
-592,843,78,0
-531,885,34,0
-475,835,-24,0
-445,735,-50,0
-430,711,-44,0
-413,666,-37,0
-404,648,-42,0
-398,660,-41,0
-393,697,-22,0
-439,782,-7,0
-498,995,12,0
-482,1119,79,0
-482,1082,179,0
-540,1228,176,0
-468,1404,197,0
-235,1269,285,0
-200,1077,310,0
-256,1038,166,0
-249,851,75,0
-281,693,95,0
-308,609,116,0
-327,545,107,0
-328,500,95,0
-333,563,104,0
-354,652,136,0
-376,736,221,0
-421,805,351,0
-509,909,364,0
-512,1068,305,0
-498,1037,276,0
-570,1047,204,0
-606,1258,155,0
-518,1204,149,0
-459,861,117,0
-488,781,18,0
-459,881,-32,0
-387,964,-52,0
-345,862,-13,0
-313,729,23,0
-293,610,41,0
-306,497,25,0
-345,538,15,0
-375,655,67,0
-409,796,125,0
-471,893,140,0
-540,1052,125,0
-552,1216,167,0
-514,1303,164,0
-434,1494,118,0
-173,1419,152,0
4,1050,236,0
-32,910,164,0
-61,942,68,0
-105,829,114,0
-170,750,181,0
-210,656,202,0
-241,543,203,0
-275,484,169,0
-320,533,136,0
-365,603,113,0
-454,752,49,0
-540,1138,0,0
-584,1292,19,0
-660,1450,57,0
-596,1364,24,0
-524,1265,-18,0
-421,1077,-25,0
-474,961,-53,0
-443,918,-106,0
-369,840,-105,0
-304,719,-50,0
-272,536,-23,0
-262,420,-13,0
-278,386,-18,0
-385,474,-45,0
-519,723,-98,0
-672,1091,-75,0
-660,1178,63,0
-774,1118,251,0
-860,1363,409,0
-526,1540,511,0
-252,1095,303,0
-233,924,66,0
-220,824,38,0
-292,737,67,0
-391,584,107,0
-458,535,151,0
-505,502,213,0
-522,466,243,0
-594,495,242,0
-665,484,269,0
-773,676,301,0
-703,923,339,0
-654,889,346,0
-776,804,279,0
-872,879,166,0
-778,868,75,0
-742,793,99,0
-726,763,107,0
-701,728,145,0
-604,556,205,0
-580,468,196,0
-593,440,151,0
-623,411,155,0
-660,351,154,0
-715,361,158,0
-767,465,139,0
-836,710,116,0
-853,911,179,0
-864,787,296,0
-941,922,282,0
-852,1156,206,0
-605,1120,328,0
-395,853,343,0
-416,824,245,0
-426,751,163,0
-459,671,178,0
-503,617,177,0
-502,523,163,0
-507,466,206,0
-533,436,236,0
-594,440,254,0
-682,481,254,0
-787,656,219,0
-797,840,197,0
-800,891,214,0
-966,1035,108,0
-955,1097,83,0
-765,738,35,0
-744,747,-33,0
-610,748,-17,0
-537,637,-16,0
-492,542,5,0
-473,637,69,0
-475,608,169,0
-509,660,80,0
-530,750,46,0
-553,759,83,0
-597,812,50,0
-614,896,141,0
-594,848,221,0
-642,819,169,0
-642,957,159,0
-625,987,300,0
-535,959,453,0
-474,834,475,0
-481,751,439,0
-445,754,385,0
-486,696,366,0
-502,641,373,0
-493,659,329,0
-469,620,366,0
-492,534,337,0
-566,434,334,0
-608,541,369,0
-631,611,420,0
-649,599,398,0
-632,581,384,0
-609,603,334,0
-645,637,296,0
-717,724,303,0
-770,781,312,0
-774,1005,271,0
-698,1084,264,0
-620,992,334,0
-628,956,321,0
-565,838,182,0
-500,861,183,0
-431,841,224,0
-370,733,161,0
-365,654,183,0
-403,660,118,0
-401,673,151,0
-422,671,182,0
-507,776,218,0
-551,973,228,0
-549,1040,234,0
-608,1109,396,0
-579,1291,507,0
-411,1106,534,0
-371,925,447,0
-400,843,389,0
-392,806,339,0
-376,799,310,0
-415,639,333,0
-409,465,347,0
-426,480,271,0
-469,452,296,0
-501,461,329,0
-561,562,283,0
-640,715,298,0
-660,882,326,0
-725,973,295,0
-840,1045,289,0
-793,1013,324,0
-676,867,259,0
-750,756,244,0
-728,666,240,0
-651,606,178,0
-609,537,212,0
-574,519,242,0
-585,476,230,0
-625,411,229,0
-665,391,257,0
-707,423,290,0
-779,471,300,0
-867,612,310,0
-840,723,375,0
-906,771,390,0
-866,800,444,0
-678,987,525,0
-390,913,541,0
-346,727,473,0
-393,661,413,0
-415,694,368,0
-448,630,327,0
-471,585,289,0
-477,546,297,0
-471,533,299,0
-471,566,279,0
-482,603,301,0
-481,602,305,0
-545,698,259,0
-556,924,268,0
-476,964,290,0
-525,909,220,0
-624,948,176,0
-660,1234,188,0
-540,1251,237,0
-506,1063,232,0
-410,999,215,0
-338,1019,190,0
-301,873,160,0
-292,739,138,0
-292,709,113,0
-304,725,82,0
-328,734,74,0
-333,790,121,0
-296,788,144,0
-315,803,111,0
-392,1049,137,0
-349,1253,221,0
-322,1281,267,0
-317,1326,206,0
-215,1203,297,0
-68,1013,356,0
-70,904,277,0
-139,792,279,0
-233,652,219,0
-341,657,182,0
-402,702,196,0
-413,762,228,0
-432,774,245,0
-436,755,250,0
-426,751,282,0
-430,755,312,0
-445,763,308,0
-462,787,270,0
-467,848,235,0
-471,920,206,0
-524,984,193,0
-599,1044,172,0
-584,1090,146,0
-437,1085,160,0
-389,1004,225,0
-420,957,186,0
-396,869,106,0
-355,768,131,0
-333,725,106,0
-352,639,135,0
-376,643,157,0
-399,667,142,0
-463,644,138,0
-499,973,159,0
-448,1005,153,0
-382,1021,240,0
-350,1068,392,0
-266,1123,488,0
-147,1121,522,0
-205,1065,519,0
-427,1142,547,0
-302,1013,579,0
-277,735,522,0
-265,511,554,0
-211,482,536,0
-187,476,508,0
-225,473,517,0
-305,496,517,0
-335,482,518,0
-401,427,462,0
-647,497,252,0
-737,843,408,0
-533,975,442,0
-621,1070,408,0
-689,1046,477,0
-620,1098,426,0
-540,969,308,0
-520,782,265,0
-502,721,249,0
-469,672,205,0
-436,669,216,0
-420,652,237,0
-425,629,245,0
-464,639,280,0
-512,690,348,0
-521,762,361,0
-573,901,380,0
-598,1048,445,0
-545,1052,515,0
-494,930,547,0
-437,946,541,0
-281,1109,553,0
-160,969,517,0
-271,823,423,0
-298,687,317,0
-317,776,348,0
-367,609,345,0
-403,518,336,0
-421,498,344,0
-444,482,326,0
-480,512,346,0
-554,602,353,0
-605,770,412,0
-603,944,416,0
-596,942,375,0
-661,981,357,0
-703,1053,259,0
-604,1008,221,0
-524,847,201,0
-532,785,155,0
-496,762,120,0
-442,770,96,0
-429,734,129,0
-438,668,173,0
-452,613,185,0
-470,677,227,0
-474,736,261,0
-508,748,228,0
-540,865,270,0
-515,954,323,0
-508,963,311,0
-512,1038,369,0
-366,1169,472,0
-219,1084,457,0
-126,886,488,0
-133,872,512,0
-154,785,459,0
-152,706,452,0
-196,659,481,0
-229,587,506,0
-270,537,477,0
-315,605,473,0
-368,642,443,0
-408,624,422,0
-457,698,421,0
-462,832,453,0
-454,955,465,0
-462,1055,524,0
-460,1224,504,0
-449,1147,391,0
-436,917,359,0
-443,842,351,0
-429,800,287,0
-355,766,259,0
-320,767,241,0
-306,695,244,0
-318,637,207,0
-339,642,202,0
-357,709,240,0
-383,752,245,0
-489,921,301,0
-454,1099,380,0
-398,1167,394,0
-420,1312,400,0
-292,1301,348,0
-164,1148,403,0
-129,861,424,0
-128,698,311,0
-152,621,223,0
-185,649,245,0
-230,674,271,0
-253,655,266,0
-284,631,283,0
-345,688,299,0
-393,760,305,0
-442,883,344,0
-414,1067,383,0
-406,1116,365,0
-425,1196,300,0
-396,1212,258,0
-303,1058,277,0
-310,946,260,0
-281,977,259,0
-208,974,228,0
-210,845,203,0
-243,709,223,0
-277,624,212,0
-339,605,181,0
-383,672,147,0
-409,738,160,0
-438,768,186,0
-526,803,179,0
-574,924,207,0
-486,1071,263,0
-426,1081,285,0
-421,1127,275,0
-317,1183,321,0
-127,1149,343,0
-69,1032,325,0
-78,887,295,0
-72,810,262,0
-139,755,235,0
-204,775,249,0
-224,753,288,0
-237,690,312,0
-274,698,369,0
-325,750,401,0
-322,762,372,0
-337,920,405,0
-309,967,400,0
-353,940,334,0
-444,1118,304,0
-472,1246,302,0
-396,1121,325,0
-331,904,277,0
-372,815,217,0
-339,809,197,0
-322,797,172,0
-323,734,148,0
-339,665,121,0
-375,677,128,0
-399,707,156,0
-411,738,183,0
-462,786,163,0
-542,980,151,0
-442,1157,213,0
-341,1179,259,0
-320,1311,247,0
-136,1295,216,0
-29,1116,217,0
-30,968,231,0
-56,788,212,0
-86,787,214,0
-149,818,201,0
-200,775,185,0
-206,742,238,0
-209,716,285,0
-246,727,296,0
-315,790,259,0
-380,841,273,0
-400,988,276,0
-387,1062,234,0
-442,1157,209,0
-447,1229,214,0
-364,1281,194,0
-300,1074,194,0
-308,979,174,0
-270,934,176,0
-165,907,205,0
-119,743,242,0
-94,622,290,0
-146,642,317,0
-195,756,340,0
-272,870,291,0
-370,974,280,0
-538,1146,257,0
-664,1291,240,0
-638,1204,288,0
-693,991,211,0
-758,923,234,0
-728,776,164,0
-665,554,211,0
-572,365,256,0
-518,118,240,0
-459,-86,223,0
-466,151,196,0
-550,477,50,0
-672,777,-152,0
-699,813,-13,0
-763,697,69,0
-798,568,64,0
-793,529,79,0
-782,490,66,0
-766,484,-9,0
-735,611,-107,0
-700,697,-145,0
-775,709,-209,0
-902,753,-299,0
-929,968,-405,0
-774,1008,-291,0
-730,946,-314,0
-651,857,-386,0
-518,789,-350,0
-425,762,-225,0
-403,643,-128,0
-419,568,-139,0
-451,580,-150,0
-464,664,-134,0
-461,716,-84,0
-512,773,-95,0
-594,851,-139,0
-589,925,-38,0
-604,1003,25,0
-690,1211,28,0
-662,1332,198,0
-452,1409,373,0
-295,1192,297,0
-225,890,273,0
-262,633,278,0
-262,492,421,0
-251,343,600,0
-277,206,669,0
-316,117,779,0
-373,183,816,0
-399,302,755,0
-423,375,708,0
-417,321,622,0
-368,359,580,0
-402,502,670,0
-502,539,775,0
-554,525,799,0
-637,702,706,0
-783,1056,693,0
-807,1110,693,0
-652,686,576,0
-599,617,536,0
-578,590,506,0
-467,792,506,0
-365,864,340,0
-361,652,182,0
-361,603,98,0
-325,574,136,0
-315,511,231,0
-325,632,398,0
-351,660,501,0
-444,773,552,0
-450,1000,625,0
-372,974,547,0
-341,1102,525,0
-243,1243,576,0
-18,1403,613,0
159,1139,596,0
116,840,494,0
71,902,402,0
18,986,311,0
-59,957,215,0
-151,908,122,0
-223,886,40,0
-313,836,0,0
-381,730,-14,0
-391,642,28,0
-340,636,63,0
-338,636,-8,0
-337,698,-20,0
-361,787,1,0
-401,775,35,0
-576,811,-18,0
-744,1007,-140,0
-797,1279,-210,0
-669,1344,74,0
-519,1248,204,0
-432,1203,-12,0
-316,990,-146,0
-301,839,-46,0
-288,767,0,0
-292,615,-27,0
-338,525,-49,0
-395,531,-26,0
-438,579,-2,0
-502,637,0,0
-638,804,17,0
-792,946,-20,0
-852,1012,13,0
-845,1053,33,0
-802,1003,-6,0
-694,1055,-26,0
-490,1124,25,0
-326,1014,153,0
-214,820,231,0
-187,642,196,0
-234,524,176,0
-333,511,139,0
-411,550,45,0
-427,645,-17,0
-446,834,89,0
-521,885,6,0
-574,867,22,0
-601,834,57,0
-603,796,54,0
-589,765,27,0
-586,773,-25,0
-551,854,-36,0
-496,888,14,0
-586,869,-23,0
-671,987,-41,0
-680,1359,-57,0
-619,1171,-98,0
-553,1061,-57,0
-523,1087,-46,0
-423,881,-58,0
-326,711,-17,0
-264,674,12,0
-255,627,47,0
-314,655,175,0
-380,697,328,0
-420,619,407,0
-411,681,450,0
-453,807,450,0
-450,972,461,0
-411,934,406,0
-374,952,373,0
-357,1085,405,0
-287,1237,249,0
-112,1086,183,0
-112,1047,245,0
-185,996,156,0
-191,885,118,0
-202,885,102,0
-229,842,123,0
-253,748,160,0
-263,685,191,0
-283,701,204,0
-322,735,210,0
-326,773,216,0
-365,797,205,0
-409,868,191,0
-362,1134,166,0
-327,1059,162,0
-428,1092,158,0
-538,1143,122,0
-513,1095,98,0
-474,1002,124,0
-503,946,99,0
-433,943,72,0
-322,879,36,0
-287,768,43,0
-237,775,85,0
-234,709,137,0
-278,639,135,0
-335,715,123,0
-370,830,166,0
-470,874,158,0
-583,1040,131,0
-552,1113,211,0
-565,1090,238,0
-586,1127,155,0
-418,1290,214,0
-184,1116,276,0
-113,903,255,0
-113,765,107,0
-177,654,94,0
-253,628,154,0
-314,635,161,0
-379,598,140,0
-428,604,173,0
-461,685,234,0
-514,748,253,0
-579,821,249,0
-618,1025,243,0
-520,1116,260,0
-586,1045,260,0
-704,1021,195,0
-690,1046,125,0
-584,953,130,0
-602,916,118,0
-555,867,73,0
-477,792,39,0
-425,707,80,0
-407,605,129,0
-428,531,124,0
-458,513,119,0
-469,598,160,0
-473,644,184,0
-589,733,179,0
-601,852,240,0
-627,942,339,0
-674,1052,287,0
-588,1248,211,0
-388,1240,310,0
-281,1127,381,0
-266,939,259,0
-282,740,132,0
-330,592,134,0
-383,606,155,0
-415,591,153,0
-449,582,163,0
-442,644,206,0
-430,677,242,0
-462,670,259,0
-532,715,231,0
-614,891,205,0
-560,1070,248,0
-566,884,262,0
-715,739,164,0
-920,882,113,0
-905,1439,135,0
-544,1464,185,0
-329,1113,184,0
-281,844,137,0
-306,620,184,0
-327,528,156,0
-347,498,90,0
-358,529,63,0
-382,612,87,0
-443,700,110,0
-586,880,138,0
-609,1005,245,0
-635,1307,102,0
-286,1370,319,0
-24,1309,484,0
-121,1070,286,0
-225,773,131,0
-276,596,107,0
-304,555,181,0
-363,587,180,0
-400,631,210,0
-427,659,254,0
-433,700,300,0
-459,664,306,0
-547,730,293,0
-588,929,301,0
-545,1086,309,0
-609,1049,284,0
-674,1013,228,0
-597,978,193,0
-598,938,177,0
-572,999,171,0
-470,978,159,0
-381,782,137,0
-354,632,145,0
-351,555,154,0
-383,539,133,0
-421,534,173,0
-459,607,209,0
-543,726,213,0
-648,911,258,0
-590,1105,340,0
-586,1223,428,0
-583,1340,333,0
-374,1275,334,0
-194,981,376,0
-209,788,326,0
-279,665,199,0
-315,624,131,0
-329,766,207,0
-351,730,278,0
-381,666,259,0
-399,596,287,0
-416,630,349,0
-443,642,371,0
-471,660,339,0
-560,856,334,0
-534,1018,344,0
-578,1081,331,0
-700,1147,269,0
-695,1150,169,0
-579,961,125,0
-570,893,114,0
-490,878,109,0
-383,812,68,0
-339,694,69,0
-360,591,110,0
-383,556,126,0
-429,551,84,0
-475,586,79,0
-520,629,93,0
-602,761,100,0
-646,1023,158,0
-592,1057,267,0
-586,1086,294,0
-516,1223,275,0
-344,1255,305,0
-114,1168,351,0
-65,918,307,0
-112,786,263,0
-160,704,219,0
-247,705,229,0
-329,799,250,0
-369,791,248,0
-391,756,246,0
-409,731,251,0
-411,707,261,0
-407,717,287,0
-404,727,297,0
-409,743,306,0
-435,844,318,0
-405,890,316,0
-487,944,331,0
-505,1082,388,0
-453,1156,409,0
-394,1031,330,0
-324,990,259,0
-329,977,225,0
-333,891,100,0
-355,819,9,0
-359,865,-4,0
-334,854,83,0
-329,765,116,0
-348,757,133,0
-347,788,183,0
-363,865,208,0
-358,1020,248,0
-261,1143,317,0
-258,1118,315,0
-316,1238,253,0
-196,1302,235,0
-119,1072,292,0
-143,888,266,0
-202,775,159,0
-242,707,134,0
-278,719,182,0
-319,749,215,0
-323,723,210,0
-315,720,209,0
-309,757,232,0
-325,779,257,0
-347,789,288,0
-395,820,292,0
-417,952,297,0
-411,1084,315,0
-477,1101,331,0
-518,1124,341,0
-537,1233,351,0
-445,1333,351,0
-355,1179,346,0
-378,1092,269,0
-328,969,227,0
-296,823,215,0
-285,746,195,0
-307,591,211,0
-371,509,202,0
-428,477,224,0
-558,422,264,0
-638,440,286,0
-705,522,314,0
-783,660,316,0
-796,866,417,0
-777,917,451,0
-861,786,495,0
-851,724,524,0
-681,754,555,0
-464,734,589,0
-455,626,516,0
-463,509,466,0
-515,387,443,0
-553,349,422,0
-583,390,456,0
-622,387,467,0
-641,348,478,0
-636,327,471,0
-660,326,471,0
-661,318,460,0
-646,359,455,0
-662,450,465,0
-732,549,465,0
-856,655,537,0
-847,716,530,0
-842,799,427,0
-777,826,402,0
-716,836,372,0
-684,846,326,0
-606,777,283,0
-495,674,249,0
-462,487,205,0
-517,424,180,0
-607,508,194,0
-612,624,248,0
-573,769,286,0
-624,768,289,0
-704,864,291,0
-668,958,351,0
-568,911,418,0
-611,996,382,0
-550,1148,385,0
-381,1123,463,0
-249,1076,426,0
-248,858,393,0
-279,663,365,0
-321,608,307,0
-365,556,312,0
-394,586,292,0
-413,622,301,0
-440,610,314,0
-500,599,344,0
-550,605,348,0
-573,805,364,0
-564,886,378,0
-574,920,347,0
-613,979,340,0
-707,1048,275,0
-655,1224,237,0
-526,1072,212,0
-489,887,198,0
-441,782,186,0
-376,758,150,0
-355,683,168,0
-381,601,164,0
-388,576,161,0
-431,587,157,0
-474,645,158,0
-489,681,186,0
-536,719,219,0
-639,836,199,0
-630,1079,260,0
-508,1164,315,0
-519,1198,295,0
-426,1226,296,0
-243,1163,277,0
-155,1018,293,0
-150,902,294,0
-148,769,239,0
-165,699,203,0
-210,699,228,0
-241,656,228,0
-244,635,210,0
-274,708,212,0
-314,739,228,0
-345,740,270,0
-360,770,324,0
-360,960,416,0
-334,1074,460,0
-352,1021,390,0
-357,1046,377,0
-353,1155,405,0
-336,1156,342,0
-299,1047,303,0
-306,905,246,0
-273,872,207,0
-224,894,198,0
-213,831,167,0
-233,740,138,0
-278,707,136,0
-310,721,143,0
-346,716,142,0
-408,791,134,0
-454,862,139,0
-511,928,127,0
-537,1043,150,0
-450,1114,223,0
-405,1143,225,0
-393,1285,224,0
-263,1283,319,0
-116,1100,385,0
-133,857,364,0
-122,770,293,0
-139,680,248,0
-183,668,229,0
-229,679,248,0
-261,646,231,0
-284,642,253,0
-319,665,298,0
-361,669,325,0
-433,734,320,0
-478,975,371,0
-442,1112,410,0
-476,1053,401,0
-534,1075,333,0
-503,1183,292,0
-392,1067,269,0
-374,884,226,0
-356,840,195,0
-293,838,165,0
-254,837,131,0
-261,757,126,0
-289,700,126,0
-307,689,130,0
-327,728,127,0
-334,753,130,0
-355,800,150,0
-407,889,165,0
-453,1025,185,0
-420,1129,234,0
-373,1110,252,0
-368,1146,232,0
-292,1316,210,0
-143,1281,194,0
-50,1089,267,0
-59,902,242,0
-79,759,167,0
-104,725,137,0
-145,771,154,0
-165,788,162,0
-185,752,160,0
-217,742,171,0
-232,775,212,0
-243,784,247,0
-287,769,248,0
-345,853,285,0
-342,994,354,0
-315,1076,337,0
-354,1136,291,0
-381,1243,279,0
-360,1267,271,0
-338,1056,233,0
-344,902,202,0
-319,874,170,0
-272,866,141,0
-261,814,138,0
-274,610,127,0
-290,616,122,0
-312,698,146,0
-340,769,169,0
-357,874,194,0
-400,986,220,0
-441,1119,261,0
-392,1152,324,0
-362,1083,315,0
-342,1201,279,0
-184,1324,259,0
-68,1166,269,0
-41,1012,269,0
-32,867,218,0
-60,746,159,0
-120,737,180,0
-162,764,251,0
-196,707,254,0
-228,645,260,0
-254,647,270,0
-292,665,276,0
-342,710,287,0
-398,821,287,0
-415,1048,308,0
-353,1180,280,0
-345,1266,294,0
-300,1311,276,0
-265,1217,221,0
-213,993,181,0
-233,872,188,0
-237,899,182,0
-196,901,138,0
-187,871,102,0
-223,828,126,0
-263,739,138,0
-299,682,125,0
-331,698,126,0
-356,729,147,0
-375,761,176,0
-410,829,199,0
-457,969,233,0
-426,1103,267,0
-361,1152,247,0
-357,1291,213,0
-237,1415,252,0
-95,1224,282,0
-78,974,252,0
-77,838,213,0
-73,764,191,0
-108,730,195,0
-150,710,211,0
-198,673,222,0
-226,645,238,0
-255,662,244,0
-288,700,248,0
-325,763,277,0
-357,855,317,0
-379,942,337,0
-373,1048,323,0
-399,1070,281,0
-457,1125,275,0
-483,1269,291,0
-416,1285,306,0
-339,1049,294,0
-376,876,201,0
-373,868,157,0
-355,782,113,0
-357,722,92,0
-353,731,96,0
-373,669,92,0
-426,635,94,0
-475,636,126,0
-509,693,174,0
-572,795,207,0
-645,1014,246,0
-598,1141,344,0
-532,1130,376,0
-560,1168,378,0
-480,1310,413,0
-302,1195,392,0
-316,976,349,0
-302,828,383,0
-311,691,353,0
-357,572,258,0
-386,427,236,0
-431,479,285,0
-466,471,285,0
-504,419,327,0
-558,386,384,0
-635,320,452,0
-701,409,487,0
-789,554,522,0
-788,608,609,0
-862,655,592,0
-977,642,567,0
-956,724,515,0
-729,775,417,0
-680,626,340,0
-745,613,350,0
-722,607,353,0
-683,480,345,0
-685,361,344,0
-689,289,310,0
-697,262,260,0
-713,275,251,0
-740,263,244,0
-767,343,250,0
-881,524,197,0
-986,593,250,0
-958,650,336,0
-1005,672,294,0
-1064,871,308,0
-868,1065,362,0
-575,996,294,0
-448,770,231,0
-425,717,296,0
-451,730,290,0
-489,600,320,0
-507,525,335,0
-507,475,327,0
-520,432,322,0
-560,420,315,0
-627,457,345,0
-769,595,347,0
-815,765,342,0
-818,823,327,0
-873,734,277,0
-1013,812,201,0
-1026,875,150,0
-874,756,108,0
-802,627,31,0
-803,666,15,0
-699,567,35,0
-646,514,54,0
-622,452,105,0
-621,420,137,0
-633,390,130,0
-647,399,141,0
-685,429,173,0
-732,465,202,0
-882,562,182,0
-947,748,211,0
-908,783,274,0
-1016,812,247,0
-1000,1025,197,0
-751,1095,268,0
-584,856,262,0
-590,737,190,0
-542,668,196,0
-576,591,184,0
-582,555,190,0
-569,503,232,0
-555,435,239,0
-559,432,245,0
-579,426,266,0
-639,482,268,0
-725,591,259,0
-811,756,236,0
-793,861,227,0
-880,713,225,0
-1032,907,172,0
-919,974,79,0
-672,766,73,0
-638,645,24,0
-644,709,-51,0
-574,672,-56,0
-512,637,2,0
-506,581,70,0
-513,522,81,0
-530,489,100,0
-568,518,109,0
-616,569,99,0
-668,677,126,0
-735,773,140,0
-822,943,152,0
-769,1098,260,0
-701,1064,319,0
-649,1107,263,0
-531,1188,279,0
-301,991,262,0
-195,961,238,0
-228,960,265,0
-258,831,237,0
-305,751,202,0
-325,719,206,0
-329,676,224,0
-332,631,222,0
-335,657,248,0
-355,662,256,0
-394,691,274,0
-445,743,299,0
-531,874,316,0
-529,1078,362,0
-523,1103,428,0
-553,997,411,0
-601,1018,311,0
-533,1084,264,0
-471,1011,259,0
-439,976,203,0
-397,910,122,0
-363,767,88,0
-363,638,95,0
-382,544,125,0
-425,531,142,0
-479,582,166,0
-515,615,191,0
-583,633,206,0
-703,729,201,0
-777,860,224,0
-719,983,304,0
-662,989,327,0
-632,1116,288,0
-431,1332,334,0
-158,1151,391,0
-132,959,348,0
-130,938,278,0
-186,765,261,0
-292,707,265,0
-352,699,265,0
-379,607,227,0
-395,558,212,0
-425,567,222,0
-465,586,250,0
-493,636,270,0
-555,748,281,0
-615,976,323,0
-617,1178,366,0
-628,1177,365,0
-621,1166,351,0
-553,1086,324,0
-463,891,278,0
-459,802,185,0
-454,784,108,0
-415,802,85,0
-377,729,111,0
-342,649,177,0
-325,579,240,0
-337,569,251,0
-386,600,252,0
-464,667,303,0
-566,804,335,0
-648,917,344,0
-666,942,380,0
-669,951,348,0
-611,1108,280,0
-369,1311,227,0
-189,1107,275,0
-176,880,292,0
-218,778,212,0
-281,681,165,0
-331,720,176,0
-357,753,210,0
-366,699,204,0
-377,660,207,0
-388,675,213,0
-398,701,231,0
-413,739,261,0
-441,794,259,0
-479,931,264,0
-462,1101,292,0
-523,1135,254,0
-566,1185,223,0
-567,1221,224,0
-475,1114,249,0
-402,922,248,0
-402,797,164,0
-386,752,111,0
-366,694,82,0
-370,638,67,0
-380,608,60,0
-402,595,42,0
-446,662,31,0
-482,803,58,0
-482,987,110,0
-446,1035,136,0
-459,935,157,0
-513,979,178,0
-520,1253,192,0
-352,1289,225,0
-90,1447,321,0
-24,1253,294,0
-84,920,208,0
-121,719,120,0
-133,651,105,0
-155,636,119,0
-166,635,147,0
-194,628,152,0
-233,636,177,0
-277,649,197,0
-321,666,184,0
-545,1068,239,0
-556,1149,274,0
-592,1161,296,0
-618,1195,252,0
-583,1266,209,0
-450,1111,190,0
-453,956,133,0
-440,919,80,0
-385,865,49,0
-340,763,38,0
-330,651,38,0
-317,578,42,0
-308,556,42,0
-335,580,42,0
-374,670,43,0
-420,807,74,0
-478,1053,149,0
-448,1225,243,0
-393,1183,332,0
-430,1302,329,0
-316,1423,258,0
-99,1377,291,0
-32,1226,274,0
-42,1024,106,0
-63,814,42,0
-146,742,81,0
-218,653,128,0
-290,555,136,0
-346,531,155,0
-364,578,198,0
-363,625,231,0
-378,644,238,0
-404,698,235,0
-430,901,262,0
-403,1100,305,0
-424,1181,319,0
-427,1278,274,0
-435,1264,232,0
-406,1069,199,0
-420,999,187,0
-410,1065,154,0
-313,998,138,0
-263,787,118,0
-267,608,104,0
-276,530,88,0
-294,488,67,0
-341,534,45,0
-409,617,53,0
-492,783,97,0
-551,1007,144,0
-568,1167,220,0
-561,1138,283,0
-557,1176,285,0
-486,1263,269,0
-285,1031,166,0
-28,1057,152,0
109,1190,231,0
73,917,165,0
-34,770,65,0
-100,692,175,0
-161,759,213,0
-199,738,225,0
-218,688,247,0
-208,700,251,0
-222,747,238,0
-258,807,234,0
-299,1016,253,0
-273,1209,287,0
-269,1242,278,0
-294,1298,226,0
-256,1288,185,0
-273,1155,213,0
-294,1072,313,0
-303,1035,295,0
-285,937,298,0
-271,867,319,0
-287,752,269,0
-302,684,221,0
-324,652,194,0
-325,717,191,0
-268,819,211,0
-288,810,190,0
-279,952,219,0
-255,1015,294,0
-265,984,360,0
-320,926,405,0
-329,953,459,0
-296,1010,490,0
-269,1020,499,0
-230,905,461,0
-190,699,332,0
-220,622,267,0
-283,600,258,0
-362,635,287,0
-477,680,451,0
-630,809,665,0
-572,948,704,0
-456,944,563,0
-298,944,516,0
-177,866,390,0
-62,914,341,0
-75,824,358,0
-126,931,280,0
-77,922,220,0
-74,929,237,0
-128,877,265,0
-241,869,398,0
-360,865,549,0
-383,788,501,0
-277,799,343,0
-187,863,235,0
-144,872,69,0
-158,905,-6,0
-197,928,-19,0
-218,1021,126,0
-213,1125,241,0
-158,1063,242,0
-172,1205,394,0
-185,1114,326,0
-224,979,471,0
-346,893,353,0
-429,648,330,0
-496,607,339,0
-522,619,291,0
-478,640,313,0
-354,766,359,0
-228,808,402,0
-174,743,406,0
-196,715,400,0
-204,852,417,0
-154,903,340,0
-146,910,241,0
-200,1079,243,0
-252,1167,242,0
-259,1181,224,0
-304,1229,255,0
-359,1200,260,0
-342,1101,223,0
-278,1035,229,0
-216,910,241,0
-209,668,217,0
-215,590,195,0
-232,637,199,0
-244,705,164,0
-256,783,121,0
-335,878,83,0
-393,1039,83,0
-441,1129,122,0
-538,1175,130,0
-518,1512,158,0
-216,1579,297,0
-108,1213,356,0
-130,980,231,0
-73,840,147,0
-28,768,124,0
-39,731,129,0
-72,633,118,0
-106,546,122,0
-136,516,143,0
-165,555,177,0
-202,607,207,0
-245,667,213,0
-334,861,259,0
-416,1127,338,0
-423,1207,365,0
-482,1171,348,0
-517,1296,333,0
-430,1412,336,0
-295,1197,252,0
-287,970,222,0
-252,993,232,0
-153,995,204,0
-101,836,153,0
-131,717,134,0
-167,676,141,0
-195,592,120,0
-235,620,101,0
-277,755,121,0
-344,770,116,0
-417,810,115,0
-501,959,143,0
-513,1115,192,0
-447,1180,249,0
-385,1247,268,0
-312,1346,276,0
-178,1346,295,0
-51,1203,319,0
8,1025,298,0
42,907,247,0
81,844,210,0
56,783,183,0
-22,688,144,0
-108,666,149,0
-190,723,237,0
-285,781,340,0
-364,774,338,0
-414,739,277,0
-443,716,277,0
-441,797,299,0
-432,902,277,0
-376,989,273,0
-405,1138,273,0
-455,1253,297,0
-528,1105,244,0
-625,892,187,0
-647,874,210,0
-626,890,151,0
-594,828,90,0
-561,767,49,0
-506,682,13,0
-433,615,-15,0
-369,552,-13,0
-328,547,56,0
-329,624,84,0
-383,646,75,0
-473,719,97,0
-547,923,164,0
-593,1104,254,0
-739,1315,139,0
-707,1423,63,0
-514,1241,481,0
-393,1018,609,0
-330,821,321,0
-230,568,216,0
-215,532,277,0
-262,597,267,0
-329,540,198,0
-406,512,207,0
-471,618,272,0
-519,666,283,0
-550,641,292,0
-594,685,268,0
-610,750,198,0
-631,819,140,0
-639,944,101,0
-688,1262,70,0
-660,1329,57,0
-588,1203,69,0
-527,1057,102,0
-481,973,106,0
-433,845,63,0
-398,681,20,0
-372,603,9,0
-350,576,16,0
-357,555,11,0
-381,599,-6,0
-408,705,-26,0
-426,990,3,0
-475,1162,57,0
-465,1279,146,0
-422,1215,229,0
-453,1252,229,0
-392,1337,229,0
-224,1189,265,0
-119,1046,305,0
-73,964,213,0
-41,801,118,0
-100,650,102,0
-177,633,100,0
-204,656,113,0
-233,657,141,0
-259,689,166,0
-308,694,198,0
-353,693,244,0
-397,759,303,0
-446,841,318,0
-481,971,298,0
-475,1090,313,0
-494,1124,291,0
-510,1224,230,0
-416,1228,208,0
-359,1003,189,0
-353,849,177,0
-347,874,167,0
-317,887,141,0
-308,865,132,0
-311,785,125,0
-317,701,113,0
-315,666,116,0
-329,663,117,0
-356,665,96,0
-387,748,78,0
-432,966,83,0
-408,1261,93,0
-349,1260,228,0
-369,1207,236,0
-329,1231,201,0
-141,1142,183,0
-56,1088,78,0
-38,906,120,0
-138,738,113,0
-200,687,129,0
-244,696,162,0
-279,745,175,0
-287,796,185,0
-261,864,219,0
-258,839,244,0
-292,759,226,0
-349,751,202,0
-405,931,205,0
-367,1234,204,0
-337,1360,173,0
-329,1316,143,0
-326,1197,111,0
-304,1029,100,0
-296,962,77,0
-283,960,36,0
-250,958,5,0
-250,904,-13,0
-255,788,-6,0
-260,667,8,0
-265,638,27,0
-278,673,46,0
-279,758,62,0
-270,937,84,0
-288,1134,124,0
-271,1237,176,0
-273,1229,204,0
-347,1251,160,0
-324,1256,164,0
-178,1157,253,0
-67,941,323,0
-59,787,236,0
-101,679,96,0
-173,624,61,0
-226,726,115,0
-233,795,172,0
-229,809,241,0
-267,776,297,0
-329,748,324,0
-361,732,324,0
-410,769,308,0
-408,915,316,0
-355,968,280,0
-434,983,204,0
-455,1195,140,0
-313,1401,122,0
-268,1183,154,0
-259,1050,93,0
-199,992,29,0
-191,853,-6,0
-224,735,-10,0
-258,653,22,0
-263,608,20,0
-291,614,0,0
-338,702,-6,0
-320,888,4,0
-301,1113,56,0
-289,1299,113,0
-257,1358,153,0
-251,1228,119,0
-344,1244,52,0
-273,1266,106,0
-161,1139,221,0
-114,1047,276,0
-63,988,164,0
-11,832,107,0
-72,671,107,0
-117,674,113,0
-138,620,135,0
-159,627,142,0
-180,640,158,0
-230,673,183,0
-294,723,203,0
-350,839,227,0
-386,1046,284,0
-357,1235,332,0
-335,1202,274,0
-329,1158,156,0
-293,1153,89,0
-273,1110,82,0
-250,969,68,0
-245,987,38,0
-233,922,-30,0
-258,831,-57,0
-297,801,-57,0
-310,752,-38,0
-305,727,0,0
-318,715,-1,0
-342,763,-17,0
-326,896,13,0
-301,1147,6,0
-241,1271,26,0
-173,1194,122,0
-215,1199,115,0
-179,1320,106,0
-43,1147,217,0
8,966,290,0
-28,843,229,0
-59,702,111,0
-84,734,86,0
-96,850,105,0
-114,824,104,0
-123,774,103,0
-143,761,135,0
-191,752,155,0
-246,772,159,0
-295,826,169,0
-343,990,189,0
-346,1097,211,0
-344,1115,224,0
-345,1076,177,0
-342,1065,119,0
-336,1131,70,0
-307,1085,64,0
-311,1045,59,0
-257,1082,17,0
-180,1050,8,0
-136,914,0,0
-141,769,16,0
-168,670,25,0
-191,654,30,0
-215,691,20,0
-226,801,25,0
-240,928,31,0
-265,1056,38,0
-265,1196,74,0
-242,1219,127,0
-280,1227,105,0
-237,1391,114,0
-66,1341,212,0
-24,1040,261,0
-30,889,184,0
-29,820,108,0
-81,752,103,0
-150,765,105,0
-188,716,109,0
-207,659,115,0
-210,643,129,0
-229,692,152,0
-254,766,169,0
-259,878,188,0
-288,964,201,0
-314,1091,229,0
-317,1131,238,0
-345,1248,162,0
-297,1345,101,0
-314,1133,37,0
-347,968,30,0
-337,980,5,0
-284,967,-27,0
-230,938,-51,0
-211,867,-35,0
-218,759,-15,0
-226,689,-4,0
-248,680,-1,0
-274,744,1,0
-283,811,16,0
-303,890,46,0
-318,990,86,0
-321,1115,117,0
-271,1216,157,0
-275,1222,121,0
-308,1284,93,0
-182,1192,163,0
-150,880,220,0
-174,732,167,0
-193,720,87,0
-216,765,61,0
-242,865,73,0
-237,911,90,0
-231,861,94,0
-229,812,101,0
-217,808,123,0
-215,819,144,0
-240,825,142,0
-246,846,141,0
-264,897,136,0
-247,1011,153,0
-244,1146,169,0
-279,1263,91,0
-285,1347,45,0
-274,1216,92,0
-281,1031,87,0
-256,986,41,0
-190,1003,35,0
-201,950,10,0
-219,865,6,0
-222,769,10,0
-226,678,6,0
-240,635,8,0
-269,648,3,0
-303,696,2,0
-325,827,20,0
-323,1056,53,0
-303,1244,110,0
-284,1268,164,0
-346,1270,130,0
-348,1346,175,0
-228,1313,248,0
-138,1125,309,0
-130,949,250,0
-103,852,154,0
-130,771,132,0
-218,799,153,0
-292,787,181,0
-366,759,210,0
-417,698,231,0
-437,618,263,0
-445,605,271,0
-463,565,296,0
-501,567,314,0
-568,605,289,0
-670,704,296,0
-730,857,305,0
-834,973,277,0
-907,971,255,0
-861,854,239,0
-785,775,233,0
-750,639,191,0
-692,534,167,0
-639,504,180,0
-602,479,210,0
-609,413,209,0
-662,385,176,0
-666,411,213,0
-703,440,265,0
-776,438,255,0
-837,516,278,0
-861,678,313,0
-844,726,364,0
-895,623,369,0
-945,735,442,0
-772,867,527,0
-588,783,530,0
-509,673,526,0
-474,603,533,0
-482,592,526,0
-523,548,500,0
-526,493,474,0
-552,477,469,0
-516,463,460,0
-550,448,454,0
-619,466,447,0
-652,526,459,0
-698,573,460,0
-723,667,471,0
-644,651,480,0
-688,579,443,0
-823,612,406,0
-861,747,390,0
-794,836,387,0
-725,728,355,0
-725,649,318,0
-710,668,283,0
-658,624,250,0
-621,527,242,0
-650,447,237,0
-650,415,216,0
-651,449,203,0
-661,505,182,0
-679,567,209,0
-693,657,259,0
-757,897,286,0
-778,966,340,0
-763,884,358,0
-809,997,434,0
-683,982,468,0
-574,966,491,0
-511,955,535,0
-463,854,472,0
-449,702,407,0
-481,669,418,0
-463,617,382,0
-451,506,351,0
-460,439,368,0
-462,332,380,0
-530,307,395,0
-564,331,445,0
-636,390,469,0
-729,521,550,0
-739,624,573,0
-841,651,557,0
-949,686,492,0
-912,809,369,0
-820,666,348,0
-800,650,302,0
-754,662,304,0
-680,573,304,0
-686,523,345,0
-643,353,324,0
-643,234,278,0
-664,346,300,0
-687,311,321,0
-697,334,338,0
-722,540,386,0
-812,831,388,0
-836,907,364,0
-843,743,374,0
-810,979,432,0
-669,1052,474,0
-518,926,454,0
-460,811,376,0
-413,798,370,0
-411,780,338,0
-453,696,304,0
-476,674,305,0
-472,634,327,0
-490,579,328,0
-489,550,345,0
-492,551,351,0
-519,558,353,0
-538,498,326,0
-599,542,325,0
-683,612,285,0
-777,813,287,0
-811,725,270,0
-906,827,216,0
-951,1058,162,0
-849,1152,125,0
-760,1048,92,0
-769,945,76,0
-651,743,52,0
-593,610,20,0
-528,492,44,0
-498,424,53,0
-501,391,57,0
-515,451,88,0
-575,517,128,0
-633,619,175,0
-683,718,245,0
-783,825,270,0
-815,971,311,0
-753,929,348,0
-828,973,244,0
-812,1257,187,0
-567,1089,199,0
-422,751,186,0
-467,881,157,0
-436,843,184,0
-487,683,215,0
-524,609,251,0
-499,565,292,0
-501,546,287,0
-499,455,278,0
-506,478,288,0
-548,514,290,0
-590,536,304,0
-660,591,307,0
-739,696,303,0
-779,781,314,0
-846,797,301,0
-983,928,215,0
-938,982,173,0
-789,885,175,0
-752,778,137,0
-706,688,108,0
-671,643,53,0
-634,607,32,0
-635,588,54,0
-604,521,105,0
-617,459,142,0
-651,431,157,0
-679,449,165,0
-701,477,175,0
-729,523,193,0
-759,613,208,0
-840,750,213,0
-852,882,266,0
-868,849,290,0
-951,951,278,0
-781,1040,313,0
-541,903,304,0
-460,823,269,0
-420,782,263,0
-402,725,252,0
-460,656,240,0
-510,602,244,0
-515,563,274,0
-529,514,283,0
-530,489,297,0
-549,493,294,0
-591,529,289,0
-637,561,277,0
-719,684,250,0
-757,837,257,0
-821,887,241,0
-917,1006,178,0
-871,1019,138,0
-795,881,99,0
-748,764,31,0
-703,698,-1,0
-613,607,-11,0
-551,586,-25,0
-539,544,-7,0
-529,499,29,0
-546,476,39,0
-578,496,17,0
-610,572,12,0
-634,688,41,0
-663,814,73,0
-720,964,120,0
-693,1063,207,0
-637,1084,242,0
-631,1139,164,0
-491,1197,183,0
-292,1108,228,0
-275,1015,244,0
-272,906,245,0
-254,791,245,0
-284,708,259,0
-295,664,262,0
-288,636,290,0
-295,609,305,0
-324,577,303,0
-343,589,315,0
-370,619,319,0
-415,719,319,0
-456,895,339,0
-477,1017,364,0
-571,1112,371,0
-590,1286,350,0
-518,1273,335,0
-458,1038,278,0
-473,934,231,0
-437,913,213,0
-375,801,177,0
-349,660,153,0
-346,561,143,0
-360,521,126,0
-383,572,112,0
-410,695,121,0
-439,828,138,0
-447,1003,186,0
-448,1149,247,0
-411,1089,286,0
-399,955,300,0
-460,1055,294,0
-422,1308,339,0
-261,1258,354,0
-216,1061,354,0
-202,893,311,0
-190,771,251,0
-230,686,206,0
-259,668,188,0
-281,665,180,0
-299,650,174,0
-309,664,182,0
-288,716,224,0
-295,731,251,0
-337,767,268,0
-400,863,297,0
-432,1016,329,0
-428,1064,377,0
-486,1079,378,0
-487,1190,349,0
-416,1167,327,0
-395,939,264,0
-400,777,227,0
-408,816,198,0
-375,893,165,0
-343,890,151,0
-321,857,131,0
-297,778,128,0
-300,705,132,0
-323,634,106,0
-358,654,83,0
-391,711,97,0
-404,797,124,0
-431,863,154,0
-464,911,190,0
-488,1015,219,0
-467,1086,255,0
-470,1150,251,0
-416,1300,218,0
-286,1266,176,0
-132,1211,198,0
-43,1099,185,0
-34,938,141,0
-54,789,111,0
-95,676,121,0
-172,661,134,0
-232,686,137,0
-271,740,141,0
-281,805,153,0
-273,837,174,0
-303,825,195,0
-345,819,215,0
-363,847,244,0
-348,895,289,0
-332,904,313,0
-335,881,303,0
-385,934,279,0
-415,1114,258,0
-339,1403,307,0
-291,1303,302,0
-299,1035,252,0
-290,933,180,0
-276,883,146,0
-307,883,135,0
-301,861,144,0
-305,753,133,0
-317,656,135,0
-321,632,155,0
-319,649,175,0
-346,738,163,0
-382,932,187,0
-375,1132,224,0
-357,1159,259,0
-392,1186,264,0
-365,1361,313,0
-220,1319,358,0
-85,1200,410,0
-66,1038,363,0
-81,852,238,0
-119,658,151,0
-167,612,177,0
-214,573,197,0
-273,523,177,0
-333,529,186,0
-376,583,210,0
-410,701,268,0
-392,802,302,0
-399,833,311,0
-408,906,329,0
-381,1003,338,0
-381,1057,306,0
-396,1186,280,0
-413,1414,318,0
-312,1404,330,0
-254,1071,272,0
-278,923,199,0
-235,948,178,0
-190,924,149,0
-199,802,127,0
-215,679,118,0
-236,595,96,0
-278,544,77,0
-321,576,73,0
-320,643,97,0
-289,675,94,0
-279,733,107,0
-389,1030,172,0
-355,1266,256,0
-348,1397,280,0
-279,1591,399,0
-25,1625,459,0
81,1236,333,0
66,865,251,0
64,795,221,0
31,800,180,0
-36,799,192,0
-107,718,206,0
-162,638,214,0
-208,634,225,0
-246,677,244,0
-267,760,266,0
-271,871,291,0
-270,1007,332,0
-246,1070,354,0
-298,1112,319,0
-315,1206,303,0
-303,1163,269,0
-343,1006,260,0
-335,983,279,0
-262,965,260,0
-218,854,222,0
-213,691,184,0
-220,583,160,0
-225,566,150,0
-244,646,150,0
-268,780,160,0
-303,891,151,0
-369,1014,157,0
-392,1162,217,0
-372,1221,266,0
-339,1196,269,0
-335,1287,300,0
-149,1329,325,0
-38,1034,312,0
-85,666,184,0
-89,686,122,0
-139,808,150,0
-183,862,199,0
-198,835,216,0
-177,806,210,0
-173,801,237,0
-167,801,261,0
-188,819,264,0
-216,894,272,0
-216,1077,296,0
-183,1228,318,0
-168,1262,280,0
-171,1268,249,0
-168,1146,241,0
-160,1009,241,0
-150,954,179,0
-109,927,167,0
-105,846,154,0
-140,738,133,0
-169,694,114,0
-192,687,97,0
-218,719,81,0
-244,784,78,0
-260,872,103,0
-287,953,137,0
-310,1088,193,0
-287,1181,258,0
-257,1158,298,0
-266,1170,314,0
-196,1272,349,0
-91,1231,318,0
-31,1034,308,0
-3,841,291,0
23,704,253,0
11,659,212,0
-51,652,185,0
-105,747,205,0
-120,858,235,0
-126,904,252,0
-152,872,262,0
-180,814,271,0
-203,810,289,0
-223,845,305,0
-251,929,313,0
-243,1029,317,0
-231,1093,326,0
-231,1135,297,0
-219,1228,296,0
-189,1225,278,0
-193,1074,284,0
-206,926,280,0
-195,870,251,0
-178,833,217,0
-188,756,192,0
-218,676,159,0
-259,648,148,0
-299,688,155,0
-316,763,159,0
-307,849,184,0
-316,910,214,0
-345,982,246,0
-350,1107,297,0
-300,1209,331,0
-288,1223,299,0
-259,1314,295,0
-76,1383,324,0
11,1179,352,0
-9,929,285,0
-11,763,169,0
-37,688,123,0
-81,691,131,0
-108,699,145,0
-133,698,144,0
-161,698,164,0
-196,724,228,0
-247,760,267,0
-308,818,292,0
-363,964,348,0
-337,1128,413,0
-347,1147,376,0
-416,1155,285,0
-425,1255,270,0
-402,1169,252,0
-426,1097,224,0
-424,1083,229,0
-379,961,236,0
-386,882,243,0
-415,577,196,0
-466,665,187,0
-541,619,241,0
-549,559,228,0
-579,562,224,0
-587,510,241,0
-629,510,250,0
-702,625,255,0
-728,742,312,0
-705,712,323,0
-801,763,324,0
-839,916,367,0
-670,1012,383,0
-546,966,322,0
-530,786,328,0
-473,765,356,0
-461,591,300,0
-508,514,284,0
-527,471,297,0
-557,477,332,0
-572,449,397,0
-596,416,385,0
-602,439,371,0
-623,406,374,0
-663,480,347,0
-696,616,344,0
-637,740,371,0
-676,774,337,0
-746,949,253,0
-671,903,220,0
-591,800,142,0
-583,764,57,0
-559,855,66,0
-505,977,21,0
-474,826,2,0
-401,800,66,0
-409,808,130,0
-407,819,175,0
-422,899,187,0
-407,904,213,0
-383,917,208,0
-366,996,199,0
-342,1097,228,0
-276,1141,234,0
-286,1102,180,0
-283,1178,154,0
-175,1197,140,0
-54,1149,189,0
-30,1008,262,0
-40,857,281,0
-81,763,241,0
-151,720,217,0
-200,735,204,0
-211,742,235,0
-209,686,275,0
-232,703,283,0
-265,727,333,0
-323,732,329,0
-352,798,343,0
-312,950,326,0
-301,1204,331,0
-299,1329,335,0
-271,1248,307,0
-257,1085,260,0
-272,871,270,0
-270,800,258,0
-240,842,225,0
-217,875,191,0
-221,887,162,0
-241,767,179,0
-282,689,164,0
-318,720,144,0
-333,791,175,0
-331,860,192,0
-322,913,214,0
-332,954,231,0
-316,1040,264,0
-257,1106,293,0
-246,1101,270,0
-264,1233,206,0
-125,1302,182,0
-16,1234,269,0
-52,979,312,0
-106,804,216,0
-166,686,198,0
-207,742,259,0
-199,773,244,0
-167,797,231,0
-163,742,215,0
-175,702,213,0
-207,702,216,0
-275,733,208,0
-319,858,219,0
-290,1031,237,0
-229,1158,270,0
-289,1189,235,0
-339,1219,153,0
-324,1173,112,0
-311,1082,170,0
-290,1060,178,0
-214,943,134,0
-205,820,125,0
-225,697,133,0
-232,660,152,0
-231,688,139,0
-265,728,107,0
-301,814,99,0
-310,940,90,0
-302,1147,111,0
-285,1184,173,0
-289,1129,256,0
-337,1221,196,0
-244,1273,151,0
-48,1170,295,0
-32,996,381,0
-107,851,261,0
-124,761,219,0
-133,769,270,0
-150,751,274,0
-126,700,272,0
-105,644,226,0
-118,634,166,0
-165,665,167,0
-228,705,184,0
-306,739,167,0
-416,937,133,0
-401,1332,240,0
-371,1324,264,0
-355,1342,107,0
-241,1428,42,0
-226,1273,92,0
-264,1053,93,0
-238,939,40,0
-231,831,1,0
-253,761,-1,0
-280,691,5,0
-286,640,7,0
-294,642,9,0
-327,656,18,0
-375,721,33,0
-401,828,37,0
-424,930,56,0
-423,1077,131,0
-400,1192,204,0
-375,1274,203,0
-363,1401,163,0
-282,1486,163,0
-127,1282,192,0
-83,998,189,0
-88,807,130,0
-111,727,37,0
-143,624,8,0
-192,617,29,0
-224,643,68,0
-272,638,103,0
-304,659,133,0
-307,707,182,0
-346,777,242,0
-400,819,247,0
-462,925,213,0
-451,1171,213,0
-418,1227,279,0
-482,1217,277,0
-497,1211,216,0
-444,1162,170,0
-385,968,181,0
-404,883,189,0
-416,811,149,0
-393,776,101,0
-363,732,102,0
-381,645,154,0
-429,542,183,0
-500,599,200,0
-544,637,229,0
-602,690,227,0
-652,726,216,0
-683,741,209,0
-737,845,177,0
-730,922,178,0
-683,959,204,0
-680,996,172,0
-623,1072,157,0
-438,1052,204,0
-364,917,176,0
-375,912,240,0
-329,874,267,0
-377,730,241,0
-416,609,237,0
-429,567,277,0
-460,554,298,0
-491,545,312,0
-529,543,309,0
-597,544,325,0
-659,555,303,0
-736,662,272,0
-710,828,265,0
-706,788,266,0
-858,877,185,0
-921,952,139,0
-800,856,144,0
-711,658,148,0
-744,641,-11,0
-684,698,-27,0
-637,624,-18,0
-619,512,13,0
-633,497,57,0
-666,474,58,0
-698,490,58,0
-707,574,88,0
-711,589,123,0
-763,686,109,0
-821,796,105,0
-812,891,151,0
-820,831,192,0
-892,941,126,0
-796,1174,127,0
-560,1068,180,0
-459,812,207,0
-429,842,216,0
-385,769,196,0
-437,644,205,0
-486,652,218,0
-477,617,244,0
-492,540,269,0
-498,505,283,0
-526,510,292,0
-565,545,303,0
-624,605,291,0
-711,740,260,0
-711,861,250,0
-759,850,244,0
-953,974,127,0
-943,968,56,0
-783,776,29,0
-759,662,21,0
-729,654,-1,0
-629,629,6,0
-591,605,30,0
-634,542,81,0
-646,491,130,0
-674,483,111,0
-718,480,85,0
-744,545,90,0
-750,566,105,0
-754,574,124,0
-832,651,103,0
-874,752,88,0
-874,796,116,0
-901,850,122,0
-900,1046,132,0
-653,978,177,0
-483,880,201,0
-435,752,143,0
-370,762,105,0
-346,711,106,0
-399,649,110,0
-441,657,122,0
-482,640,159,0
-522,626,196,0
-562,641,208,0
-582,651,215,0
-616,698,183,0
-663,890,155,0
-628,1008,181,0
-641,912,166,0
-738,1001,77,0
-718,1074,72,0
-602,907,70,0
-566,725,59,0
-593,723,27,0
-577,801,-5,0
-521,800,-6,0
-479,700,2,0
-494,636,25,0
-529,629,45,0
-538,683,56,0
-550,738,74,0
-556,797,105,0
-578,818,121,0
-612,894,112,0
-612,939,148,0
-619,1003,160,0
-609,1131,130,0
-495,1201,137,0
-328,1117,180,0
-271,924,179,0
-254,842,134,0
-229,795,131,0
-273,786,132,0
-322,798,130,0
-335,782,153,0
-349,751,169,0
-355,717,183,0
-374,700,194,0
-403,699,201,0
-429,715,202,0
-475,803,203,0
-492,970,223,0
-475,961,249,0
-541,936,204,0
-608,1077,137,0
-572,1272,95,0
-456,1136,75,0
-429,859,95,0
-445,759,67,0
-449,801,9,0
-418,887,-27,0
-413,897,-7,0
-419,778,44,0
-438,636,87,0
-477,575,81,0
-529,595,60,0
-548,668,68,0
-563,718,74,0
-579,752,59,0
-626,799,37,0
-686,914,11,0
-641,1105,66,0
-583,1094,106,0
-563,1211,71,0
-428,1285,105,0
-294,1178,163,0
-250,999,162,0
-200,838,135,0
-176,755,122,0
-205,742,106,0
-237,748,104,0
-286,738,125,0
-336,746,150,0
-362,728,176,0
-374,724,204,0
-381,744,231,0
-395,747,244,0
-421,755,239,0
-452,794,213,0
-482,936,204,0
-440,1101,221,0
-450,1082,218,0
-519,1073,144,0
-538,1131,77,0
-495,1104,54,0
-452,889,82,0
-468,778,39,0
-479,777,-38,0
-456,815,-76,0
-433,859,-90,0
-415,766,-51,0
-420,676,2,0
-432,623,32,0
-454,614,49,0
-488,648,56,0
-528,713,55,0
-550,793,62,0
-608,927,29,0
-634,1158,40,0
-599,1249,114,0
-573,1186,100,0
-504,1260,69,0
-317,1254,102,0
-160,1022,180,0
-127,806,219,0
-125,732,180,0
-140,680,138,0
-209,677,126,0
-269,723,144,0
-298,733,180,0
-321,722,184,0
-345,700,198,0
-361,724,217,0
-389,726,221,0
-432,773,206,0
-454,912,191,0
-418,1133,182,0
-385,1179,190,0
-421,1145,133,0
-453,1170,73,0
-439,1192,42,0
-432,1158,49,0
-415,1103,33,0
-365,931,-2,0
-339,754,16,0
-327,622,33,0
-322,549,30,0
-338,513,16,0
-377,545,-16,0
-389,664,-46,0
-406,764,-13,0
-444,888,61,0
-519,1105,81,0
-511,1264,116,0
-460,1280,171,0
-437,1282,161,0
-333,1380,146,0
-130,1288,139,0
-45,1003,160,0
-53,861,125,0
-47,803,87,0
-92,755,90,0
-156,743,111,0
-187,688,133,0
-217,628,154,0
-261,622,182,0
-311,644,197,0
-351,676,198,0
-418,853,207,0
-423,1169,234,0
-429,1300,236,0
-450,1459,183,0
-351,1399,136,0
-314,992,111,0
-345,759,109,0
-373,861,127,0
-373,893,81,0
-380,842,31,0
-388,796,71,0
-384,710,122,0
-396,554,108,0
-415,506,97,0
-437,555,116,0
-451,654,137,0
-484,749,126,0
-571,960,122,0
-570,1262,213,0
-501,1292,341,0
-478,1149,292,0
-470,1256,233,0
-258,1308,221,0
-85,969,274,0
-156,810,201,0
-155,760,48,0
-150,720,26,0
-203,784,88,0
-231,754,144,0
-248,696,170,0
-262,708,206,0
-269,726,237,0
-279,744,261,0
-317,743,259,0
-366,769,234,0
-419,918,226,0
-408,1109,221,0
-385,1192,236,0
-417,1204,201,0
-420,1223,143,0
-377,1180,157,0
-356,928,172,0
-370,793,130,0
-366,795,76,0
-333,833,40,0
-325,839,28,0
-336,751,20,0
-302,755,86,0
-260,749,161,0
-279,813,217,0
-310,840,191,0
-337,844,129,0
-364,933,107,0
-371,1110,114,0
-300,1204,158,0
-281,1067,206,0
-343,1049,163,0
-296,1293,183,0
-164,1283,318,0
-112,1063,369,0
-67,938,350,0
-23,873,298,0
-75,724,231,0
-142,646,180,0
-182,648,186,0
-221,639,181,0
-264,663,179,0
-283,708,216,0
-311,720,240,0
-352,753,252,0
-375,896,276,0
-317,1210,324,0
-309,1255,329,0
-347,1238,270,0
-329,1174,221,0
-316,1006,180,0
-338,936,167,0
-325,959,149,0
-285,905,95,0
-285,823,80,0
-310,751,83,0
-311,703,71,0
-337,714,64,0
-377,751,47,0
-411,821,51,0
-441,908,65,0
-437,1024,106,0
-398,1085,152,0
-384,1141,196,0
-326,1269,189,0
-180,1243,218,0
-77,1066,272,0
-75,899,270,0
-61,815,219,0
-80,742,206,0
-124,735,199,0
-149,700,214,0
-188,657,210,0
-250,653,202,0
-302,696,232,0
-358,744,226,0
-398,874,249,0
-378,1081,270,0
-363,1185,243,0
-400,1196,205,0
-435,1148,157,0
-413,1060,134,0
-405,992,158,0
-387,999,139,0
-303,956,103,0
-260,824,94,0
-268,695,126,0
-282,625,144,0
-326,631,120,0
-390,671,109,0
-459,742,99,0
-515,860,92,0
-567,1053,94,0
-475,1302,140,0
-402,1183,201,0
-458,1239,216,0
-398,1344,273,0
-213,1173,356,0
-200,882,374,0
-242,837,308,0
-315,792,255,0
-484,852,280,0
-550,797,449,0
-497,677,419,0
-427,499,270,0
-334,411,285,0
-296,455,342,0
-327,458,344,0
-394,444,357,0
-515,562,406,0
-582,697,431,0
-648,760,423,0
-829,910,397,0
-881,931,382,0
-839,819,305,0
-846,773,230,0
-818,739,167,0
-721,648,135,0
-672,529,146,0
-658,438,163,0
-648,372,155,0
-651,367,119,0
-689,419,129,0
-742,470,169,0
-780,515,198,0
-827,577,220,0
-889,681,210,0
-898,795,271,0
-952,760,299,0
-998,909,229,0
-802,1103,239,0
-540,935,257,0
-472,793,262,0
-455,722,184,0
-475,681,195,0
-543,595,207,0
-551,548,215,0
-548,496,223,0
-559,487,237,0
-573,466,257,0
-613,476,293,0
-701,541,288,0
-764,699,259,0
-753,843,269,0
-787,824,265,0
-898,876,185,0
-964,882,69,0
-889,843,-11,0
-773,728,20,0
-747,649,5,0
-700,591,-67,0
-645,570,-59,0
-641,570,-21,0
-655,550,31,0
-655,508,73,0
-694,475,66,0
-721,461,60,0
-740,488,93,0
-752,547,129,0
-798,558,132,0
-877,656,107,0
-897,876,116,0
-864,833,167,0
-910,895,148,0
-851,1090,120,0
-611,1045,201,0
-445,805,202,0
-437,835,143,0
-416,774,123,0
-446,716,132,0
-505,683,172,0
-495,589,207,0
-489,520,241,0
-506,485,247,0
-518,486,262,0
-541,508,265,0
-590,622,256,0
-650,789,239,0
-688,916,240,0
-709,878,245,0
-830,905,252,0
-915,1063,155,0
-765,1076,60,0
-605,890,40,0
-567,780,19,0
-543,781,-27,0
-496,752,-61,0
-492,695,-65,0
-511,640,-29,0
-525,630,17,0
-549,615,20,0
-570,590,28,0
-587,643,47,0
-594,695,67,0
-613,724,70,0
-659,828,49,0
-673,975,52,0
-665,998,61,0
-657,985,35,0
-639,1144,-12,0
-523,1191,11,0
-384,986,70,0
-391,883,26,0
-370,808,-14,0
-376,707,19,0
-409,676,47,0
-430,678,71,0
-439,650,92,0
-454,639,96,0
-463,664,109,0
-480,675,101,0
-535,732,83,0
-587,925,63,0
-581,1034,96,0
-614,1015,103,0
-644,1081,39,0
-600,1100,31,0
-507,946,19,0
-533,834,-7,0
-532,918,-69,0
-461,926,-71,0
-413,778,-57,0
-401,620,-30,0
-406,542,-7,0
-441,548,-12,0
-478,602,-25,0
-513,709,-36,0
-503,813,-19,0
-531,851,-6,0
-591,995,-11,0
-574,1124,15,0
-515,1115,55,0
-536,1124,5,0
-491,1318,-67,0
-321,1299,-67,0
-201,1066,14,0
-168,867,7,0
-168,756,-11,0
-168,737,0,0
-219,780,9,0
-255,757,13,0
-286,721,37,0
-318,709,76,0
-331,727,103,0
-338,744,111,0
-348,823,111,0
-363,932,106,0
-393,1095,97,0
-353,1189,112,0
-320,1094,98,0
-348,1086,4,0
-370,1163,-80,0
-383,1077,-92,0
-375,921,-62,0
-395,828,-141,0
-406,775,-205,0
-406,814,-198,0
-387,824,-153,0
-360,780,-93,0
-365,711,-36,0
-392,698,-12,0
-414,737,-1,0
-415,782,6,0
-420,835,21,0
-462,934,29,0
-498,1111,6,0
-460,1215,49,0
-414,1194,73,0
-391,1234,62,0
-319,1260,102,0
-218,1122,117,0
-148,902,141,0
-124,783,182,0
-125,697,203,0
-151,679,203,0
-195,685,202,0
-222,683,199,0
-247,720,199,0
-254,764,224,0
-264,780,239,0
-310,800,247,0
-371,1066,283,0
-321,1317,287,0
-365,1215,230,0
-420,1184,173,0
-428,1116,85,0
-414,907,75,0
-417,825,79,0
-392,831,37,0
-333,829,26,0
-309,783,28,0
-315,764,59,0
-339,761,81,0
-357,730,70,0
-371,720,59,0
-384,757,88,0
-393,745,119,0
-421,764,137,0
-469,966,165,0
-490,1212,180,0
-461,1230,147,0
-388,1284,53,0
-207,1308,35,0
-32,1177,73,0
-5,1011,58,0
-18,911,-8,0
-44,794,7,0
-95,721,65,0
-135,706,124,0
-173,667,174,0
-217,671,195,0
-246,692,233,0
-277,807,270,0
-325,1041,234,0
-277,1127,203,0
-191,1150,229,0
-241,1231,176,0
-293,1148,55,0
-329,954,46,0
-334,921,110,0
-347,983,127,0
-314,928,70,0
-267,920,81,0
-254,850,115,0
-267,751,132,0
-291,671,108,0
-317,634,92,0
-335,657,69,0
-361,714,67,0
-408,777,51,0
-516,982,11,0
-533,1432,-8,0
-519,1417,-83,0
-476,1281,-57,0
-381,1329,28,0
-243,1179,66,0
-123,988,102,0
-50,947,51,0
-11,805,55,0
-73,590,89,0
-157,583,101,0
-224,633,111,0
-291,663,126,0
-355,748,186,0
-371,854,314,0
-394,723,328,0
-420,672,219,0
-497,826,168,0
-478,1100,226,0
-462,1274,179,0
-508,1177,64,0
-540,1101,-1,0
-486,1060,136,0
-447,920,97,0
-381,768,167,0
-350,655,157,0
-330,650,134,0
-327,612,166,0
-347,612,169,0
-386,668,132,0
-467,693,157,0
-533,726,185,0
-591,743,147,0
-673,896,118,0
-640,1193,117,0
-414,1343,130,0
-428,1264,90,0
-378,1548,148,0
-206,1222,165,0
-221,928,125,0
-217,926,117,0
-207,787,88,0
-236,657,73,0
-267,651,77,0
-297,651,73,0
-303,634,72,0
-300,639,68,0
-304,679,69,0
-312,724,85,0
-344,745,91,0
-441,843,119,0
-516,1126,110,0
-531,1318,29,0
-591,1469,-64,0
-551,1498,-85,0
-450,1061,-58,0
-427,837,-57,0
-411,897,-69,0
-350,843,-77,0
-290,708,-65,0
-277,639,-31,0
-283,607,-23,0
-310,617,-34,0
-328,692,-47,0
-350,755,-47,0
-398,946,-38,0
-368,1139,-10,0
-302,1213,21,0
-321,1330,27,0
-301,1411,67,0
-179,1238,159,0
-144,1017,206,0
-177,888,136,0
-160,847,70,0
-153,734,60,0
-175,644,32,0
-191,603,20,0
-198,601,30,0
-231,623,29,0
-273,723,62,0
-296,808,78,0
-382,919,72,0
-416,1148,86,0
-356,1262,62,0
-406,1309,4,0
-471,1383,-52,0
-411,1235,-78,0
-368,1077,-48,0
-341,1067,-25,0
-260,973,-6,0
-196,758,-8,0
-176,611,-2,0
-196,533,7,0
-242,489,-24,0
-313,568,-62,0
-324,755,-65,0
-316,968,-43,0
-318,1174,14,0
-297,1197,96,0
-333,1223,165,0
-434,1244,133,0
-191,1480,93,0
96,1408,192,0
76,1066,233,0
22,809,173,0
-28,586,131,0
-69,675,137,0
-115,739,196,0
-162,663,209,0
-216,616,178,0
-259,590,203,0
-316,595,217,0
-366,591,197,0
-390,766,200,0
-372,1243,284,0
-300,1383,320,0
-305,1420,274,0
-280,1384,245,0
-291,1260,183,0
-283,1049,153,0
-309,885,143,0
-313,867,126,0
-287,876,79,0
-260,793,65,0
-261,682,94,0
-269,589,88,0
-295,589,68,0
-339,664,64,0
-371,772,76,0
-384,855,93,0
-441,950,109,0
-478,1076,139,0
-397,1202,200,0
-324,1249,189,0
-249,1427,169,0
-75,1338,185,0
24,1184,237,0
-23,1006,168,0
-75,825,74,0
-128,745,63,0
-172,761,90,0
-187,715,108,0
-212,621,109,0
-228,596,120,0
-238,647,145,0
-256,706,149,0
-284,798,180,0
-325,970,198,0
-312,1217,227,0
-279,1351,236,0
-308,1424,168,0
-316,1406,133,0
-310,1132,109,0
-325,931,106,0
-349,913,56,0
-316,879,40,0
-325,831,52,0
-380,749,78,0
-410,698,144,0
-436,652,168,0
-476,653,143,0
-509,652,114,0
-542,745,95,0
-580,827,83,0
-596,971,122,0
-510,952,155,0
-446,926,151,0
-511,1001,141,0
-420,1137,155,0
-332,1196,243,0
-341,1034,309,0
-364,950,269,0
-427,821,220,0
-446,715,199,0
-463,678,210,0
-426,626,226,0
-382,514,220,0
-377,428,210,0
-357,365,230,0
-387,391,230,0
-499,509,208,0
-537,932,179,0
-526,1161,213,0
-659,1260,199,0
-631,1213,149,0
-576,1093,107,0
-593,1086,160,0
-618,1122,92,0
-544,888,21,0
-520,561,85,0
-444,367,139,0
-318,479,201,0
-171,570,226,0
-172,816,213,0
-189,921,304,0
-266,1007,348,0
-291,1198,287,0
-198,1249,449,0
-305,1073,444,0
-470,999,332,0
-383,1234,425,0
-213,1128,520,0
-193,790,367,0
-119,728,303,0
-176,770,282,0
-218,824,315,0
-226,769,351,0
-236,685,395,0
-292,613,405,0
-316,553,400,0
-315,567,348,0
-278,786,378,0
-297,930,480,0
-298,1107,512,0
-323,1118,460,0
-386,1086,351,0
-422,1134,335,0
-418,1090,339,0
-377,1038,328,0
-315,986,287,0
-202,933,218,0
-136,844,191,0
-160,731,181,0
-180,660,153,0
-199,614,111,0
-243,669,80,0
-269,765,68,0
-310,812,80,0
-358,915,117,0
-376,1062,209,0
-437,1107,254,0
-582,1227,224,0
-579,1589,414,0
-318,1536,620,0
-139,1234,558,0
-115,981,304,0
-121,743,149,0
-139,671,130,0
-138,652,155,0
-174,555,176,0
-237,491,210,0
-319,446,232,0
-412,453,250,0
-488,534,254,0
-531,670,243,0
-558,875,241,0
-579,1020,230,0
-657,1164,173,0
-645,1354,128,0
-521,1306,173,0
-570,1128,192,0
-579,1102,169,0
-486,975,157,0
-440,747,105,0
-403,670,81,0
-415,617,62,0
-444,543,33,0
-471,560,42,0
-496,535,86,0
-566,585,119,0
-638,737,130,0
-732,939,166,0
-737,1045,224,0
-739,1113,236,0
-752,1214,271,0
-583,1222,262,0
-375,1024,185,0
-345,857,160,0
-294,809,162,0
-272,729,237,0
-380,571,299,0
-436,474,370,0
-494,406,380,0
-538,436,382,0
-536,420,405,0
-541,423,390,0
-575,410,395,0
-634,437,395,0
-718,528,377,0
-756,635,391,0
-796,717,376,0
-884,753,365,0
-929,906,299,0
-919,1061,210,0
-768,959,150,0
-757,850,86,0
-772,881,42,0
-663,807,41,0
-591,682,72,0
-543,556,108,0
-501,442,138,0
-513,375,109,0
-555,439,121,0
-597,497,130,0
-653,519,148,0
-733,600,134,0
-854,810,147,0
-873,1009,223,0
-876,917,313,0
-920,956,130,0
-758,1364,113,0
-388,1077,175,0
-371,861,219,0
-422,961,160,0
-407,758,157,0
-475,627,162,0
-488,611,157,0
-476,512,175,0
-495,458,172,0
-507,467,212,0
-528,477,256,0
-568,481,268,0
-708,721,251,0
-733,847,269,0
-928,1011,149,0
-1007,1112,96,0
-817,932,61,0
-765,658,-37,0
-788,741,-104,0
-656,648,-85,0
-587,520,-46,0
-565,465,4,0
-554,392,40,0
-578,412,62,0
-636,460,83,0
-706,513,103,0
-780,604,116,0
-877,781,92,0
-887,955,150,0
-838,787,227,0
-916,912,200,0
-722,1068,220,0
-390,965,321,0
-399,861,287,0
-518,820,214,0
-571,729,214,0
-617,639,183,0
-548,527,206,0
-493,409,256,0
-492,361,230,0
-476,348,235,0
-508,424,228,0
-564,486,178,0
-662,784,131,0
-669,1089,183,0
-728,1115,147,0
-844,1163,74,0
-774,1069,95,0
-751,925,-2,0
-773,973,-100,0
-626,930,-124,0
-512,714,-84,0
-494,511,-100,0
-479,488,-80,0
-452,510,-32,0
-467,594,-24,0
-510,700,-21,0
-575,879,28,0
-572,1262,144,0
-500,1226,246,0
-585,1118,223,0
-623,1407,245,0
-283,1090,310,0
-268,918,355,0
-289,842,298,0
-264,772,188,0
-251,634,161,0
-279,625,195,0
-264,570,190,0
-284,506,176,0
-328,497,208,0
-400,516,243,0
-505,652,266,0
-614,1040,337,0
-629,1264,363,0
-702,1352,304,0
-703,1229,280,0
-615,1006,209,0
-611,987,119,0
-550,1005,86,0
-451,878,66,0
-409,651,57,0
-391,498,51,0
-363,400,63,0
-371,459,86,0
-416,530,101,0
-473,598,96,0
-612,746,104,0
-728,1084,163,0
-701,1155,282,0
-770,1148,277,0
-764,1317,200,0
-448,1370,254,0
-170,1148,365,0
-162,1055,251,0
-171,838,90,0
-225,597,106,0
-268,550,151,0
-288,511,159,0
-316,441,157,0
-361,423,160,0
-418,472,167,0
-484,535,164,0
-536,736,181,0
-604,1033,219,0
-636,1145,276,0
-632,1192,305,0
-657,1174,224,0
-628,1200,171,0
-550,1129,106,0
-533,1085,97,0
-508,1002,73,0
-447,854,40,0
-382,702,77,0
-332,542,94,0
-308,490,97,0
-261,441,74,0
-291,529,44,0
-360,688,24,0
-489,805,11,0
-634,1022,27,0
-672,1247,129,0
-681,1360,224,0
-611,1531,260,0
-332,1383,325,0
-103,1159,205,0
-87,976,176,0
-125,736,117,0
-163,553,51,0
-227,545,82,0
-261,525,129,0
-306,494,129,0
-370,488,161,0
-412,586,190,0
-462,718,212,0
-476,916,274,0
-509,1174,335,0
-494,1298,326,0
-505,1359,244,0
-483,1321,152,0
-485,1131,120,0
-471,1007,89,0
-441,963,47,0
-361,908,35,0
-298,771,54,0
-280,595,69,0
-270,533,68,0
-276,521,65,0
-324,562,65,0
-388,660,60,0
-441,781,69,0
-497,1012,124,0
-504,1240,197,0
-497,1251,221,0
-499,1369,245,0
-342,1363,262,0
-114,1176,304,0
-47,1004,321,0
-54,844,173,0
-107,653,104,0
-186,643,136,0
-232,646,159,0
-270,567,143,0
-321,566,147,0
-364,675,189,0
-384,764,200,0
-413,957,222,0
-415,1222,296,0
-442,1305,255,0
-471,1320,139,0
-481,1171,97,0
-467,946,91,0
-463,925,63,0
-415,933,9,0
-341,855,-8,0
-317,718,16,0
-316,580,31,0
-322,539,33,0
-346,575,27,0
-401,659,13,0
-434,822,27,0
-469,1022,63,0
-472,1228,105,0
-398,1318,170,0
-393,1320,155,0
