AccX [mg],AccY,AccZ,Ground Truth
816,117,300,0
784,146,289,0
788,86,276,0
770,26,279,0
819,48,304,0
938,79,311,0
1134,70,290,0
1259,66,279,0
1105,73,270,0
1075,224,201,0
1022,179,156,0
943,114,167,0
876,119,175,0
863,151,166,0
941,107,174,0
941,107,174,0
941,107,174,0
941,130,187,0
926,121,221,0
982,117,280,0
1042,72,336,0
971,35,351,0
1035,33,327,0
968,65,362,0
839,142,386,0
749,170,374,0
704,175,331,0
692,151,326,0
683,137,329,0
714,132,347,0
823,107,364,0
1005,44,347,0
1192,8,324,0
1340,48,344,0
1036,211,292,0
1036,211,292,0
1043,170,245,0
1041,98,272,0
1056,49,272,0
1004,42,255,0
944,41,232,0
877,21,210,0
813,33,201,0
745,63,231,0
735,91,245,0
879,71,247,0
928,22,261,0
1071,38,303,0
1178,4,388,0
903,-5,425,0
772,-65,333,0
938,-114,246,0
1039,-132,235,0
917,-8,317,0
706,167,370,0
706,167,370,0
724,164,335,0
758,131,363,0
735,109,386,0
856,115,398,0
1184,81,385,0
1382,15,300,0
1519,20,269,0
1064,135,314,0
838,239,216,0
956,179,143,0
1115,72,161,0
1032,49,155,0
916,105,151,0
883,162,125,0
933,125,113,0
1000,60,122,0
950,66,134,0
975,111,159,0
979,80,220,0
979,80,220,0
940,26,285,0
840,24,378,0
813,-2,396,0
907,-40,338,0
1012,-74,268,0
996,-62,372,0
910,-33,430,0
923,135,426,0
938,191,373,0
875,46,411,0
794,29,432,0
746,75,442,0
780,69,450,0
864,23,455,0
929,7,440,0
954,5,400,0
937,-52,361,0
918,-28,343,0
1039,133,371,0
1039,133,371,0
1180,176,413,0
1053,87,328,0
877,-243,193,0
1036,-57,164,0
1138,28,168,0
1145,88,196,0
998,102,228,0
866,120,207,0
798,140,167,0
773,107,171,0
767,72,186,0
752,52,203,0
749,51,212,0
849,68,226,0
988,67,227,0
1083,73,280,0
1292,41,417,0
917,621,1278,0
917,621,1278,0
990,617,1188,0
1260,480,1007,0
1441,379,785,0
1463,356,560,0
1308,246,419,0
1031,123,306,0
765,64,260,0
554,-12,292,0
308,-101,376,0
77,-177,436,0
30,-151,696,0
24,-278,876,0
-34,-338,897,0
-178,-250,977,0
-216,-257,1135,0
-150,-171,1013,0
-140,-67,939,0
4,-136,905,0
4,-136,905,0
75,-146,753,0
88,-249,636,0
116,-295,487,0
249,-161,388,0
426,-90,378,0
630,-55,378,0
956,-10,322,0
1433,-29,282,0
1792,21,212,0
1948,135,278,0
1877,231,383,0
1627,254,377,0
1082,144,412,0
823,142,408,0
948,157,385,0
1040,183,420,0
980,149,489,0
893,169,472,0
938,16,479,0
938,16,479,0
938,16,479,0
948,-63,443,0
1008,50,425,0
1270,187,321,0
1358,350,179,0
1313,436,83,0
1345,570,-52,0
1191,612,18,0
1042,736,-70,0
976,557,7,0
891,367,213,0
784,267,271,0
730,295,338,0
707,197,485,0
648,115,543,0
594,-47,516,0
539,241,665,0
491,272,720,0
540,236,831,0
560,245,874,0
578,278,898,0
719,340,960,0
714,402,761,0
558,264,716,0
386,-22,805,0
518,143,816,0
498,138,832,0
477,149,860,0
376,169,843,0
389,194,816,0
360,113,784,0
445,181,793,0
432,149,794,0
464,256,850,0
548,336,925,0
547,313,890,0
480,246,894,0
425,271,928,0
365,250,930,0
405,332,932,0
402,371,880,0
326,298,828,0
352,204,780,0
452,183,774,0
518,275,795,0
557,223,691,0
518,149,533,0
477,169,414,0
475,224,320,0
581,278,279,0
826,312,272,0
1157,371,243,0
1547,428,151,0
1634,475,105,0
1354,452,184,0
1293,393,152,0
1198,417,88,0
954,312,156,0
768,205,228,0
718,141,201,0
789,119,154,0
892,104,156,0
929,118,216,0
898,184,280,0
859,239,342,0
827,247,410,0
778,190,418,0
764,159,411,0
813,128,401,0
909,151,417,0
1098,206,438,0
1144,205,417,0
971,168,323,0
894,141,271,0
961,141,252,0
1037,144,233,0
975,160,234,0
872,212,234,0
877,247,220,0
927,219,201,0
951,168,205,0
944,153,214,0
930,166,205,0
933,160,205,0
908,154,204,0
894,178,212,0
933,174,206,0
925,169,216,0
914,160,231,0
897,193,228,0
903,223,244,0
919,250,251,0
939,256,240,0
984,245,249,0
1002,233,241,0
990,219,242,0
968,219,241,0
945,214,232,0
922,200,225,0
917,198,210,0
926,197,200,0
918,201,196,0
920,211,184,0
938,225,179,0
954,230,170,0
962,238,167,0
949,250,171,0
924,256,181,0
934,260,177,0
980,256,172,0
934,259,167,0
968,253,169,0
1005,234,168,0
965,197,170,0
905,220,187,0
884,215,218,0
916,172,237,0
949,149,246,0
955,175,240,0
966,200,236,0
966,157,231,0
949,167,217,0
929,195,203,0
922,206,202,0
904,206,201,0
905,216,203,0
918,229,220,0
922,232,238,0
934,266,262,0
945,263,288,0
950,234,307,0
950,202,302,0
957,193,232,0
950,172,210,0
941,148,205,0
930,141,219,0
918,154,234,0
914,158,232,0
926,148,227,0
933,141,233,0
935,141,226,0
928,140,217,0
926,140,214,0
924,148,220,0
917,154,226,0
922,152,231,0
923,150,237,0
927,151,243,0
938,152,246,0
945,154,267,0
956,187,295,0
943,219,290,0
937,216,272,0
942,191,253,0
944,177,231,0
947,162,208,0
940,153,210,0
933,148,227,0
932,114,263,0
930,116,301,0
928,169,315,0
928,208,301,0
928,206,284,0
922,195,268,0
925,194,271,0
929,193,281,0
929,201,285,0
930,204,325,0
941,227,404,0
974,339,505,0
1030,500,596,0
1050,620,694,0
1003,496,742,0
920,351,574,0
852,39,501,0
751,-73,497,0
662,-61,491,0
586,-83,466,0
549,-98,488,0
538,-120,544,0
578,-132,632,0
616,-107,725,0
663,-94,793,0
625,-78,785,0
559,-75,771,0
501,-55,767,0
463,-85,743,0
457,-119,726,0
475,-67,674,0
497,37,623,0
458,86,523,0
452,96,431,0
540,175,403,0
759,284,459,0
1069,353,545,0
1312,342,566,0
1296,178,449,0
1277,-188,722,0
1068,1026,665,0
985,411,442,0
879,299,290,0
818,196,213,0
841,205,204,0
892,272,217,0
936,315,242,0
942,298,247,0
934,258,247,0
934,212,274,0
942,87,350,0
950,75,348,0
958,123,373,0
943,62,348,0
956,96,312,0
942,35,315,0
926,24,302,0
924,49,281,0
910,120,271,0
893,132,266,0
883,130,262,0
877,131,263,0
889,177,292,0
907,180,318,0
907,185,299,0
905,210,281,0
913,253,280,0
914,240,281,0
944,246,297,0
967,247,286,0
958,196,302,0
941,216,300,0
925,159,299,0
930,115,307,0
953,84,301,0
964,106,274,0
959,70,252,0
956,98,235,0
937,136,228,0
893,182,236,0
834,195,228,0
813,211,217,0
904,222,198,0
1013,261,186,0
1050,307,166,0
1017,316,166,0
946,321,190,0
898,301,190,0
907,266,187,0
909,242,190,0
893,251,197,0
889,274,203,0
908,291,210,0
917,294,218,0
937,297,230,0
947,298,235,0
935,276,238,0
926,270,249,0
937,290,253,0
971,297,257,0
931,270,265,0
881,266,244,0
904,260,231,0
920,246,215,0
897,234,191,0
913,255,171,0
970,281,161,0
1010,318,172,0
961,205,214,0
897,253,273,0
820,266,308,0
792,238,287,0
802,218,276,0
989,281,270,0
958,212,313,0
947,276,401,0
869,251,340,0
895,322,223,0
900,286,192,0
862,266,191,0
840,314,205,0
873,345,210,0
914,354,199,0
914,344,196,0
938,351,186,0
956,347,186,0
933,332,191,0
920,322,193,0
892,306,200,0
867,285,203,0
869,286,207,0
887,291,216,0
897,282,209,0
906,287,218,0
922,300,224,0
917,290,240,0
923,284,257,0
957,272,264,0
1020,269,261,0
1119,288,273,0
1011,274,291,0
843,263,299,0
840,228,284,0
907,194,245,0
919,156,230,0
888,192,214,0
899,244,196,0
949,238,194,0
965,217,199,0
938,222,208,0
864,246,249,0
809,256,270,0
812,239,281,0
828,217,292,0
825,232,302,0
847,243,354,0
877,196,369,0
926,180,449,0
926,155,399,0
1106,269,294,0
1018,349,254,0
772,269,196,0
775,222,182,0
883,381,150,0
1005,422,124,0
1084,341,146,0
1081,302,163,0
1004,218,173,0
896,172,197,0
847,208,216,0
847,238,222,0
877,239,210,0
943,219,196,0
993,231,194,0
979,260,195,0
967,277,192,0
971,279,201,0
979,258,210,0
971,226,220,0
951,204,215,0
934,187,208,0
922,174,199,0
914,186,185,0
916,207,174,0
898,236,182,0
873,269,180,0
891,295,185,0
890,282,192,0
907,242,217,0
924,219,266,0
936,197,376,0
933,198,395,0
917,226,393,0
916,278,376,0
922,292,327,0
922,253,283,0
909,195,245,0
908,187,221,0
917,170,225,0
938,160,240,0
951,156,246,0
964,151,261,0
953,127,263,0
944,109,270,0
917,129,273,0
892,155,287,0
889,185,313,0
882,203,314,0
871,236,317,0
866,273,325,0
843,280,318,0
837,251,322,0
860,268,318,0
943,304,332,0
927,251,334,0
930,306,310,0
932,351,288,0
942,292,242,0
912,229,226,0
891,266,232,0
925,322,200,0
949,314,186,0
904,281,193,0
866,308,188,0
888,340,190,0
915,330,208,0
922,323,208,0
900,329,224,0
874,329,237,0
860,319,248,0
870,308,259,0
895,316,263,0
926,310,275,0
972,318,254,0
1055,321,260,0
961,297,263,0
893,268,245,0
899,221,218,0
908,168,187,0
955,171,153,0
1000,225,147,0
975,240,161,0
884,215,168,0
858,205,169,0
882,202,177,0
900,202,181,0
918,205,193,0
956,186,209,0
970,221,292,0
930,132,301,0
936,112,271,0
955,212,257,0
926,174,255,0
878,140,232,0
887,193,203,0
913,247,177,0
943,226,181,0
983,268,187,0
971,307,201,0
933,338,203,0
880,338,208,0
874,304,210,0
875,269,212,0
899,265,210,0
918,264,204,0
901,264,206,0
918,273,225,0
955,248,219,0
1122,226,243,0
1047,236,279,0
928,283,312,0
840,222,329,0
800,144,272,0
892,103,244,0
994,109,315,0
1009,151,298,0
938,241,276,0
852,235,255,0
843,161,246,0
870,99,261,0
874,96,281,0
880,142,305,0
884,163,304,0
895,153,285,0
963,162,269,0
1025,188,275,0
916,191,297,0
883,231,255,0
906,232,227,0
881,244,206,0
1012,155,122,0
940,354,159,0
948,388,297,0
918,302,205,0
901,105,188,0
988,38,204,0
1002,133,171,0
936,240,156,0
879,270,177,0
854,282,227,0
892,265,214,0
955,224,203,0
1011,175,208,0
1096,152,220,0
1109,177,221,0
967,183,247,0
912,165,231,0
1002,151,193,0
1065,166,181,0
1000,196,191,0
861,214,233,0
761,225,231,0
760,203,207,0
840,193,186,0
904,207,204,0
936,234,223,0
945,253,217,0
965,269,187,0
973,235,201,0
834,221,204,0
873,235,188,0
1034,239,162,0
1093,228,180,0
1023,232,195,0
940,260,224,0
889,253,231,0
903,200,223,0
929,150,221,0
911,163,218,0
917,207,214,0
934,221,207,0
946,236,201,0
934,229,215,0
927,220,232,0
919,204,257,0
1002,201,240,0
1008,194,297,0
892,208,321,0
871,192,305,0
897,161,267,0
948,158,253,0
964,187,251,0
950,239,246,0
864,260,241,0
837,254,214,0
828,227,214,0
866,212,213,0
914,198,208,0
955,189,210,0
1012,183,201,0
1016,180,201,0
963,177,202,0
960,156,183,0
962,134,170,0
971,125,150,0
960,147,152,0
993,190,128,0
950,208,87,0
925,218,66,0
892,242,73,0
895,292,90,0
900,302,80,0
969,254,83,0
1119,193,57,0
1103,187,47,0
1025,235,101,0
952,289,158,0
940,266,168,0
907,196,181,0
904,119,209,0
935,70,230,0
951,88,231,0
966,127,246,0
949,146,254,0
884,170,266,0
850,207,305,0
842,210,310,0
858,205,290,0
869,201,289,0
898,187,307,0
927,193,326,0
952,174,307,0
937,141,310,0
909,108,308,0
900,126,313,0
871,110,316,0
899,97,293,0
1002,161,266,0
986,222,264,0
953,340,181,0
912,416,140,0
901,463,153,0
932,496,146,0
930,479,135,0
895,439,152,0
849,411,188,0
826,417,213,0
833,395,240,0
844,369,261,0
837,348,296,0
825,339,301,0
831,329,304,0
862,310,296,0
952,326,281,0
1200,376,285,0
951,325,385,0
732,290,343,0
866,290,275,0
1022,272,239,0
974,246,278,0
824,307,322,0
728,383,297,0
715,374,259,0
730,271,257,0
717,256,271,0
763,341,278,0
890,397,286,0
900,403,280,0
936,418,245,0
1076,484,245,0
1092,518,262,0
971,494,174,0
968,439,158,0
865,442,176,0
756,463,176,0
741,458,157,0
787,452,145,0
856,417,148,0
899,401,171,0
914,425,183,0
983,445,191,0
1046,409,241,0
1043,343,271,0
970,340,318,0
894,334,315,0
800,289,311,0
688,267,306,0
654,316,338,0
678,341,368,0
739,412,369,0
785,423,344,0
860,415,388,0
884,364,384,0
966,385,451,0
938,352,477,0
854,353,408,0
889,401,488,0
911,488,484,0
888,537,484,0
786,560,502,0
630,596,496,0
510,595,501,0
428,590,490,0
437,643,510,0
419,653,532,0
431,693,554,0
452,748,570,0
415,655,532,0
317,566,501,0
307,568,521,0
320,567,512,0
372,613,552,0
453,673,606,0
446,626,601,0
417,578,621,0
427,590,632,0
444,555,617,0
481,527,626,0
520,553,630,0
543,551,631,0
564,521,631,0
568,485,627,0
575,476,634,0
589,484,632,0
613,497,633,0
615,502,624,0
621,525,622,0
596,511,593,0
556,462,566,0
548,467,593,0
585,507,598,0
618,526,590,0
612,570,587,0
633,612,576,0
699,592,579,0
723,538,548,0
720,518,540,0
693,506,528,0
664,465,520,0
651,444,519,0
639,437,523,0
659,447,535,0
726,464,577,0
753,463,577,0
798,456,597,0
772,437,583,0
754,416,551,0
738,381,549,0
690,320,496,0
686,301,479,0
749,327,489,0
809,356,510,0
820,375,517,0
778,358,514,0
746,322,506,0
722,276,497,0
705,282,492,0
693,302,480,0
697,299,458,0
755,292,433,0
835,264,407,0
934,254,388,0
1016,262,387,0
1043,261,362,0
1016,254,350,0
980,217,359,0
883,146,352,0
847,185,334,0
875,238,345,0
902,250,328,0
916,276,318,0
883,322,322,0
824,336,324,0
799,322,327,0
806,294,320,0
830,275,325,0
827,273,327,0
842,305,328,0
916,312,346,0
972,291,343,0
1089,305,345,0
1094,282,350,0
935,277,348,0
836,242,340,0
810,162,279,0
932,144,240,0
1083,78,240,0
1054,215,227,0
893,288,254,0
738,306,305,0
727,217,311,0
759,169,317,0
738,196,331,0
759,291,346,0
830,323,384,0
867,288,377,0
1016,296,352,0
849,286,348,0
670,327,292,0
897,424,323,0
1104,466,328,0
1166,441,262,0
1025,329,275,0
852,320,284,0
775,289,257,0
812,245,242,0
884,205,231,0
911,229,203,0
889,296,181,0
850,344,196,0
842,386,219,0
953,407,244,0
992,403,265,0
1015,386,239,0
1026,365,240,0
1026,380,233,0
882,374,271,0
760,371,285,0
766,336,303,0
807,285,300,0
885,233,278,0
1011,237,340,0
975,298,373,0
840,347,392,0
716,344,403,0
693,307,380,0
734,308,358,0
790,321,354,0
777,341,340,0
860,382,335,0
976,338,309,0
969,410,315,0
905,532,224,0
1000,298,157,0
953,49,153,0
1019,443,266,0
1030,619,228,0
969,410,170,0
856,208,179,0
774,215,172,0
757,320,173,0
793,372,189,0
802,342,210,0
776,319,219,0
779,339,238,0
860,347,271,0
966,329,291,0
1061,326,305,0
1143,360,343,0
1043,361,394,0
832,334,408,0
742,245,365,0
804,201,282,0
986,222,273,0
1098,287,282,0
1000,337,266,0
836,399,291,0
746,346,283,0
737,275,293,0
770,235,312,0
802,227,339,0
808,246,363,0
792,244,380,0
820,246,406,0
899,238,415,0
899,209,380,0
848,242,352,0
822,335,356,0
853,478,332,0
916,574,383,0
828,550,340,0
902,475,261,0
1101,444,260,0
1171,404,230,0
1043,330,207,0
915,293,201,0
869,258,190,0
863,225,200,0
847,190,231,0
770,179,246,0
761,213,257,0
830,231,313,0
818,237,354,0
948,242,378,0
1092,249,396,0
1058,247,414,0
903,230,400,0
895,240,353,0
974,228,326,0
927,260,317,0
769,363,323,0
665,422,353,0
633,413,351,0
643,363,370,0
637,368,383,0
624,400,420,0
728,425,432,0
901,413,446,0
950,363,447,0
935,356,423,0
1100,432,387,0
1110,429,356,0
891,416,272,0
981,376,212,0
1021,310,214,0
882,224,195,0
801,197,153,0
803,218,185,0
845,263,188,0
896,232,152,0
897,212,173,0
909,279,180,0
954,283,193,0
949,255,223,0
1014,249,251,0
1042,245,276,0
1061,224,305,0
1032,192,326,0
1023,162,316,0
929,152,341,0
745,188,379,0
704,234,431,0
761,221,434,0
844,174,411,0
902,142,444,0
893,129,494,0
832,25,489,0
771,-140,479,0
726,-253,454,0
781,-255,399,0
870,-220,370,0
854,-120,358,0
858,39,321,0
834,142,315,0
920,156,276,0
1064,182,150,0
1275,226,167,0
1258,395,115,0
1270,447,134,0
1140,347,200,0
1030,343,260,0
982,377,384,0
941,339,434,0
915,271,471,0
829,217,495,0
785,234,515,0
784,229,486,0
822,205,435,0
871,155,408,0
852,101,356,0
791,43,273,0
685,5,231,0
622,16,164,0
680,52,109,0
811,98,41,0
991,195,-26,0
1097,221,42,0
1346,276,221,0
1505,227,219,0
1344,203,36,0
1003,93,93,0
798,52,331,0
676,173,400,0
576,256,332,0
588,204,361,0
603,105,433,0
654,87,451,0
865,86,441,0
1133,24,336,0
1121,-3,172,0
1352,131,254,0
1860,350,204,0
1681,463,18,0
1433,269,-28,0
1243,154,84,0
1040,203,64,0
926,198,-5,0
833,174,-44,0
754,102,-16,0
664,106,51,0
691,198,124,0
805,313,324,0
944,685,469,0
1056,1152,510,0
565,1224,624,0
477,1280,564,0
473,1111,443,0
317,827,229,0
128,669,161,0
87,598,26,0
243,613,45,0
349,684,-122,0
263,796,-306,0
123,859,-242,0
154,920,-104,0
475,887,1933,0
-271,636,1054,0
-577,1042,52,0
-508,1065,-79,0
-265,770,86,0
3,932,285,0
47,1141,272,0
-32,962,212,0
-89,849,246,0
-91,887,375,0
-92,871,430,0
-103,824,399,0
-106,831,336,0
-91,884,264,0
-73,820,283,0
-195,842,248,0
-201,791,341,0
-69,712,480,0
132,734,549,0
179,586,479,0
225,522,423,0
332,512,360,0
495,570,329,0
629,602,314,0
814,720,235,0
906,675,115,0
997,689,65,0
1111,795,174,0
1123,625,215,0
1153,387,253,0
1224,130,399,0
1170,-80,454,0
1096,-96,429,0
1058,-49,437,0
986,2,455,0
975,-98,277,0
963,-272,145,0
1070,-227,112,0
1132,39,80,0
1100,289,24,0
1003,466,-5,0
937,468,32,0
915,346,31,0
878,280,57,0
890,275,87,0
887,293,108,0
885,328,144,0
926,356,169,0
940,362,207,0
927,389,240,0
927,367,312,0
877,368,339,0
829,394,369,0
802,396,378,0
727,387,345,0
756,438,328,0
830,490,314,0
837,531,300,0
782,556,289,0
743,547,278,0
688,487,255,0
627,421,240,0
632,410,239,0
728,447,254,0
915,517,293,0
1004,516,279,0
968,491,293,0
853,453,344,0
728,467,342,0
679,451,335,0
708,462,344,0
752,446,331,0
820,448,320,0
915,468,285,0
955,469,217,0
936,467,189,0
936,458,181,0
906,426,152,0
873,410,140,0
869,387,137,0
869,371,137,0
870,354,135,0
873,334,154,0
970,304,167,0
1057,278,186,0
1172,243,198,0
1112,213,272,0
860,191,386,0
768,165,417,0
827,65,338,0
904,-32,269,0
934,-56,298,0
915,41,364,0
877,140,371,0
832,165,338,0
809,106,353,0
829,149,363,0
844,127,349,0
877,114,385,0
943,153,386,0
981,124,341,0
988,67,310,0
1020,86,295,0
974,106,255,0
903,148,228,0
957,176,207,0
1048,187,171,0
1074,207,147,0
1080,219,160,0
1013,215,170,0
904,171,152,0
891,177,157,0
919,210,169,0
927,264,198,0
941,299,229,0
935,310,260,0
880,310,284,0
860,300,308,0
896,283,312,0
925,257,279,0
936,255,280,0
928,273,303,0
868,284,327,0
858,268,345,0
871,236,350,0
891,210,350,0
884,205,370,0
877,227,381,0
883,229,378,0
889,205,390,0
882,183,391,0
859,183,409,0
817,182,437,0
791,186,456,0
795,195,464,0
793,222,496,0
779,255,518,0
751,277,527,0
736,285,511,0
731,295,497,0
724,311,479,0
745,327,455,0
839,341,430,0
936,337,407,0
919,325,381,0
884,322,348,0
905,315,324,0
923,275,291,0
960,263,284,0
1050,276,269,0
1103,245,234,0
1064,204,204,0
1006,204,184,0
973,213,157,0
955,216,132,0
929,231,121,0
903,249,114,0
900,260,113,0
931,260,110,0
999,240,107,0
958,236,127,0
958,231,170,0
969,205,214,0
953,165,229,0
908,128,253,0
844,121,311,0
887,139,328,0
939,114,314,0
898,89,290,0
873,134,306,0
891,171,336,0
905,248,353,0
894,315,332,0
878,216,335,0
906,208,350,0
932,205,361,0
922,192,358,0
898,170,353,0
935,182,340,0
947,169,307,0
986,178,271,0
1055,192,259,0
995,222,210,0
1004,251,179,0
1021,261,168,0
1035,251,156,0
1034,248,138,0
1031,242,123,0
982,234,106,0
978,234,110,0
968,233,117,0
890,231,123,0
833,228,128,0
834,224,145,0
832,222,155,0
862,211,163,0
901,205,177,0
938,205,187,0
967,211,203,0
976,220,230,0
992,217,258,0
1019,189,263,0
1056,169,257,0
1052,159,259,0
1025,186,269,0
961,208,277,0
880,218,276,0
873,205,267,0
899,166,254,0
883,156,239,0
871,173,241,0
888,180,240,0
940,162,248,0
969,145,268,0
944,131,332,0
885,145,382,0
822,160,467,0
799,261,453,0
841,259,398,0
907,224,345,0
934,174,305,0
922,182,290,0
893,178,270,0
870,133,258,0
869,196,244,0
872,230,246,0
900,249,247,0
929,281,262,0
943,310,275,0
990,289,292,0
1000,264,277,0
1067,207,233,0
1057,163,185,0
1039,176,184,0
1089,211,188,0
1095,233,153,0
1085,213,129,0
1035,186,118,0
871,202,117,0
774,230,127,0
735,237,131,0
771,215,141,0
816,185,140,0
871,184,148,0
905,208,168,0
938,240,181,0
1003,238,198,0
1083,237,222,0
1167,226,260,0
1200,206,262,0
1184,189,247,0
1130,210,259,0
1013,252,305,0
854,219,326,0
756,153,302,0
822,99,244,0
1074,55,236,0
1240,47,236,0
1143,110,288,0
998,166,337,0
900,154,327,0
816,96,294,0
734,22,282,0
651,-11,280,0
600,31,285,0
663,91,296,0
820,125,293,0
1014,141,261,0
1155,215,248,0
1369,476,303,0
1195,535,273,0
940,384,224,0
962,320,291,0
978,297,309,0
941,249,265,0
877,178,252,0
856,198,248,0
862,233,221,0
868,243,222,0
863,231,227,0
849,208,205,0
846,204,185,0
883,211,183,0
947,224,178,0
1026,240,177,0
1191,254,187,0
1333,258,212,0
959,232,334,0
668,185,407,0
765,119,309,0
1062,6,167,0
1083,-47,177,0
948,56,324,0
804,187,447,0
707,228,396,0
693,146,317,0
729,11,319,0
729,44,332,0
770,92,355,0
879,158,386,0
995,201,386,0
966,163,328,0
1014,167,269,0
1183,242,287,0
1126,319,317,0
978,352,288,0
1065,259,246,0
1269,114,190,0
1266,75,177,0
1120,91,189,0
975,149,193,0
887,173,178,0
796,168,155,0
738,157,151,0
678,162,147,0
651,190,151,0
704,206,165,0
780,214,191,0
869,225,225,0
1034,218,238,0
1207,186,224,0
1453,179,175,0
1502,209,228,0
959,277,329,0
669,259,308,0
762,186,199,0
1019,120,84,0
1120,132,99,0
919,254,238,0
755,366,345,0
724,365,320,0
806,236,297,0
880,35,328,0
864,-153,408,0
906,39,427,0
992,-30,494,0
991,-25,446,0
903,144,264,0
869,196,242,0
961,214,236,0
1158,317,285,0
1023,364,331,0
1056,329,231,0
1246,204,151,0
1349,94,125,0
1256,45,149,0
1055,95,172,0
921,150,168,0
814,173,145,0
731,173,131,0
679,162,126,0
610,183,117,0
602,215,121,0
666,230,154,0
762,256,194,0
901,281,229,0
1107,287,276,0
1249,244,263,0
1313,178,218,0
1340,183,233,0
1450,244,196,0
988,302,252,0
691,316,285,0
677,348,269,0
890,283,197,0
1139,148,164,0
1112,180,167,0
918,302,280,0
836,389,320,0
892,303,279,0
955,-212,368,0
876,-197,281,0
920,-274,321,0
990,-203,291,0
1016,90,236,0
920,381,158,0
875,343,140,0
965,205,156,0
986,215,188,0
858,314,201,0
891,382,186,0
995,322,170,0
1087,200,150,0
1179,133,167,0
1177,141,166,0
1040,158,165,0
878,175,179,0
797,196,181,0
797,184,169,0
818,166,160,0
834,169,170,0
887,189,170,0
933,210,155,0
944,225,147,0
937,252,174,0
973,282,204,0
994,257,197,0
1066,213,191,0
1069,205,216,0
930,243,248,0
909,245,251,0
943,202,233,0
928,151,211,0
922,132,229,0
1088,-21,313,0
1059,-49,368,0
929,-39,334,0
848,122,293,0
845,151,231,0
871,175,180,0
876,164,158,0
865,142,171,0
861,185,191,0
856,194,213,0
899,197,223,0
905,193,205,0
914,199,199,0
938,231,225,0
897,258,239,0
1017,273,250,0
1135,250,300,0
1001,221,327,0
1008,221,261,0
1138,78,169,0
1228,45,95,0
1209,124,95,0
1123,207,97,0
1001,236,90,0
910,246,81,0
852,237,63,0
780,220,50,0
731,216,51,0
733,235,55,0
785,261,64,0
830,301,100,0
906,347,149,0
1014,378,164,0
1080,376,146,0
1127,338,135,0
1185,326,187,0
1203,346,202,0
978,345,227,0
784,319,266,0
777,280,266,0
850,233,184,0
955,193,141,0
964,204,144,0
923,271,170,0
940,295,221,0
991,264,239,0
1022,204,251,0
946,127,280,0
841,90,377,0
780,181,446,0
790,313,352,0
844,319,275,0
895,267,255,0
894,242,246,0
915,202,285,0
900,257,304,0
878,252,318,0
863,202,314,0
868,155,289,0
967,156,259,0
1138,211,263,0
1169,238,275,0
986,228,287,0
929,180,280,0
991,138,247,0
1103,102,197,0
1083,109,186,0
1015,145,180,0
899,177,183,0
842,197,177,0
797,215,162,0
774,190,155,0
781,167,158,0
873,171,162,0
947,178,163,0
1042,211,162,0
1276,221,163,0
1085,228,249,0
957,228,361,0
946,159,366,0
875,66,224,0
915,28,166,0
1008,103,214,0
985,221,310,0
843,260,398,0
776,243,365,0
838,176,330,0
896,42,301,0
959,42,347,0
959,117,413,0
921,113,394,0
864,128,302,0
857,96,254,0
913,119,242,0
955,178,238,0
889,232,272,0
860,282,276,0
933,297,273,0
993,244,273,0
954,213,275,0
905,243,266,0
934,281,259,0
977,255,225,0
1016,240,190,0
1062,264,189,0
1047,266,164,0
984,234,145,0
921,221,144,0
877,233,141,0
846,227,145,0
837,212,162,0
838,199,191,0
1139,173,173,0
551,192,304,0
1021,312,328,0
1116,210,353,0
1195,159,333,0
1107,49,326,0
959,195,347,0
885,210,267,0
809,165,253,0
803,129,191,0
929,130,138,0
1031,189,115,0
982,241,153,0
832,276,209,0
760,287,213,0
772,215,206,0
771,148,207,0
765,128,234,0
851,167,279,0
971,176,279,0
1273,195,248,0
1114,166,188,0
962,226,130,0
1035,232,112,0
1079,239,103,0
1054,179,86,0
975,144,64,0
933,134,36,0
937,43,22,0
930,15,26,0
926,129,38,0
946,246,33,0
957,326,17,0
971,305,36,0
956,251,79,0
949,232,109,0
960,245,110,0
992,270,96,0
1013,263,110,0
958,264,151,0
916,239,183,0
923,182,185,0
956,136,155,0
961,158,158,0
927,248,167,0
875,291,171,0
884,243,165,0
911,172,163,0
928,126,190,0
939,167,305,0
905,166,365,0
840,220,358,0
818,287,310,0
832,323,264,0
833,325,263,0
842,322,262,0
838,350,249,0
848,371,261,0
932,292,270,0
1124,265,293,0
1157,230,243,0
994,174,167,0
928,99,104,0
921,104,103,0
923,266,92,0
927,32,49,0
937,262,130,0
934,246,128,0
933,252,106,0
964,220,97,0
1014,219,101,0
1035,230,91,0
1001,223,88,0
939,222,104,0
895,222,102,0
898,212,114,0
910,202,125,0
923,210,134,0
964,221,149,0
1001,225,171,0
1031,216,196,0
1075,193,193,0
1176,170,168,0
1018,153,190,0
803,194,215,0
830,225,234,0
871,213,212,0
908,196,197,0
916,217,229,0
838,247,241,0
806,236,225,0
840,208,222,0
919,190,248,0
949,195,279,0
934,212,309,0
889,201,349,0
854,173,365,0
844,128,346,0
868,109,292,0
970,159,270,0
1107,229,257,0
1096,273,249,0
1032,289,186,0
1021,249,127,0
1035,217,88,0
1106,207,64,0
1166,176,29,0
1084,19,-50,0
910,-50,-84,0
807,34,-17,0
814,121,32,0
900,133,35,0
984,115,54,0
971,127,81,0
960,182,103,0
963,239,99,0
966,272,100,0
1022,280,85,0
1196,316,54,0
1220,323,89,0
923,300,231,0
810,262,315,0
821,179,245,0
884,-2,118,0
1008,-245,172,0
1135,-164,294,0
1056,-73,300,0
906,-76,324,0
803,47,285,0
786,172,229,0
856,191,225,0
893,238,203,0
888,274,222,0
906,282,259,0
972,222,346,0
1031,175,376,0
1050,210,366,0
1117,236,311,0
1200,199,226,0
1134,101,145,0
938,16,143,0
862,123,132,0
938,233,90,0
1053,278,48,0
1040,254,33,0
1008,226,52,0
963,231,56,0
899,253,75,0
900,232,95,0
878,207,110,0
863,178,146,0
873,164,188,0
904,165,228,0
920,185,280,0
934,179,301,0
980,188,331,0
872,220,427,0
817,218,457,0
884,246,392,0
902,143,387,0
889,119,374,0
972,248,380,0
1026,399,360,0
986,430,297,0
888,354,268,0
827,274,238,0
826,261,221,0
865,276,212,0
899,236,207,0
930,280,193,0
978,261,186,0
982,229,170,0
965,186,158,0
929,176,149,0
946,200,140,0
975,198,155,0
921,202,158,0
921,205,140,0
914,186,129,0
898,184,128,0
973,223,130,0
1094,238,108,0
1011,218,97,0
876,256,162,0
865,290,229,0
911,254,249,0
936,192,266,0
927,128,268,0
909,101,250,0
901,135,233,0
923,191,248,0
988,223,256,0
1060,224,257,0
1126,192,229,0
1151,212,205,0
1079,230,246,0
892,222,289,0
710,202,284,0
668,188,244,0
805,157,227,0
1025,129,248,0
1097,142,282,0
999,196,310,0
898,193,350,0
857,136,348,0
817,59,324,0
791,21,304,0
764,66,307,0
717,145,307,0
765,207,329,0
861,225,355,0
953,180,353,0
1036,112,335,0
1118,65,319,0
1163,96,325,0
967,162,325,0
902,239,290,0
914,261,315,0
905,242,293,0
914,228,230,0
990,328,164,0
1102,416,96,0
1175,312,83,0
1072,-20,129,0
890,-87,148,0
794,21,143,0
795,76,175,0
815,85,133,0
896,116,67,0
981,106,117,0
987,244,27,0
972,381,54,0
976,436,164,0
971,423,249,0
959,330,249,0
959,231,201,0
1019,117,187,0
955,60,206,0
844,105,218,0
830,178,227,0
910,234,226,0
1010,239,243,0
986,210,276,0
934,211,280,0
967,208,292,0
997,180,317,0
995,82,358,0
923,87,390,0
865,159,386,0
875,190,379,0
904,196,346,0
916,152,305,0
905,80,292,0
874,140,282,0
861,178,275,0
866,161,243,0
849,160,215,0
891,199,205,0
988,266,211,0
1034,321,213,0
1016,338,208,0
1076,293,202,0
1020,198,173,0
1015,146,173,0
1120,142,175,0
1150,153,138,0
1094,135,104,0
930,156,96,0
815,216,120,0
775,264,140,0
775,243,134,0
786,186,132,0
792,149,133,0
823,156,149,0
885,202,166,0
969,216,164,0
1134,231,154,0
1257,251,159,0
1517,293,114,0
1238,304,207,0
740,317,322,0
608,275,278,0
760,194,167,0
1004,99,95,0
1096,99,170,0
918,226,335,0
782,324,379,0
771,299,354,0
848,180,359,0
889,-58,375,0
868,-40,295,0
858,-162,296,0
894,-101,290,0
976,150,284,0
998,392,191,0
1060,347,165,0
1370,280,212,0
1222,284,223,0
865,305,139,0
921,267,117,0
1032,269,142,0
1100,228,107,0
1054,175,103,0
933,179,102,0
831,237,60,0
742,322,98,0
707,413,215,0
633,444,332,0
589,451,397,0
686,473,384,0
785,488,419,0
803,459,378,0
857,447,426,0
1072,342,306,0
1272,32,143,0
1159,-43,197,0
941,92,256,0
1020,56,200,0
1135,-27,65,0
1086,-135,41,0
984,-48,182,0
935,74,243,0
865,36,183,0
864,19,177,0
877,0,145,0
855,14,148,0
832,60,195,0
886,95,226,0
1006,76,200,0
994,53,155,0
991,88,134,0
1077,197,73,0
1057,353,75,0
997,447,137,0
971,478,224,0
1129,493,265,0
1169,367,190,0
1010,173,210,0
894,80,252,0
903,155,183,0
895,221,137,0
860,222,156,0
783,230,176,0
722,241,175,0
814,279,129,0
1009,273,90,0
1061,283,117,0
1166,309,162,0
1157,320,206,0
864,318,342,0
913,226,343,0
1037,134,194,0
970,29,165,0
714,10,211,0
647,156,274,0
704,262,367,0
798,236,411,0
904,-22,480,0
881,182,418,0
951,-6,437,0
1226,15,448,0
1443,158,266,0
1452,208,288,0
1323,228,395,0
1157,321,295,0
1212,242,144,0
1262,80,96,0
1109,28,95,0
976,109,96,0
894,219,64,0
812,268,41,0
717,238,35,0
622,175,52,0
592,168,88,0
658,185,109,0
718,203,159,0
935,222,197,0
1030,176,271,0
1063,187,510,0
1273,158,532,0
1346,13,196,0
1106,-63,153,0
860,-96,350,0
841,47,458,0
790,272,441,0
832,322,451,0
837,220,461,0
818,143,470,0
966,163,435,0
1230,172,390,0
1367,151,254,0
1369,198,340,0
1242,302,462,0
1261,401,334,0
1425,289,234,0
1372,55,142,0
1118,-1,100,0
964,49,77,0
902,168,82,0
835,227,84,0
792,203,53,0
622,160,43,0
547,165,92,0
584,194,127,0
647,206,205,0
866,240,285,0
1086,235,351,0
1251,220,523,0
1527,192,494,0
1417,-12,134,0
1074,-80,140,0
815,-38,305,0
759,212,292,0
775,395,321,0
808,410,339,0
829,325,467,0
770,282,513,0
984,318,594,0
1239,211,515,0
1417,6,316,0
1518,-36,319,0
1178,39,334,0
1117,230,250,0
1261,315,259,0
1173,264,240,0
953,193,144,0
884,129,71,0
858,166,46,0
849,165,36,0
757,163,18,0
653,183,22,0
688,220,35,0
752,249,34,0
910,306,78,0
1056,309,201,0
1001,341,539,0
1141,351,626,0
1307,175,278,0
1141,-70,81,0
863,-191,240,0
762,-53,396,0
772,167,417,0
790,243,469,0
759,213,482,0
774,213,415,0
976,221,399,0
1156,151,344,0
1227,140,205,0
1329,185,231,0
1365,335,308,0
1237,513,286,0
1234,541,166,0
1232,404,101,0
1094,223,80,0
937,75,87,0
886,57,64,0
877,100,39,0
859,127,18,0
820,150,17,0
801,186,46,0
886,232,47,0
927,271,73,0
975,283,162,0
958,244,259,0
877,180,455,0
1065,139,612,0
1136,16,321,0
1002,-13,61,0
765,-83,213,0
701,-24,343,0
778,144,327,0
871,366,232,0
964,384,251,0
956,325,312,0
998,288,337,0
1189,254,271,0
1357,48,262,0
1152,174,412,0
1078,377,444,0
1288,399,412,0
1352,140,351,0
1169,-67,287,0
964,-67,237,0
855,36,205,0
804,112,162,0
786,139,132,0
754,139,109,0
730,146,100,0
858,181,76,0
831,188,95,0
945,269,164,0
981,258,210,0
1067,300,361,0
1193,231,437,0
1362,139,271,0
1143,-55,161,0
866,-77,204,0
719,54,219,0
681,302,261,0
687,350,290,0
731,304,340,0
811,269,414,0
1006,257,471,0
1269,251,555,0
1550,185,505,0
1481,123,487,0
1263,174,445,0
1376,221,361,0
1469,125,317,0
1323,49,257,0
1056,66,191,0
958,103,158,0
938,130,116,0
909,127,76,0
827,111,44,0
714,114,30,0
703,161,13,0
623,199,27,0
657,270,127,0
806,258,185,0
997,232,230,0
1225,211,372,0
1554,206,331,0
1436,83,131,0
1099,-27,228,0
968,18,360,0
969,257,407,0
940,363,432,0
944,294,509,0
870,227,630,0
902,283,698,0
1097,293,675,0
1322,154,486,0
1405,68,422,0
1389,157,415,0
1387,284,359,0
1605,289,285,0
1700,159,239,0
1503,42,197,0
1210,57,154,0
1040,111,142,0
935,119,127,0
764,83,86,0
571,44,42,0
436,58,16,0
418,111,-1,0
339,154,28,0
452,258,74,0
753,335,69,0
1115,388,145,0
1491,432,384,0
1926,496,422,0
1615,186,124,0
1326,-137,279,0
1104,-94,397,0
925,308,442,0
787,465,445,0
788,377,550,0
796,252,614,0
839,309,643,0
1133,403,677,0
1311,221,465,0
1420,37,339,0
1543,80,345,0
1369,254,257,0
1414,349,206,0
1568,277,204,0
1434,157,159,0
1152,107,134,0
1045,120,121,0
942,129,96,0
857,107,73,0
712,75,38,0
569,86,33,0
593,138,30,0
514,186,48,0
527,282,124,0
701,375,164,0
1003,440,154,0
1238,403,153,0
1288,375,293,0
1501,434,407,0
1467,455,338,0
1186,282,250,0
1078,145,312,0
1007,193,389,0
933,298,388,0
936,372,420,0
879,380,446,0
783,374,486,0
889,433,550,0
1122,367,437,0
1220,210,340,0
1302,240,386,0
1375,415,447,0
1472,445,283,0
1582,225,165,0
1468,-9,87,0
1207,18,84,0
1128,140,101,0
1077,264,70,0
1012,291,34,0
908,212,1,0
747,157,-14,0
711,178,-20,0
623,215,-7,0
567,313,53,0
671,300,106,0
803,247,146,0
962,215,207,0
941,217,382,0
1117,263,384,0
1335,129,276,0
1302,-3,265,0
1241,-57,297,0
1234,64,519,0
1104,262,696,0
966,292,693,0
884,91,646,0
778,-120,532,0
798,-139,461,0
1034,7,525,0
1253,85,355,0
1324,198,157,0
1419,233,204,0
1237,452,272,0
1165,601,122,0
1332,508,10,0
1351,309,50,0
1222,141,82,0
1039,123,84,0
919,149,84,0
835,157,87,0
728,134,85,0
610,113,77,0
556,119,73,0
589,146,65,0
637,187,76,0
797,245,125,0
1181,272,178,0
1385,298,368,0
1183,289,555,0
1182,217,320,0
1330,-11,159,0
1189,-124,215,0
944,8,360,0
832,277,423,0
775,418,397,0
839,357,443,0
846,203,511,0
791,143,519,0
1054,191,535,0
1277,137,415,0
1255,81,255,0
1374,133,287,0
1138,285,361,0
975,418,282,0
1196,408,228,0
1330,244,202,0
1162,86,148,0
1051,30,139,0
1044,83,135,0
971,133,121,0
829,151,107,0
685,154,89,0
566,167,81,0
565,191,76,0
609,187,79,0
677,227,117,0
999,273,139,0
1212,274,301,0
1260,337,599,0
1348,191,360,0
1310,30,59,0
1085,-114,162,0
897,-82,278,0
823,237,352,0
764,430,357,0
808,432,397,0
840,322,496,0
791,226,509,0
1096,258,596,0
1278,152,503,0
1228,51,282,0
1345,106,285,0
1233,273,338,0
1034,420,297,0
1164,423,273,0
1331,293,230,0
1452,96,150,0
1341,-38,102,0
1133,9,117,0
1014,112,112,0
879,196,95,0
715,205,91,0
552,168,83,0
470,145,74,0
425,134,81,0
439,194,133,0
701,236,182,0
1117,240,268,0
1148,238,523,0
1322,195,488,0
1659,95,138,0
1503,-38,140,0
1173,-66,342,0
1018,232,397,0
912,537,342,0
859,525,380,0
828,362,458,0
734,210,516,0
802,225,550,0
1124,254,603,0
1189,105,364,0
1260,35,297,0
1427,107,350,0
1289,312,380,0
1095,374,297,0
1222,322,231,0
1380,279,199,0
1432,188,167,0
1210,98,138,0
970,78,137,0
849,105,117,0
782,131,99,0
695,131,83,0
579,143,81,0
525,166,81,0
537,180,91,0
542,217,143,0
704,265,228,0
1044,268,288,0
1397,246,326,0
1213,153,367,0
1219,137,303,0
1371,172,280,0
1350,225,288,0
1085,241,304,0
937,282,317,0
859,349,339,0
863,345,402,0
883,307,497,0
784,219,538,0
864,213,581,0
1191,190,599,0
1318,36,334,0
1206,4,243,0
1221,99,277,0
1299,360,328,0
1360,487,300,0
1334,395,220,0
1307,272,141,0
1282,108,91,0
1175,41,106,0
1054,68,128,0
906,145,93,0
784,163,68,0
653,152,63,0
551,149,57,0
467,143,71,0
415,185,151,0
527,208,239,0
762,171,296,0
1108,117,338,0
1245,4,371,0
1270,-28,366,0
1354,13,319,0
1393,98,283,0
1343,242,247,0
1280,388,256,0
979,519,303,0
854,469,341,0
708,390,382,0
718,358,457,0
878,330,519,0
1092,237,420,0
1314,202,400,0
1637,247,453,0
1448,201,392,0
1455,245,325,0
1611,189,273,0
1582,98,218,0
1376,4,160,0
1198,28,113,0
1060,105,70,0
918,170,33,0
751,186,22,0
604,198,22,0
542,205,9,0
478,228,12,0
507,313,31,0
619,382,51,0
950,421,70,0
1123,393,257,0
996,435,478,0
1079,418,228,0
1429,3,294,0
1561,-305,402,0
1368,-56,616,0
1010,274,712,0
816,254,606,0
821,37,553,0
865,-100,519,0
877,-35,456,0
894,77,392,0
1077,185,368,0
1192,116,320,0
1021,133,171,0
911,174,108,0
1042,284,83,0
1055,438,63,0
795,512,73,0
728,475,76,0
1035,545,81,0
1247,492,33,0
1141,329,-43,0
1065,138,-13,0
977,70,59,0
920,152,83,0
899,223,86,0
884,257,101,0
817,241,105,0
869,208,101,0
983,165,76,0
1006,171,112,0
1041,209,184,0
1006,208,254,0
1078,198,298,0
928,116,356,0
754,86,396,0
718,19,324,0
832,-20,240,0
1039,-12,248,0
1159,71,303,0
1058,226,319,0
907,320,290,0
871,319,261,0
855,208,239,0
857,132,236,0
873,125,270,0
873,143,291,0
859,139,284,0
889,133,286,0
980,121,300,0
1010,105,251,0
1023,151,230,0
1098,240,248,0
1036,314,272,0
836,344,257,0
959,326,273,0
1148,222,253,0
1161,106,149,0
1108,38,151,0
945,108,170,0
819,223,159,0
762,263,149,0
743,246,147,0
742,195,135,0
748,172,118,0
877,221,125,0
999,232,129,0
1021,269,162,0
1164,295,232,0
1398,263,263,0
1103,151,293,0
738,102,345,0
721,99,328,0
923,53,224,0
1102,13,165,0
1052,85,178,0
817,220,244,0
688,340,278,0
680,340,258,0
742,217,260,0
781,43,263,0
804,12,299,0
851,170,319,0
983,312,336,0
1055,214,295,0
1010,195,244,0
1223,272,271,0
1353,333,315,0
970,297,267,0
911,239,299,0
1207,163,322,0
1340,30,193,0
1363,-69,151,0
1200,-11,155,0
995,136,157,0
880,240,157,0
773,245,129,0
629,179,98,0
515,137,85,0
530,172,81,0
617,218,79,0
752,269,87,0
987,302,143,0
1273,338,236,0
1576,336,228,0
1544,230,135,0
1022,151,402,0
705,138,487,0
835,182,409,0
992,136,340,0
983,95,406,0
886,143,491,0
780,208,496,0
741,166,415,0
772,95,372,0
784,64,365,0
753,118,384,0
745,184,417,0
877,217,432,0
1007,173,380,0
1147,165,305,0
1175,195,344,0
870,240,363,0
803,263,290,0
1052,234,304,0
1155,100,258,0
1146,49,194,0
1150,89,204,0
1090,170,195,0
952,218,144,0
813,199,129,0
732,197,110,0
871,219,98,0
967,208,102,0
1004,221,116,0
1033,201,151,0
1117,190,192,0
1083,188,239,0
892,161,336,0
768,125,409,0
903,62,399,0
1019,-31,366,0
914,-70,391,0
774,-1,450,0
716,112,422,0
792,157,393,0
899,134,430,0
945,118,445,0
961,141,434,0
1008,150,419,0
1016,146,372,0
936,122,293,0
872,131,243,0
897,171,226,0
881,241,243,0
816,290,247,0
914,319,251,0
1081,343,260,0
1258,332,279,0
1181,292,298,0
932,230,256,0
840,214,192,0
937,227,170,0
1059,234,195,0
1124,245,176,0
1087,195,139,0
967,175,100,0
888,186,102,0
866,166,114,0
823,150,107,0
773,146,118,0
822,157,134,0
956,152,138,0
1067,144,158,0
1124,164,208,0
1241,194,251,0
1157,189,327,0
806,166,389,0
655,140,344,0
811,68,227,0
1013,20,122,0
1068,99,136,0
1019,252,232,0
889,408,304,0
802,437,248,0
816,301,226,0
848,150,232,0
856,89,241,0
856,120,275,0
952,192,329,0
1097,189,352,0
1114,132,269,0
1188,174,244,0
1268,282,325,0
1046,345,358,0
814,308,287,0
999,251,250,0
1202,133,179,0
1199,36,127,0
1141,38,138,0
1012,128,145,0
877,243,130,0
766,275,109,0
708,245,91,0
672,194,87,0
648,159,94,0
777,172,117,0
1021,187,143,0
1177,208,208,0
1261,213,255,0
1211,192,317,0
912,167,413,0
738,149,410,0
817,74,277,0
971,-30,170,0
1028,-40,184,0
950,83,296,0
841,240,354,0
790,331,308,0
814,272,280,0
841,151,285,0
834,68,278,0
831,74,285,0
925,138,329,0
1115,129,351,0
1161,70,245,0
1230,114,200,0
1257,231,255,0
1055,368,317,0
787,362,296,0
787,290,277,0
1060,192,276,0
1159,75,192,0
1066,12,174,0
941,35,168,0
877,123,159,0
862,196,162,0
825,216,158,0
779,189,142,0
768,159,125,0
841,168,128,0
993,172,132,0
1107,197,169,0
1244,222,223,0
1322,211,289,0
962,174,425,0
792,125,443,0
922,35,311,0
936,-88,187,0
865,-86,149,0
828,36,238,0
774,215,321,0
712,319,320,0
705,278,285,0
736,207,303,0
792,132,320,0
947,123,376,0
1162,82,471,0
1293,5,376,0
1336,-17,270,0
1160,74,337,0
846,180,343,0
895,222,328,0
1160,138,348,0
1111,55,271,0
1016,28,216,0
923,56,203,0
841,122,180,0
743,174,142,0
623,214,133,0
634,232,124,0
765,264,94,0
877,299,100,0
999,381,258,0
1245,426,448,0
1381,251,277,0
1294,-84,81,0
1300,-139,258,0
908,35,422,0
689,184,392,0
784,144,283,0
944,58,201,0
1002,59,182,0
872,156,222,0
754,259,287,0
723,281,286,0
724,260,238,0
754,205,243,0
782,161,295,0
821,172,349,0
937,162,353,0
1079,116,293,0
1015,66,221,0
1028,116,238,0
1048,265,264,0
1142,456,332,0
1064,517,407,0
1211,434,315,0
1249,205,119,0
1172,-26,103,0
1047,-70,167,0
1121,59,232,0
1293,175,253,0
1165,215,199,0
966,153,104,0
785,118,86,0
834,157,129,0
860,162,116,0
727,175,90,0
730,204,71,0
748,216,103,0
863,204,210,0
1139,207,313,0
1298,211,403,0
1201,192,341,0
1090,46,305,0
1045,-168,330,0
1023,-263,377,0
974,-115,478,0
885,7,467,0
829,106,474,0
804,123,478,0
842,81,403,0
868,42,325,0
835,82,267,0
832,161,281,0
868,264,344,0
902,311,386,0
958,267,401,0
1282,236,431,0
1376,164,526,0
1082,35,481,0
1170,-98,398,0
1325,-181,319,0
1264,-138,311,0
1067,-7,317,0
900,142,257,0
821,198,211,0
788,172,189,0
775,125,181,0
778,108,185,0
833,132,197,0
901,120,198,0
904,113,175,0
877,127,171,0
848,131,233,0
875,143,333,0
895,147,403,0
948,141,391,0
973,88,390,0
972,62,475,0
928,90,574,0
899,73,571,0
943,-25,558,0
982,-112,522,0
1031,-77,477,0
1006,22,462,0
885,118,443,0
812,183,405,0
892,177,308,0
981,144,197,0
1013,202,134,0
1080,352,190,0
1305,544,321,0
1238,565,243,0
1141,387,36,0
1297,189,45,0
1360,37,102,0
1245,55,128,0
1185,150,144,0
1066,217,120,0
959,243,113,0
887,200,107,0
824,148,103,0
825,139,105,0
930,133,115,0
920,113,128,0
948,127,146,0
1028,130,156,0
795,108,352,0
815,153,558,0
926,75,452,0
984,-57,280,0
889,-149,237,0
815,-132,298,0
855,0,392,0
901,170,416,0
905,239,429,0
880,189,473,0
862,154,523,0
1001,164,593,0
1178,150,571,0
1428,111,439,0
1471,150,475,0
1259,236,465,0
1132,249,335,0
1336,123,269,0
1433,27,225,0
1333,35,157,0
1156,118,134,0
1104,182,138,0
1031,226,112,0
940,217,86,0
860,168,76,0
754,147,84,0
709,146,78,0
681,138,61,0
675,162,96,0
800,201,152,0
916,188,220,0
1015,200,386,0
1234,193,475,0
1306,132,258,0
1203,-73,88,0
1086,-149,213,0
1029,-20,405,0
983,275,434,0
951,389,429,0
921,280,509,0
867,144,507,0
861,92,479,0
999,143,469,0
1108,162,357,0
1149,166,236,0
1113,201,250,0
1113,369,314,0
1179,575,330,0
1554,577,216,0
1524,362,159,0
1332,128,113,0
1362,22,49,0
1376,-14,14,0
1074,38,120,0
856,145,192,0
697,154,115,0
592,141,27,0
589,128,-11,0
724,119,-52,0
829,194,-77,0
997,329,-15,0
973,396,54,0
992,465,325,0
1255,408,597,0
1243,274,87,0
1096,-118,23,0
1020,-348,306,0
995,-41,506,0
978,496,505,0
964,430,596,0
924,163,662,0
866,-38,597,0
1009,-13,586,0
1217,51,504,0
1273,110,338,0
1392,236,313,0
1515,399,317,0
1196,444,260,0
1072,364,190,0
1279,278,192,0
1345,142,70,0
1263,86,51,0
1147,77,79,0
1001,144,85,0
892,192,61,0
804,203,40,0
686,194,46,0
577,183,72,0
553,188,100,0
634,170,110,0
697,168,125,0
866,188,167,0
1165,201,238,0
1317,192,380,0
1391,154,411,0
1377,46,256,0
1300,-24,278,0
1071,80,372,0
872,243,370,0
792,246,354,0
803,149,351,0
864,123,381,0
857,192,404,0
837,254,433,0
953,228,460,0
1068,132,341,0
1162,110,245,0
1134,168,273,0
1073,315,326,0
1033,383,338,0
1320,278,335,0
1497,85,287,0
1389,-55,258,0
1123,-30,279,0
1001,50,286,0
1001,52,234,0
873,35,139,0
731,47,117,0
589,99,116,0
606,194,98,0
626,231,94,0
774,307,137,0
995,350,156,0
1240,329,142,0
1275,296,132,0
1174,300,351,0
1074,289,446,0
1013,253,459,0
939,89,489,0
892,30,597,0
873,21,643,0
909,76,626,0
1008,100,566,0
1043,93,499,0
942,76,434,0
896,104,358,0
1014,137,271,0
1116,134,181,0
1006,161,148,0
903,245,157,0
891,370,138,0
829,388,130,0
800,344,121,0
1215,249,174,0
1446,216,401,0
1295,-93,493,0
901,-479,795,0
815,160,1006,0
924,559,1119,0
1049,595,958,0
1098,679,736,0
1051,753,547,0
950,594,409,0
711,470,397,0
492,440,414,0
276,299,468,0
143,411,387,0
-101,594,456,0
-288,515,584,0
-319,455,593,0
-280,552,589,0
-314,558,609,0
-357,543,583,0
-383,544,568,0
-405,491,590,0
-416,534,612,0
-411,558,673,0
-439,468,674,0
-412,443,650,0
-406,392,648,0
-353,355,675,0
-327,550,710,0
-430,638,680,0
-548,637,552,0
-675,765,435,0
-662,940,351,0
-551,994,418,0
-362,876,642,0
-325,766,731,0
-356,693,653,0
-347,693,654,0
-255,724,725,0
-198,707,668,0
-178,744,607,0
-158,667,571,0
-146,653,587,0
-197,762,612,0
-246,710,561,0
-336,750,619,0
-321,825,708,0
-299,770,801,0
-280,598,805,0
-332,415,804,0
-372,349,784,0
-360,341,722,0
-280,396,692,0
-160,494,672,0
-15,632,670,0
104,629,660,0
51,455,652,0
-166,413,552,0
-259,467,530,0
-297,564,532,0
-279,616,515,0
-160,863,566,0
-91,659,432,0
348,635,652,0
925,744,656,0
1292,895,656,0
1350,747,698,0
1260,336,619,0
1101,115,493,0
935,78,463,0
797,86,392,0
806,152,354,0
873,212,319,0
866,211,282,0
967,208,233,0
1127,193,219,0
1093,206,278,0
1128,219,279,0
1148,199,252,0
894,187,326,0
767,201,384,0
926,161,344,0
948,61,243,0
821,21,266,0
657,75,346,0
607,157,347,0
654,157,340,0
731,118,373,0
753,94,400,0
738,123,439,0
814,182,454,0
1027,189,495,0
1179,187,378,0
1314,217,312,0
1433,297,444,0
1165,407,432,0
1046,348,327,0
1299,134,301,0
1374,7,270,0
1222,-5,232,0
1053,66,218,0
913,154,198,0
751,199,148,0
619,190,102,0
538,156,95,0
581,147,105,0
727,176,99,0
826,207,114,0
967,238,157,0
1171,233,215,0
1290,258,343,0
1164,270,522,0
971,199,430,0
1003,-145,208,0
1056,-302,162,0
973,-215,298,0
883,50,406,0
839,331,467,0
800,342,480,0
803,172,471,0
838,15,436,0
859,-21,374,0
844,61,369,0
899,161,403,0
1044,211,344,0
1248,207,239,0
1202,235,219,0
1179,310,259,0
1057,401,295,0
1091,344,232,0
1223,228,216,0
1334,97,201,0
1168,29,204,0
962,53,211,0
811,105,194,0
729,142,185,0
698,141,184,0
715,106,179,0
791,84,151,0
968,105,149,0
998,126,201,0
1124,173,234,0
1214,138,272,0
1160,99,403,0
1061,44,457,0
1067,-62,453,0
1099,-120,468,0
933,-58,395,0
692,67,259,0
687,225,223,0
788,396,249,0
842,538,275,0
869,539,376,0
806,420,510,0
797,388,583,0
937,409,606,0
1006,346,571,0
1164,375,532,0
1354,497,500,0
1068,489,537,0
977,362,448,0
1308,243,300,0
1520,52,171,0
1431,-49,168,0
1245,22,200,0
1056,143,187,0
851,217,146,0
705,201,109,0
589,152,82,0
623,132,47,0
732,141,41,0
743,178,84,0
815,221,178,0
1027,221,331,0
1172,187,498,0
1203,126,480,0
1329,-25,493,0
1290,-224,388,0
1202,-230,345,0
1020,-47,470,0
849,197,464,0
756,256,420,0
757,171,401,0
790,102,385,0
798,108,363,0
830,146,356,0
978,148,358,0
1132,93,299,0
1184,99,209,0
1239,133,185,0
1240,247,249,0
1081,364,302,0
1092,336,237,0
1254,217,241,0
1242,93,252,0
1143,18,240,0
1025,-21,240,0
948,-22,238,0
860,3,211,0
773,46,194,0
683,86,200,0
731,114,195,0
848,122,158,0
958,196,157,0
1084,278,179,0
1099,328,243,0
1004,322,404,0
803,315,551,0
732,290,537,0
686,216,439,0
689,197,389,0
773,243,432,0
912,347,497,0
985,406,541,0
949,438,579,0
872,400,568,0
820,376,515,0
803,430,622,0
792,391,675,0
800,292,475,0
1066,315,371,0
1447,377,388,0
1333,329,401,0
1311,195,311,0
1485,111,222,0
1507,125,189,0
1278,146,198,0
1064,185,222,0
912,196,217,0
818,173,181,0
782,131,158,0
679,92,140,0
697,84,160,0
716,85,180,0
767,132,172,0
865,156,219,0
1096,168,351,0
1189,163,457,0
1114,147,364,0
1129,141,381,0
1114,87,552,0
980,138,608,0
935,177,644,0
958,137,665,0
978,128,648,0
964,120,602,0
923,105,522,0
879,140,454,0
906,202,411,0
1007,249,350,0
1140,258,248,0
1184,277,243,0
1147,348,366,0
1403,344,368,0
1720,163,232,0
1747,-38,223,0
1397,-123,249,0
1139,-32,273,0
962,71,274,0
714,95,237,0
479,52,191,0
378,28,167,0
414,87,182,0
508,217,237,0
623,387,308,0
735,409,321,0
845,333,334,0
962,386,358,0
1045,590,510,0
1087,468,641,0
1099,209,566,0
1066,-2,563,0
993,-106,582,0
940,-163,570,0
921,-165,576,0
913,-64,571,0
887,68,526,0
856,41,432,0
822,-36,391,0
962,-20,373,0
1111,130,287,0
1143,218,174,0
1018,279,206,0
975,441,347,0
1013,508,376,0
1250,380,216,0
1395,90,212,0
1250,-101,246,0
1052,-35,231,0
944,93,221,0
835,178,187,0
728,191,168,0
672,162,155,0
611,144,140,0
695,168,127,0
781,211,122,0
843,301,152,0
1002,383,212,0
1105,406,338,0
1065,397,478,0
976,314,470,0
1025,146,460,0
1043,-52,478,0
963,-55,487,0
853,82,556,0
780,157,543,0
779,132,502,0
799,69,498,0
817,127,485,0
814,178,480,0
835,223,486,0
929,226,566,0
1091,126,409,0
1197,81,235,0
1302,133,251,0
1109,256,332,0
885,332,303,0
1027,308,274,0
1186,189,254,0
1094,77,227,0
942,21,238,0
779,58,240,0
649,132,241,0
593,183,226,0
581,220,233,0
648,273,263,0
793,328,250,0
930,324,272,0
1023,331,326,0
1106,365,350,0
1224,356,409,0
1195,274,530,0
1032,161,540,0
946,-22,246,0
867,49,317,0
731,186,398,0
694,276,372,0
698,227,302,0
744,150,300,0
777,107,317,0
793,102,336,0
865,88,345,0
1063,92,365,0
1254,64,247,0
1234,126,180,0
1163,224,251,0
1109,386,359,0
1187,439,293,0
1179,311,231,0
1012,159,215,0
768,107,221,0
654,101,207,0
642,130,168,0
698,139,135,0
811,137,137,0
937,117,136,0
1163,120,88,0
1279,180,75,0
1259,271,184,0
1201,320,360,0
1095,235,492,0
915,127,572,0
924,-71,397,0
1013,-250,257,0
863,-326,217,0
656,-202,257,0
522,20,280,0
504,207,263,0
514,288,237,0
579,290,263,0
694,254,352,0
861,234,411,0
1217,211,449,0
1442,152,340,0
1448,114,251,0
1411,157,407,0
1058,314,503,0
937,364,362,0
1126,255,360,0
1219,81,342,0
1117,17,277,0
1023,46,250,0
939,112,200,0
830,159,158,0
734,179,136,0
651,188,129,0
672,190,124,0
833,200,103,0
932,225,129,0
1042,265,214,0
1072,247,272,0
1127,217,315,0
1042,104,318,0
987,-13,282,0
1088,-188,243,0
1067,-175,185,0
935,12,176,0
792,216,208,0
677,344,218,0
634,353,217,0
695,250,240,0
762,172,297,0
799,141,338,0
1013,158,375,0
1220,161,434,0
1381,138,386,0
1556,131,415,0
1381,194,446,0
985,238,354,0
963,197,284,0
1119,127,282,0
1082,89,239,0
959,114,208,0
909,140,170,0
850,173,133,0
792,187,98,0
743,178,98,0
780,177,114,0
1006,171,78,0
1034,163,99,0
1074,204,114,0
1077,232,149,0
968,223,243,0
893,217,387,0
949,167,375,0
979,77,251,0
855,-26,214,0
743,-45,259,0
731,80,308,0
777,231,341,0
861,273,404,0
918,176,467,0
929,60,478,0
1131,-23,500,0
1258,-24,458,0
1318,16,347,0
1391,111,356,0
1262,264,385,0
981,359,325,0
1030,335,244,0
1183,219,220,0
1159,93,183,0
996,64,144,0
909,104,127,0
869,157,113,0
833,186,96,0
784,176,95,0
771,166,105,0
931,164,87,0
981,177,87,0
936,235,146,0
967,256,231,0
947,257,407,0
979,241,520,0
1028,145,308,0
1093,-114,130,0
946,-223,146,0
807,-117,283,0
757,130,335,0
750,331,361,0
779,321,391,0
811,206,430,0
861,94,471,0
1060,48,490,0
1261,-18,456,0
1282,-34,289,0
1298,33,294,0
1275,192,371,0
1059,353,395,0
1066,342,333,0
1200,213,276,0
1195,48,199,0
993,-15,168,0
866,40,155,0
841,124,144,0
832,174,150,0
785,153,144,0
750,137,127,0
863,157,120,0
856,162,136,0
921,210,136,0
1020,224,156,0
1080,237,318,0
1082,226,505,0
1007,81,321,0
956,15,113,0
924,-28,224,0
873,-21,390,0
858,114,402,0
880,171,359,0
909,142,448,0
874,129,477,0
847,150,477,0
964,203,519,0
1098,220,461,0
1242,224,327,0
1269,268,306,0
1095,368,420,0
1021,422,366,0
1253,324,260,0
1468,118,247,0
1312,-18,197,0
1062,26,171,0
932,123,161,0
863,190,140,0
811,200,119,0
729,173,102,0
646,157,81,0
701,193,56,0
768,230,71,0
815,277,172,0
905,282,281,0
1092,273,331,0
1224,184,266,0
1145,91,293,0
1058,12,353,0
1124,73,325,0
1146,170,287,0
1049,186,330,0
904,220,347,0
818,259,326,0
799,242,344,0
819,200,369,0
823,205,392,0
827,236,409,0
917,270,439,0
1030,214,429,0
1101,163,333,0
1285,189,303,0
1360,277,317,0
1104,330,270,0
1116,261,206,0
1306,145,156,0
1264,75,134,0
1094,102,133,0
965,156,123,0
860,186,107,0
803,188,83,0
796,162,75,0
743,146,77,0
797,185,79,0
854,190,89,0
790,200,124,0
884,225,155,0
1057,232,236,0
1074,226,452,0
970,163,424,0
1032,-26,232,0
1083,-128,265,0
975,-42,409,0
863,173,430,0
815,252,416,0
820,174,435,0
841,101,451,0
837,99,455,0
858,132,452,0
1051,158,439,0
1174,103,359,0
1237,118,276,0
1293,201,283,0
1108,296,305,0
890,312,270,0
1039,252,246,0
1263,122,205,0
1131,46,170,0
962,60,185,0
883,111,179,0
808,142,152,0
718,132,146,0
649,130,171,0
788,213,195,0
911,282,203,0
951,369,270,0
886,432,427,0
799,518,598,0
753,528,549,0
783,439,592,0
699,371,593,0
639,435,585,0
606,475,569,0
615,462,543,0
632,450,533,0
631,472,518,0
571,472,518,0
552,473,493,0
647,482,454,0
771,481,416,0
851,472,364,0
848,479,307,0
950,546,269,0
981,599,262,0
912,581,209,0
949,500,192,0
967,403,203,0
894,310,169,0
860,282,155,0
856,338,153,0
833,398,143,0
835,453,136,0
833,471,158,0
826,448,179,0
848,412,194,0
872,362,214,0
892,319,224,0
934,294,253,0
1009,299,280,0
1122,304,321,0
1156,288,367,0
877,234,387,0
723,188,295,0
858,135,215,0
1120,103,205,0
1064,156,192,0
888,243,168,0
759,307,190,0
737,295,156,0
751,194,110,0
735,160,134,0
735,200,207,0
754,259,272,0
860,269,286,0
1030,233,286,0
1116,188,241,0
1174,260,234,0
1275,384,269,0
1259,397,181,0
1171,104,39,0
933,-202,-74,0
783,-748,2,0
765,-458,-277,0
921,396,-597,0
857,333,-293,0
668,-32,27,0
1216,-148,263,0
1138,280,228,0
1222,464,40,0
1361,491,127,0
1426,299,137,0
1222,143,309,0
988,-189,446,0
1014,-380,392,0
1024,-9,496,0
931,249,590,0
937,399,540,0
819,505,422,0
651,481,317,0
547,569,224,0
464,696,253,0
349,674,242,0
199,746,224,0
260,905,267,0
237,951,238,0
71,932,131,0
-63,989,183,0
-221,879,261,0
-189,697,328,0
-193,560,390,0
-114,452,754,0
-91,969,190,0
-52,1000,140,0
-134,751,336,0
-95,924,422,0
-50,856,248,0
-165,837,187,0
-110,870,171,0
-72,799,146,0
-150,876,159,0
-90,1064,498,0
23,1033,549,0
10,991,428,0
-22,1208,398,0
22,1166,476,0
12,931,377,0
-43,761,290,0
-97,707,237,0
-134,677,172,0
-138,592,126,0
-108,773,178,0
-70,1144,173,0
-79,1299,160,0
-175,1172,140,0
-160,1214,153,0
-201,1016,229,0
-248,881,333,0
-169,1016,362,0
29,1034,579,0
257,975,552,0
258,858,249,0
143,814,201,0
31,867,261,0
37,765,141,0
150,567,75,0
217,486,244,0
156,643,195,0
172,652,78,0
282,623,30,0
634,789,380,0
863,742,404,0
1055,791,414,0
927,771,367,0
948,686,612,0
723,585,270,0
842,561,553,0
815,173,532,0
890,167,502,0
900,228,527,0
990,274,468,0
1194,278,383,0
1250,312,233,0
1432,343,199,0
1353,438,166,0
1199,568,111,0
1120,529,47,0
1120,421,78,0
1063,366,87,0
961,345,64,0
916,304,68,0
887,243,76,0
833,198,79,0
758,169,86,0
685,158,111,0
719,163,122,0
783,154,133,0
894,180,175,0
1058,195,213,0
1120,173,306,0
1341,181,435,0
1364,186,287,0
1206,156,166,0
1001,114,295,0
843,259,288,0
770,349,193,0
760,325,232,0
789,322,305,0
804,297,387,0
831,309,424,0
1051,374,470,0
1305,297,390,0
1455,176,363,0
1378,138,424,0
1252,267,391,0
1264,326,292,0
1412,217,256,0
1502,83,230,0
1353,-1,160,0
1124,69,123,0
1039,150,131,0
919,187,112,0
760,173,66,0
617,139,35,0
478,114,21,0
433,159,33,0
477,246,93,0
609,337,190,0
806,460,353,0
999,447,430,0
1211,415,478,0
1389,271,535,0
1373,169,493,0
1177,113,511,0
934,178,451,0
785,161,370,0
704,197,323,0
715,266,338,0
756,280,368,0
746,262,405,0
793,252,405,0
1026,268,393,0
1314,215,310,0
1488,178,321,0
1339,255,376,0
1151,345,296,0
1195,330,221,0
1238,190,208,0
1097,115,179,0
912,167,158,0
800,219,140,0
742,237,121,0
671,241,104,0
574,228,87,0
491,257,109,0
463,317,143,0
583,369,173,0
728,406,207,0
980,487,296,0
1242,473,446,0
1407,423,580,0
1131,271,629,0
1038,359,440,0
1078,286,289,0
946,394,318,0
670,392,242,0
546,473,187,0
585,391,187,0
698,325,208,0
702,254,217,0
651,198,262,0
684,204,248,0
923,436,268,0
1099,567,225,0
1265,525,207,0
1289,519,329,0
1082,572,369,0
847,466,348,0
1068,11,281,0
1000,179,323,0
954,311,219,0
865,284,155,0
791,181,125,0
726,144,119,0
691,163,108,0
655,188,93,0
726,207,94,0
1010,205,75,0
1184,194,67,0
1320,257,83,0
1397,314,137,0
1174,365,352,0
911,323,481,0
911,164,269,0
951,0,136,0
783,-41,165,0
660,44,243,0
650,214,263,0
703,287,274,0
732,253,279,0
790,202,302,0
797,182,322,0
965,191,348,0
1166,159,355,0
1275,118,233,0
1225,163,267,0
1090,300,406,0
989,423,321,0
1128,366,219,0
1160,178,243,0
1107,69,184,0
1073,75,155,0
1086,136,143,0
961,173,119,0
780,176,83,0
640,169,57,0
592,188,78,0
727,231,103,0
900,225,98,0
951,249,142,0
1033,237,189,0
1162,257,267,0
1131,261,393,0
921,258,416,0
947,146,238,0
1141,-27,127,0
1146,-13,135,0
952,117,205,0
806,330,265,0
721,431,257,0
717,356,255,0
767,239,313,0
789,165,372,0
838,154,399,0
1051,194,419,0
1269,139,346,0
1299,73,244,0
1289,134,283,0
1082,279,326,0
884,391,228,0
1087,404,179,0
1250,246,131,0
1073,137,86,0
902,92,79,0
910,163,88,0
916,229,65,0
824,226,43,0
713,189,45,0
643,186,62,0
766,220,85,0
900,217,111,0
999,227,158,0
1147,235,209,0
1337,241,273,0
1147,192,401,0
855,177,400,0
960,72,304,0
1063,-49,173,0
1035,4,174,0
950,150,226,0
844,324,237,0
775,379,231,0
757,285,268,0
735,191,305,0
756,142,331,0
915,147,355,0
1163,134,346,0
1304,70,222,0
1190,97,213,0
1062,167,258,0
959,269,190,0
1117,288,157,0
1212,200,190,0
1079,160,236,0
965,162,235,0
942,126,217,0
885,72,177,0
812,33,170,0
698,59,184,0
670,136,195,0
741,194,152,0
747,227,112,0
764,300,98,0
935,396,102,0
1489,531,87,0
1469,550,40,0
1079,459,190,0
824,402,317,0
774,421,226,0
877,308,222,0
953,180,293,0
979,187,391,0
977,258,535,0
945,211,497,0
963,99,427,0
986,16,357,0
982,6,320,0
927,65,308,0
886,147,286,0
885,185,226,0
869,200,159,0
817,220,117,0
859,280,85,0
985,372,60,0
1247,481,49,0
1219,547,132,0
936,518,230,0
878,435,87,0
1061,371,34,0
1143,188,93,0
1084,74,129,0
986,75,135,0
932,134,131,0
893,195,133,0
851,217,127,0
801,205,129,0
775,174,133,0
812,160,123,0
902,154,135,0
1017,163,154,0
1119,198,179,0
1300,238,203,0
1218,221,308,0
805,230,445,0
731,188,337,0
892,87,110,0
1051,20,55,0
1045,73,201,0
951,228,344,0
857,353,307,0
841,337,249,0
889,217,231,0
879,96,205,0
850,44,220,0
917,75,235,0
1029,117,229,0
1130,126,204,0
1188,142,177,0
1143,220,225,0
985,292,237,0
1014,318,159,0
1132,251,190,0
1093,160,237,0
931,103,233,0
838,73,215,0
791,74,190,0
757,91,191,0
727,114,206,0
681,146,201,0
725,190,151,0
887,263,104,0
975,354,124,0
1085,404,187,0
1394,431,122,0
1344,375,93,0
797,301,413,0
788,344,448,0
911,343,361,0
920,120,381,0
807,12,457,0
822,159,551,0
903,242,559,0
993,30,523,0
1003,69,375,0
952,-1,282,0
882,17,249,0
822,148,237,0
811,198,204,0
873,203,177,0
896,194,145,0
878,202,124,0
869,222,117,0
953,277,106,0
1063,371,121,0
1088,433,240,0
917,464,368,0
1020,390,211,0
1288,228,137,0
1309,-71,121,0
1156,-95,221,0
1018,-3,250,0
893,177,201,0
849,229,190,0
832,173,186,0
782,121,171,0
758,91,171,0
748,112,165,0
826,146,178,0
898,175,218,0
1015,190,275,0
1237,191,304,0
1462,159,302,0
1097,142,345,0
845,142,343,0
950,112,197,0
970,129,94,0
881,127,132,0
821,214,189,0
757,321,229,0
700,354,235,0
700,318,256,0
739,244,338,0
804,163,325,0
1079,154,368,0
1299,104,347,0
1419,123,263,0
1375,179,361,0
928,278,390,0
777,310,243,0
1015,258,131,0
1138,142,78,0
1052,128,60,0
1030,162,8,0
930,192,11,0
779,189,5,0
712,154,27,0
701,172,42,0
775,204,42,0
964,216,6,0
1125,170,-58,0
1253,284,37,0
1339,281,139,0
1205,272,341,0
766,211,437,0
647,66,235,0
866,-107,97,0
1006,-158,95,0
961,34,171,0
878,192,307,0
797,312,350,0
738,302,246,0
726,218,218,0
738,116,233,0
776,91,242,0
958,131,256,0
1180,160,247,0
1229,186,169,0
1286,266,206,0
1264,366,323,0
959,397,244,0
918,275,118,0
1111,136,69,0
1069,116,66,0
988,163,99,0
937,112,92,0
863,49,50,0
740,60,6,0
723,122,35,0
760,145,54,0
808,174,48,0
969,177,20,0
1110,202,12,0
1196,233,80,0
1291,272,199,0
1312,279,294,0
886,224,376,0
730,148,362,0
909,55,219,0
1051,-41,92,0
951,-30,99,0
846,95,200,0
795,242,267,0
744,314,243,0
718,295,194,0
743,233,203,0
796,0,247,0
929,-39,218,0
1195,98,228,0
1331,223,155,0
1374,281,124,0
1292,298,207,0
898,347,266,0
693,315,191,0
846,224,125,0
1114,140,86,0
1101,68,50,0
990,65,75,0
873,106,102,0
819,152,72,0
754,147,43,0
728,122,52,0
751,113,60,0
926,147,23,0
1180,161,-17,0
1290,205,30,0
1382,238,153,0
1399,221,228,0
790,189,378,0
550,119,353,0
743,-14,192,0
1042,-130,20,0
1028,-38,21,0
875,122,222,0
776,274,306,0
725,288,241,0
762,247,190,0
812,173,190,0
809,53,214,0
879,-16,251,0
1136,55,301,0
1309,231,215,0
1268,206,143,0
1242,197,198,0
962,259,240,0
781,297,169,0
935,270,122,0
1150,139,95,0
1063,23,23,0
902,-15,13,0
840,16,15,0
801,71,-7,0
835,83,-31,0
871,66,-21,0
863,100,1,0
888,139,4,0
1077,161,-17,0
1277,180,-11,0
1318,226,87,0
1447,231,183,0
1029,169,334,0
588,39,313,0
620,-176,101,0
802,-174,-23,0
1018,-34,2,0
1010,169,169,0
846,246,224,0
761,179,157,0
780,123,166,0
838,23,146,0
861,132,147,0
874,116,194,0
1036,177,207,0
1219,241,157,0
1227,180,102,0
1253,172,105,0
1227,245,176,0
967,305,186,0
857,246,101,0
1024,118,59,0
1076,3,18,0
958,13,17,0
864,114,40,0
835,193,20,0
843,152,-44,0
881,109,-61,0
892,148,-37,0
849,196,-16,0
930,203,-27,0
1072,200,-20,0
1196,256,15,0
1242,281,90,0
1319,268,166,0
950,236,319,0
686,177,318,0
843,82,177,0
978,-100,40,0
939,-107,28,0
908,45,103,0
845,247,234,0
799,304,193,0
838,222,106,0
864,72,111,0
829,56,88,0
837,-7,131,0
974,89,157,0
1160,217,156,0
1255,227,83,0
1237,239,68,0
1105,316,167,0
877,422,269,0
995,406,189,0
1175,232,91,0
1100,90,81,0
926,35,157,0
831,95,163,0
813,147,108,0
873,159,109,0
930,149,112,0
888,150,93,0
944,190,69,0
1053,228,54,0
1110,250,112,0
1179,221,161,0
1271,156,139,0
1061,111,352,0
947,-4,224,0
910,-87,66,0
741,-47,77,0
739,57,153,0
793,196,198,0
829,267,171,0
845,261,143,0
823,212,140,0
789,207,111,0
825,306,158,0
921,412,254,0
1089,476,311,0
1180,485,358,0
1134,585,432,0
1045,651,532,0
1159,572,501,0
1192,361,459,0
1098,178,406,0
932,146,340,0
825,158,297,0
769,172,278,0
776,172,242,0
822,164,166,0
922,152,114,0
1027,158,66,0
889,203,58,0
906,234,59,0
1004,270,20,0
1091,306,85,0
956,315,280,0
849,305,376,0
938,208,222,0
1081,28,95,0
1025,-105,184,0
870,-112,352,0
801,26,435,0
777,133,430,0
807,-48,532,0
763,-30,577,0
702,85,485,0
900,163,452,0
1209,231,380,0
1210,89,229,0
1246,104,144,0
1372,197,155,0
1062,392,225,0
820,436,217,0
954,390,188,0
1086,258,130,0
1039,128,78,0
1000,57,97,0
929,105,118,0
905,185,111,0
917,202,102,0
881,168,128,0
857,144,154,0
1021,140,164,0
1158,120,191,0
1154,122,236,0
1120,97,264,0
1118,59,285,0
980,47,355,0
884,41,381,0
917,30,273,0
864,97,196,0
771,151,248,0
795,189,329,0
791,207,371,0
749,216,285,0
746,225,253,0
780,273,238,0
818,360,223,0
840,430,273,0
916,437,381,0
1018,359,443,0
1081,292,360,0
1044,355,387,0
1119,541,497,0
938,568,622,0
959,475,564,0
1354,333,440,0
1562,102,339,0
1396,-67,328,0
1147,-10,275,0
1148,71,265,0
1006,137,200,0
986,159,181,0
908,133,146,0
821,111,114,0
685,111,100,0
547,174,110,0
509,246,158,0
626,313,223,0
763,366,330,0
784,355,404,0
829,312,383,0
990,226,409,0
1108,180,508,0
1091,262,596,0
1038,309,643,0
988,262,622,0
979,186,601,0
950,195,583,0
877,255,533,0
911,320,495,0
1042,332,455,0
1206,307,325,0
1356,279,232,0
1321,315,242,0
1091,403,276,0
870,449,192,0
994,410,100,0
1175,277,91,0
1091,167,93,0
968,144,103,0
917,186,114,0
902,219,104,0
871,201,96,0
803,158,98,0
817,150,100,0
977,175,86,0
1039,169,111,0
1085,203,149,0
1123,194,232,0
972,189,426,0
873,168,499,0
950,60,294,0
959,-54,140,0
819,-91,176,0
717,-28,288,0
738,172,323,0
785,279,320,0
833,271,369,0
857,197,451,0
868,166,481,0
1173,155,497,0
1387,84,436,0
1336,28,332,0
1252,80,401,0
1055,237,404,0
1120,323,323,0
1346,231,293,0
1263,97,252,0
1008,26,219,0
880,68,176,0
865,128,133,0
829,155,88,0
798,159,78,0
722,154,84,0
709,180,82,0
783,215,63,0
795,248,80,0
917,305,124,0
1034,312,211,0
1051,367,478,0
1056,325,565,0
1161,85,71,0
1173,-254,-33,0
1032,-291,195,0
894,-29,412,0
818,435,360,0
792,502,300,0
843,349,345,0
844,185,394,0
823,130,408,0
1074,132,444,0
1306,83,391,0
1290,20,259,0
1232,95,284,0
1088,245,350,0
960,384,299,0
1107,391,222,0
1279,226,215,0
1200,82,138,0
1054,42,122,0
974,98,121,0
882,178,96,0
769,204,60,0
670,190,34,0
618,190,49,0
750,213,68,0
882,218,90,0
995,257,145,0
1088,272,219,0
1138,270,334,0
1005,235,481,0
984,177,339,0
1114,-49,174,0
1106,-228,160,0
966,-64,231,0
854,280,275,0
765,507,238,0
752,492,239,0
829,308,304,0
868,185,339,0
886,157,373,0
1129,171,435,0
1272,143,405,0
1317,63,318,0
1406,106,327,0
1145,220,343,0
899,306,285,0
1014,329,267,0
1179,230,272,0
1086,121,194,0
923,65,144,0
837,61,146,0
804,124,121,0
799,162,102,0
761,163,92,0
743,162,92,0
917,175,83,0
995,166,90,0
999,219,140,0
1133,265,217,0
1072,253,415,0
947,199,519,0
922,42,258,0
999,-127,185,0
962,-236,296,0
836,-56,337,0
763,266,285,0
731,410,281,0
746,377,303,0
819,317,384,0
832,256,395,0
910,264,342,0
1176,198,352,0
1337,61,259,0
1408,37,251,0
1308,152,383,0
1044,356,448,0
1051,389,309,0
1262,241,252,0
1270,28,230,0
1111,-37,198,0
1028,20,183,0
1036,94,158,0
1012,134,124,0
912,151,111,0
787,164,115,0
738,190,96,0
718,212,51,0
714,198,160,0
891,160,255,0
1047,141,288,0
1178,120,326,0
1061,-36,328,0
873,-218,205,0
840,-164,127,0
780,21,171,0
696,228,182,0
728,410,231,0
812,439,322,0
888,356,450,0
900,208,550,0
834,46,543,0
955,-36,546,0
1210,-16,496,0
1391,79,416,0
1400,220,462,0
1183,368,556,0
1039,523,467,0
1275,431,303,0
1417,146,199,0
1252,-111,154,0
1122,-162,142,0
1047,-23,115,0
930,157,88,0
803,262,138,0
636,235,126,0
513,207,17,0
594,157,-2,0
713,172,43,0
876,244,57,0
1032,296,117,0
1143,322,292,0
1309,322,476,0
1330,297,210,0
1217,101,17,0
1049,-81,212,0
898,-35,372,0
836,226,340,0
833,268,383,0
831,203,477,0
799,180,543,0
858,212,571,0
1172,246,608,0
1395,171,447,0
1563,81,281,0
1484,119,266,0
1168,264,237,0
997,384,164,0
1163,277,133,0
1028,199,78,0
935,153,45,0
858,146,49,0
768,187,48,0
697,209,37,0
670,194,38,0
854,182,29,0
1011,153,39,0
1025,219,83,0
1088,258,97,0
1080,253,188,0
1039,251,409,0
1113,246,390,0
1133,152,199,0
938,-58,213,0
774,-120,321,0
745,98,342,0
797,255,334,0
879,231,396,0
870,158,453,0
806,158,481,0
1054,190,538,0
1351,120,454,0
1377,10,242,0
1300,75,278,0
1113,286,312,0
1244,469,193,0
1323,379,128,0
1125,200,140,0
897,124,145,0
805,177,130,0
843,181,94,0
858,127,56,0
816,81,54,0
791,98,58,0
899,163,15,0
937,205,-24,0
957,312,37,0
998,376,183,0
996,373,390,0
999,310,612,0
976,122,229,0
1046,-231,187,0
945,-393,219,0
850,-73,307,0
814,366,342,0
772,549,323,0
807,446,309,0
861,272,356,0
849,118,352,0
886,95,337,0
1082,126,335,0
1143,136,280,0
1168,127,196,0
1164,213,254,0
1041,392,373,0
1052,488,326,0
1313,392,258,0
1437,116,202,0
1289,-106,172,0
1066,-164,157,0
935,-61,139,0
791,91,124,0
648,217,119,0
521,257,102,0
534,238,75,0
727,228,31,0
911,242,12,0
1032,324,63,0
1236,368,180,0
1250,418,380,0
1011,373,331,0
1024,72,156,0
1152,-153,146,0
1067,-109,226,0
804,140,354,0
625,309,385,0
595,303,391,0
691,158,430,0
847,-15,502,0
822,175,504,0
979,192,488,0
1252,310,328,0
1398,397,157,0
1405,447,183,0
1089,487,216,0
864,504,137,0
969,472,90,0
1071,391,77,0
1031,261,59,0
960,157,73,0
925,119,74,0
897,120,56,0
863,144,51,0
802,175,69,0
717,195,103,0
772,204,119,0
894,186,137,0
940,187,173,0
1034,208,209,0
1194,248,284,0
1180,247,427,0
1067,238,403,0
1090,153,222,0
1015,68,147,0
860,29,167,0
759,102,205,0
727,257,213,0
735,333,236,0
773,284,315,0
791,184,364,0
812,136,375,0
1024,150,405,0
1298,96,381,0
1394,40,219,0
1340,101,229,0
1113,246,315,0
900,402,267,0
1001,386,163,0
1118,250,155,0
1017,109,150,0
894,62,133,0
882,74,118,0
877,121,101,0
803,154,98,0
683,174,109,0
608,200,110,0
690,233,106,0
899,242,170,0
1127,265,228,0
1383,291,246,0
1505,263,362,0
1024,222,489,0
831,126,276,0
942,16,60,0
935,13,39,0
772,55,152,0
692,225,257,0
657,344,274,0
660,325,254,0
734,266,293,0
746,182,340,0
882,168,343,0
1215,132,399,0
1318,64,278,0
1306,81,217,0
1214,190,354,0
1073,422,407,0
1096,476,224,0
1146,297,181,0
1046,67,201,0
890,-3,178,0
855,55,141,0
853,122,116,0
817,159,102,0
748,169,90,0
713,172,66,0
908,203,34,0
1070,219,25,0
1160,303,68,0
1258,318,215,0
1111,331,536,0
939,253,496,0
968,20,230,0
962,-170,97,0
794,-107,129,0
668,117,241,0
708,360,287,0
780,372,233,0
821,299,226,0
817,209,327,0
860,186,363,0
1109,216,366,0
1347,134,375,0
1359,68,327,0
1327,164,382,0
1073,350,405,0
1041,446,285,0
1101,287,279,0
1063,95,268,0
906,49,205,0
851,65,166,0
911,107,121,0
979,141,74,0
903,161,78,0
811,180,80,0
899,214,92,0
1033,247,82,0
1165,261,123,0
1173,213,175,0
1073,185,212,0
874,156,331,0
866,133,346,0
945,74,175,0
859,36,98,0
739,51,164,0
718,135,234,0
786,268,288,0
866,344,284,0
981,295,343,0
963,206,419,0
1047,166,424,0
1328,134,388,0
1385,85,311,0
1342,79,365,0
1223,204,436,0
1009,313,363,0
1035,318,242,0
1219,198,177,0
1408,196,189,0
1621,187,148,0
1413,184,44,0
992,142,19,0
649,120,20,0
517,-17,75,0
420,-85,220,0
429,-6,111,0
444,192,36,0
505,441,199,0
763,809,485,0
694,861,534,0
773,493,775,0
1096,571,837,0
1112,537,487,0
856,406,382,0
598,303,429,0
444,322,500,0
400,433,386,0
520,299,488,0
450,397,441,0
387,784,434,0
442,948,760,0
598,750,543,0
867,285,767,0
989,456,873,0
982,1189,874,0
811,886,726,0
752,723,668,0
663,753,466,0
475,635,288,0
346,603,210,0
274,791,64,0
233,582,-41,0
303,223,82,0
270,245,189,0
433,609,442,0
368,481,663,0
461,661,967,0
626,789,1238,0
659,608,1276,0
702,822,1015,0
718,569,729,0
673,382,520,0
532,442,343,0
392,492,333,0
296,363,305,0
220,480,283,0
188,615,405,0
202,608,650,0
160,739,828,0
124,1042,934,0
254,1113,1048,0
397,1118,775,0
278,1231,465,0
224,1477,110,0
319,1397,157,0
446,1184,193,0
632,1100,211,0
668,955,255,0
589,654,262,0
500,368,222,0
419,55,353,0
244,-163,609,0
199,-332,592,0
419,-406,709,0
735,-267,955,0
907,220,902,0
997,603,739,0
958,875,656,0
922,1154,643,0
814,1164,397,0
788,1021,196,0
476,1048,28,0
86,1139,-99,0
-14,1047,-25,0
31,991,-15,0
175,989,12,0
341,818,235,0
395,583,575,0
370,495,1010,0
572,820,1000,0
731,615,722,0
597,971,343,0
538,1054,128,0
533,1003,88,0
674,804,99,0
698,714,187,0
647,621,252,0
524,561,221,0
465,510,164,0
446,482,221,0
469,468,272,0
490,475,268,0
689,547,280,0
895,706,323,0
1050,785,263,0
1157,785,320,0
1021,682,554,0
1035,449,556,0
1094,55,332,0
976,-207,335,0
735,-134,344,0
628,116,315,0
604,292,328,0
605,324,348,0
635,295,393,0
610,233,407,0
703,232,372,0
1042,268,362,0
1304,253,351,0
1436,257,277,0
1332,266,337,0
1042,341,389,0
1040,396,265,0
1087,342,227,0
1046,204,222,0
895,161,221,0
815,166,205,0
819,168,190,0
818,143,154,0
774,126,134,0
708,142,133,0
772,177,103,0
905,179,102,0
963,215,157,0
1099,257,244,0
1218,296,374,0
1170,243,471,0
1067,128,387,0
1104,-3,213,0
971,-64,143,0
779,16,195,0
674,121,248,0
647,249,253,0
654,309,242,0
695,295,293,0
722,255,335,0
779,249,362,0
1100,247,413,0
1266,136,307,0
1321,48,171,0
1330,87,259,0
1078,290,373,0
992,464,364,0
1186,405,322,0
1250,186,277,0
1115,-15,204,0
977,-69,174,0
904,4,148,0
855,115,105,0
800,198,93,0
698,224,100,0
603,230,93,0
669,239,76,0
795,244,73,0
913,275,141,0
1137,312,243,0
1408,328,443,0
1251,216,451,0
984,-33,304,0
968,-255,305,0
944,-192,245,0
824,25,288,0
762,237,282,0
770,355,230,0
718,355,284,0
706,263,369,0
701,224,438,0
773,130,413,0
1042,61,320,0
1229,43,267,0
1294,125,241,0
1253,204,323,0
1089,330,425,0
970,405,362,0
1081,333,256,0
1093,171,247,0
931,78,272,0
802,94,278,0
773,129,248,0
746,130,202,0
712,113,204,0
723,125,194,0
864,157,167,0
1028,146,152,0
1097,205,182,0
1225,247,242,0
1103,258,337,0
987,196,408,0
1009,99,350,0
1045,5,233,0
912,-31,239,0
717,32,325,0
586,154,371,0
544,227,330,0
631,217,343,0
759,174,408,0
849,146,475,0
880,111,480,0
1061,87,455,0
1273,58,366,0
1326,102,292,0
1336,206,333,0
1142,357,427,0
1010,404,283,0
1060,306,194,0
1169,156,187,0
1098,84,166,0
975,114,159,0
878,156,153,0
806,179,135,0
754,170,118,0
721,159,114,0
776,173,126,0
926,161,152,0
958,153,187,0
1113,170,214,0
1217,187,256,0
1049,185,386,0
947,202,468,0
1068,101,327,0
1029,-30,158,0
827,-70,201,0
709,51,279,0
687,251,273,0
726,348,275,0
792,292,343,0
804,200,415,0
876,180,454,0
1127,205,513,0
1254,98,420,0
1297,32,364,0
1231,141,434,0
1122,370,500,0
1194,431,378,0
1319,263,300,0
1267,58,260,0
1050,36,253,0
895,116,198,0
890,144,153,0
825,105,127,0
696,92,112,0
565,105,94,0
556,139,85,0
719,148,84,0
865,209,83,0
1030,270,104,0
1195,362,217,0
1165,389,378,0
1067,372,448,0
1124,328,302,0
1156,113,218,0
1004,-117,252,0
831,-40,319,0
792,132,396,0
829,282,394,0
916,301,501,0
881,187,540,0
829,121,544,0
976,111,487,0
1233,127,417,0
1367,113,291,0
1369,165,238,0
1203,256,279,0
1056,409,282,0
1101,462,181,0
1122,317,111,0
1055,159,117,0
896,90,148,0
846,123,136,0
853,155,113,0
815,139,121,0
709,116,136,0
587,139,132,0
650,162,146,0
762,131,179,0
913,152,197,0
1167,175,228,0
1387,216,311,0
1267,205,465,0
1179,207,459,0
1117,155,278,0
961,-16,212,0
785,-36,264,0
720,85,290,0
749,226,301,0
776,266,308,0
798,247,388,0
774,266,462,0
942,287,502,0
1225,203,411,0
1336,71,286,0
1360,119,258,0
1185,332,338,0
1113,566,367,0
1274,413,261,0
1329,158,214,0
1098,-51,282,0
876,-89,249,0
689,-41,170,0
643,20,172,0
659,40,166,0
773,87,94,0
949,153,34,0
876,169,53,0
858,295,58,0
950,406,72,0
1022,469,145,0
1002,456,339,0
1087,310,479,0
1190,139,256,0
1060,-143,185,0
857,-206,295,0
736,16,397,0
715,254,433,0
817,288,492,0
802,178,563,0
818,126,535,0
1088,123,540,0
1417,97,407,0
1604,100,308,0
1417,166,354,0
1106,270,298,0
1042,357,182,0
1109,328,140,0
1032,193,129,0
853,154,100,0
822,175,82,0
858,204,63,0
881,178,37,0
853,149,27,0
762,170,45,0
837,207,66,0
907,213,79,0
921,229,116,0
981,226,157,0
975,220,277,0
919,250,464,0
1067,196,410,0
1156,132,176,0
1066,1,203,0
871,-19,325,0
792,145,353,0
794,250,318,0
827,276,383,0
839,208,462,0
782,168,471,0
949,201,479,0
1239,198,453,0
1334,119,317,0
1442,124,247,0
1271,206,293,0
986,345,266,0
966,397,192,0
1074,324,172,0
1054,186,141,0
904,102,107,0
814,87,89,0
773,134,92,0
761,175,83,0
725,185,76,0
712,193,83,0
854,195,88,0
938,190,121,0
1023,245,184,0
1139,277,272,0
1212,289,437,0
1113,213,499,0
1059,116,245,0
1066,-25,139,0
971,-31,192,0
800,90,275,0
738,268,253,0
753,269,282,0
829,170,297,0
821,118,317,0
979,95,327,0
1196,104,325,0
1262,110,243,0
1275,101,235,0
1092,249,285,0
916,379,305,0
1046,392,268,0
1168,304,275,0
1105,145,262,0
949,65,243,0
857,27,187,0
816,45,152,0
775,82,135,0
732,147,130,0
688,191,114,0
827,231,83,0
989,246,58,0
1074,304,102,0
1127,359,183,0
1153,423,329,0
986,350,419,0
897,165,303,0
1032,-12,176,0
1019,-81,124,0
813,-12,217,0
683,152,299,0
668,280,346,0
689,277,356,0
759,-63,488,0
716,20,458,0
877,-54,480,0
1208,281,470,0
1378,229,264,0
1375,131,192,0
1378,184,290,0
1126,341,254,0
945,352,183,0
992,292,219,0
983,207,212,0
877,114,181,0
833,67,177,0
830,91,150,0
771,141,132,0
645,173,140,0
601,183,141,0
793,188,142,0
981,176,144,0
1042,231,183,0
1278,305,308,0
1272,313,512,0
948,206,513,0
1083,-2,254,0
1097,-165,120,0
926,-123,108,0
716,23,195,0
637,258,292,0
638,363,427,0
695,370,568,0
832,297,752,0
683,-18,719,0
775,-244,446,0
1037,-319,234,0
1278,-235,92,0
1483,79,26,0
1390,307,467,0
1044,549,66,0
970,773,-29,0
1046,643,80,0
930,317,102,0
779,-13,120,0
736,-118,174,0
699,-63,229,0
673,80,249,0
665,162,280,0
678,175,310,0
831,161,293,0
993,127,303,0
1214,138,338,0
1525,172,405,0
1547,169,497,0
1000,165,481,0
933,121,289,0
1003,27,47,0
872,51,2,0
722,98,169,0
689,196,312,0
667,305,281,0
668,289,250,0
678,209,289,0
703,167,329,0
980,156,415,0
1245,63,440,0
1272,-3,268,0
1221,102,243,0
1125,246,368,0
1192,427,326,0
1219,387,270,0
1143,186,258,0
902,48,255,0
754,17,184,0
745,65,123,0
738,112,116,0
700,166,124,0
647,197,118,0
648,241,77,0
777,270,47,0
987,314,84,0
1258,349,256,0
1359,402,467,0
1286,277,462,0
1012,54,417,0
1022,-137,244,0
1040,-188,16,0
845,-12,43,0
684,200,195,0
643,336,300,0
592,358,246,0
654,314,148,0
782,263,143,0
808,227,193,0
1061,90,283,0
1229,298,245,0
1315,179,148,0
1301,123,238,0
1151,300,369,0
1013,446,336,0
1130,314,268,0
1107,102,228,0
924,-32,216,0
801,44,182,0
781,122,153,0
823,155,105,0
840,157,75,0
835,169,84,0
824,215,68,0
959,271,28,0
1047,332,22,0
1121,382,130,0
1203,360,264,0
1016,344,506,0
793,210,422,0
952,23,113,0
1063,-145,12,0
897,-148,125,0
696,6,286,0
635,288,353,0
592,383,329,0
611,324,308,0
657,157,395,0
868,-38,458,0
1252,415,426,0
1394,192,320,0
1475,63,238,0
1346,142,328,0
967,333,353,0
891,396,248,0
969,306,234,0
994,162,214,0
888,114,177,0
837,129,159,0
866,152,119,0
883,165,89,0
837,163,85,0
778,166,108,0
843,205,119,0
989,224,121,0
1020,238,165,0
1102,238,225,0
1157,234,320,0
989,205,427,0
919,135,386,0
1053,42,208,0
960,-43,124,0
769,0,187,0
706,109,261,0
722,236,259,0
757,282,238,0
820,236,268,0
808,184,282,0
825,172,292,0
1106,182,347,0
1281,114,307,0
1381,73,220,0
1374,160,318,0
1111,302,369,0
928,336,243,0
1028,242,235,0
1064,114,217,0
942,68,173,0
825,86,148,0
779,145,144,0
814,169,126,0
800,164,101,0
775,146,98,0
845,160,102,0
1009,192,84,0
1034,229,96,0
1086,281,155,0
1080,291,272,0
977,286,429,0
1063,215,405,0
1153,59,182,0
923,-51,92,0
701,-14,158,0
639,90,202,0
669,238,258,0
729,291,295,0
847,246,341,0
859,193,397,0
992,47,477,0
1290,229,505,0
1293,161,286,0
1376,82,220,0
1259,212,254,0
879,374,233,0
804,393,196,0
1065,338,240,0
1114,212,164,0
942,112,81,0
823,45,109,0
801,101,134,0
802,185,110,0
774,206,102,0
719,189,112,0
764,174,116,0
941,185,102,0
1025,203,137,0
1103,258,223,0
1220,293,366,0
1085,230,513,0
930,66,384,0
1115,-151,226,0
1098,-216,157,0
866,-48,233,0
701,172,286,0
628,346,253,0
583,352,210,0
617,256,218,0
676,181,256,0
748,189,292,0
1104,224,361,0
1288,148,246,0
1342,81,174,0
1267,126,350,0
1061,297,407,0
1080,365,266,0
1249,230,286,0
1129,113,262,0
915,78,261,0
825,93,258,0
826,119,219,0
825,138,185,0
851,127,213,0
822,92,263,0
866,98,186,0
988,65,127,0
995,57,143,0
1070,103,151,0
1122,174,164,0
999,267,273,0
814,283,378,0
847,211,254,0
889,147,114,0
797,82,156,0
709,88,274,0
698,158,294,0
757,180,268,0
866,110,309,0
929,-25,390,0
901,-561,561,0
1030,114,473,0
1136,877,604,0
1351,358,405,0
1404,88,426,0
1384,369,704,0
1176,356,666,0
1306,172,439,0
1344,-151,321,0
1107,-159,307,0
945,25,247,0
860,175,180,0
770,239,87,0
696,257,10,0
647,218,25,0
646,199,62,0
819,208,74,0
917,190,227,0
872,211,334,0
835,185,309,0
844,107,440,0
953,166,501,0
1085,114,287,0
1069,76,114,0
1000,22,265,0
965,48,395,0
994,108,524,0
956,54,597,0
916,-19,675,0
870,-9,747,0
888,66,677,0
1192,118,530,0
1340,118,352,0
1390,125,265,0
1403,143,338,0
1257,372,369,0
1151,482,160,0
1282,403,39,0
1281,225,52,0
1075,109,68,0
929,113,61,0
841,167,49,0
741,197,39,0
650,189,27,0
597,174,36,0
614,172,47,0
746,181,43,0
903,215,98,0
1004,257,236,0
1153,299,397,0
1308,274,584,0
1198,87,374,0
1154,-95,213,0
1136,-228,182,0
1003,-80,320,0
861,152,394,0
808,301,398,0
775,277,380,0
769,186,411,0
773,122,446,0
771,88,422,0
911,96,416,0
1240,91,402,0
1403,13,231,0
1374,62,149,0
1314,170,268,0
1131,370,335,0
1072,389,210,0
1219,265,167,0
1168,141,179,0
977,71,162,0
810,76,143,0
711,124,133,0
646,146,113,0
605,141,99,0
571,139,95,0
600,158,99,0
837,192,113,0
1064,213,180,0
1182,279,294,0
1334,295,386,0
1322,223,522,0
1103,87,404,0
1141,-57,132,0
1106,-43,89,0
846,61,215,0
668,163,308,0
640,244,302,0
684,270,322,0
719,215,397,0
677,170,461,0
846,158,456,0
1227,136,501,0
1461,39,445,0
1430,13,285,0
1237,75,320,0
952,231,352,0
1040,368,257,0
1142,315,232,0
1057,162,242,0
929,62,245,0
933,51,280,0
996,68,243,0
973,42,217,0
776,5,221,0
614,43,230,0
650,85,191,0
669,101,165,0
815,142,148,0
987,191,183,0
1230,270,335,0
1138,244,481,0
1002,164,369,0
964,105,167,0
896,57,120,0
776,37,203,0
705,134,270,0
687,237,290,0
757,273,337,0
840,223,408,0
879,146,481,0
1055,110,545,0
1371,52,579,0
1460,-28,395,0
1422,-6,375,0
1240,125,503,0
1053,301,440,0
1050,308,342,0
1185,191,313,0
1193,66,208,0
1044,10,128,0
963,35,96,0
917,114,72,0
861,209,59,0
786,242,50,0
704,243,50,0
723,240,36,0
762,216,43,0
771,245,118,0
870,261,198,0
1033,269,299,0
1132,247,442,0
1162,165,358,0
1186,27,167,0
1106,-92,127,0
945,-49,229,0
844,140,304,0
805,313,339,0
789,306,362,0
811,201,446,0
786,67,503,0
954,53,477,0
1350,56,501,0
1478,30,325,0
1501,90,312,0
1245,185,370,0
981,333,262,0
1030,375,190,0
1162,278,180,0
1064,177,136,0
969,130,101,0
894,138,83,0
833,163,77,0
782,171,58,0
704,170,54,0
739,185,53,0
922,180,42,0
946,193,70,0
1028,252,108,0
1036,275,178,0
1033,304,302,0
1027,316,451,0
1000,256,349,0
1027,84,105,0
964,-84,75,0
867,-87,192,0
845,67,345,0
888,245,433,0
939,292,463,0
938,199,497,0
860,86,490,0
938,44,433,0
1170,68,439,0
1269,43,327,0
1332,113,220,0
1230,194,281,0
1025,373,279,0
1059,530,146,0
1157,545,49,0
1110,390,30,0
981,291,-1,0
881,277,-19,0
865,305,-17,0
851,297,-28,0
826,272,-40,0
785,266,-17,0
846,327,-10,0
888,395,10,0
1145,440,17,0
1077,449,106,0
941,588,307,0
940,590,156,0
1064,362,-85,0
1196,31,-23,0
1098,-76,166,0
935,149,238,0
845,312,136,0
829,320,76,0
854,238,46,0
841,212,8,0
811,226,-14,0
852,263,-15,0
961,280,3,0
1131,333,-19,0
1175,785,-179,0
1009,631,-166,0
1147,286,-103,0
1018,276,9,0
867,325,160,0
743,325,264,0
752,431,254,0
868,421,167,0
978,372,128,0
1041,264,180,0
1031,150,233,0
979,122,229,0
960,153,192,0
975,155,155,0
986,149,129,0
884,154,88,0
833,199,73,0
913,273,58,0
960,386,34,0
996,447,33,0
1018,442,56,0
983,437,96,0
967,396,62,0
1112,319,-8,0
1197,148,38,0
1154,-19,106,0
1118,-63,114,0
1080,-6,100,0
1024,69,93,0
947,118,101,0
854,108,105,0
771,98,45,0
706,95,5,0
683,136,18,0
666,191,54,0
710,236,119,0
859,229,136,0
1127,252,120,0
1431,324,131,0
1477,383,174,0
1231,407,283,0
1122,370,304,0
1098,285,249,0
1039,85,217,0
928,-177,312,0
805,26,379,0
778,153,444,0
846,170,380,0
1038,204,282,0
1392,132,138,0
1465,-39,10,0
1501,-12,1,0
1453,185,23,0
1113,464,106,0
774,487,209,0
681,293,190,0
764,173,144,0
799,92,126,0
655,42,121,0
563,46,130,0
558,99,166,0
580,150,197,0
627,159,206,0
667,152,250,0
759,159,330,0
940,161,397,0
1241,107,410,0
1319,-20,287,0
1358,-42,278,0
1416,74,478,0
1192,262,567,0
1054,241,378,0
1308,32,324,0
1276,-97,270,0
1122,-48,240,0
1015,42,233,0
931,154,216,0
862,191,179,0
726,171,131,0
554,147,113,0
435,164,113,0
452,196,119,0
599,233,137,0
821,268,184,0
1223,299,240,0
1587,330,318,0
1598,284,370,0
1139,137,407,0
974,-73,374,0
1010,-218,239,0
934,-144,178,0
757,7,233,0
619,180,311,0
583,301,328,0
633,306,316,0
692,254,331,0
739,227,400,0
1110,141,445,0
1280,-34,252,0
1246,-41,230,0
1243,92,422,0
1139,325,481,0
1399,364,325,0
1481,150,234,0
1210,-28,230,0
932,-31,203,0
829,66,177,0
805,137,158,0
802,150,145,0
746,144,129,0
745,145,99,0
863,172,37,0
842,212,60,0
944,265,217,0
1035,254,293,0
1145,228,284,0
1037,123,296,0
858,21,297,0
836,-52,202,0
938,-38,127,0
915,57,181,0
874,183,318,0
878,300,464,0
895,341,471,0
925,246,473,0
925,86,497,0
869,-16,495,0
940,-43,502,0
1141,-1,453,0
1255,47,278,0
1336,180,313,0
1453,350,437,0
1301,438,346,0
1203,309,213,0
1292,176,172,0
1299,67,93,0
1148,43,84,0
1000,87,104,0
859,158,84,0
733,209,49,0
619,222,32,0
525,213,27,0
569,203,0,0
729,216,-31,0
929,294,9,0
1067,304,125,0
1253,316,255,0
1249,345,492,0
1192,263,330,0
1252,23,-53,0
1202,-242,122,0
1042,-268,317,0
888,106,424,0
763,494,388,0
737,452,392,0
813,271,436,0
882,57,450,0
915,-48,440,0
1149,-91,431,0
1303,-63,307,0
1368,37,184,0
1392,173,233,0
1262,349,312,0
1100,454,249,0
1183,402,167,0
1251,264,135,0
1132,145,110,0
977,95,100,0
909,95,91,0
831,121,68,0
107,210,-20,0
645,405,329,0
421,102,301,0
945,455,176,0
1163,336,-59,0
1459,70,-52,0
1383,-2,299,0
995,25,559,0
1085,300,423,0
1508,108,427,0
913,-600,289,0
430,-689,214,0
316,-273,494,0
361,136,507,0
452,260,376,0
609,183,426,0
824,129,441,0
1252,144,492,0
1724,251,470,0
1568,235,253,0
1485,212,348,0
1146,316,467,0
898,441,354,0
989,417,310,0
1177,236,323,0
1186,45,326,0
1183,12,296,0
1210,60,245,0
1130,54,208,0
944,51,200,0
786,72,203,0
642,89,146,0
606,90,93,0
644,121,113,0
781,170,176,0
1021,169,197,0
1260,174,230,0
1268,171,393,0
1304,149,399,0
1244,118,236,0
1040,-19,104,0
892,-26,158,0
863,130,233,0
843,334,225,0
830,396,227,0
844,321,279,0
852,292,386,0
1018,352,489,0
1170,307,449,0
1306,118,374,0
1418,36,402,0
1276,149,412,0
1088,246,344,0
1337,215,299,0
1475,59,253,0
1414,-24,197,0
1170,18,147,0
1006,125,142,0
932,179,128,0
776,174,87,0
652,135,62,0
571,131,58,0
607,174,53,0
727,196,71,0
837,216,137,0
1079,208,194,0
1329,187,245,0
1295,163,379,0
1243,193,541,0
1210,38,363,0
1128,-139,114,0
1080,-121,228,0
973,70,421,0
895,401,397,0
820,457,388,0
777,319,389,0
793,181,379,0
814,111,344,0
987,131,355,0
1190,130,337,0
1333,148,277,0
1372,220,340,0
1340,350,415,0
1158,357,325,0
1206,205,218,0
1308,60,165,0
1442,-26,169,0
1266,-4,127,0
1059,102,126,0
935,178,120,0
741,208,99,0
590,184,84,0
496,138,73,0
502,134,67,0
627,145,74,0
742,174,116,0
963,224,160,0
1259,240,229,0
1388,261,464,0
1498,277,570,0
1375,165,256,0
1140,-54,190,0
962,-120,273,0
863,70,309,0
819,256,332,0
810,303,377,0
810,270,366,0
826,213,369,0
825,167,371,0
1026,177,372,0
1258,115,334,0
1343,56,208,0
1298,127,222,0
1122,281,347,0
1015,406,339,0
1243,316,234,0
1340,122,153,0
1194,-9,156,0
1066,-5,177,0
1036,71,170,0
930,123,144,0
797,127,118,0
656,120,105,0
562,129,108,0
605,148,106,0
719,180,97,0
857,217,102,0
1135,253,130,0
1407,273,179,0
1468,332,376,0
1251,295,483,0
1068,143,243,0
1055,-68,149,0
972,-110,203,0
847,-1,307,0
755,224,347,0
721,283,347,0
747,214,362,0
761,127,423,0
788,73,486,0
951,6,492,0
1095,-48,335,0
1187,-17,270,0
1190,90,379,0
1532,198,366,0
1658,137,204,0
1340,103,251,0
1110,103,313,0
1020,174,296,0
956,140,186,0
892,51,122,0
732,9,122,0
617,87,158,0
678,187,180,0
816,289,190,0
846,392,250,0
892,409,294,0
977,399,296,0
980,358,333,0
825,330,406,0
728,382,522,0
739,382,536,0
771,334,499,0
868,291,477,0
964,291,509,0
963,298,515,0
927,288,510,0
925,241,528,0
906,188,531,0
871,152,511,0
873,145,451,0
905,128,386,0
908,127,341,0
918,143,291,0
897,154,231,0
886,172,171,0
1017,230,128,0
1197,310,158,0
1242,379,182,0
1103,395,270,0
1082,324,232,0
1131,243,166,0
1202,107,204,0
1070,44,239,0
887,69,259,0
813,90,267,0
793,90,229,0
778,84,213,0
790,64,225,0
793,79,213,0
870,108,231,0
878,194,294,0
907,281,330,0
1035,355,363,0
1285,372,398,0
1193,293,383,0
943,289,440,0
891,358,481,0
836,345,435,0
748,247,397,0
695,188,428,0
702,223,407,0
783,219,386,0
846,197,399,0
839,194,418,0
801,175,403,0
829,173,393,0
877,163,402,0
958,155,349,0
1073,195,291,0
1145,256,289,0
1154,353,355,0
1226,394,391,0
1263,259,258,0
1167,89,217,0
1041,35,229,0
877,117,245,0
784,197,187,0
726,201,153,0
786,136,149,0
846,142,147,0
1029,154,116,0
1122,167,103,0
1221,222,107,0
1225,263,151,0
1016,290,402,0
977,307,549,0
1005,151,289,0
969,-82,62,0
766,-195,79,0
640,-137,214,0
617,76,329,0
655,263,376,0
729,298,403,0
774,240,415,0
858,173,423,0
1128,90,413,0
1357,-27,328,0
1440,-32,205,0
1367,125,332,0
1200,358,423,0
1164,467,255,0
1209,331,205,0
1140,170,180,0
1022,189,114,0
1011,590,-66,0
1127,215,-47,0
936,-130,109,0
637,-210,199,0
533,-87,176,0
603,-73,128,0
727,-14,36,0
1052,-45,29,0
1263,111,-52,0
1289,387,-5,0
1203,546,305,0
1131,429,506,0
978,322,439,0
658,243,228,0
500,-41,119,0
572,-189,207,0
714,4,365,0
951,292,456,0
1116,414,593,0
1244,382,673,0
1438,279,633,0
1465,133,464,0
1330,111,493,0
1192,186,479,0
1296,248,347,0
1376,147,361,0
1369,31,355,0
1183,44,274,0
1060,89,191,0
938,108,169,0
809,105,176,0
672,99,155,0
578,85,102,0
615,103,58,0
630,128,64,0
770,211,135,0
978,218,204,0
1182,237,333,0
1352,222,465,0
1328,138,217,0
1210,62,0,0
1032,29,153,0
961,24,393,0
996,130,451,0
964,180,611,0
918,105,711,0
820,149,706,0
977,253,628,0
1201,326,539,0
1421,329,382,0
1487,240,363,0
1273,291,403,0
1341,398,234,0
1479,395,115,0
1447,200,122,0
1265,119,112,0
1143,131,115,0
1035,170,73,0
914,183,35,0
803,156,30,0
662,140,40,0
604,167,57,0
612,165,63,0
593,171,84,0
691,219,129,0
860,224,192,0
1046,210,336,0
1327,228,409,0
1539,192,325,0
1421,48,98,0
1205,-31,301,0
1036,107,383,0
980,320,349,0
921,313,361,0
887,313,461,0
820,275,520,0
785,248,521,0
1071,233,520,0
1396,157,342,0
1542,97,225,0
1482,174,278,0
1215,344,309,0
1145,451,195,0
1244,368,155,0
1227,206,124,0
1071,104,102,0
953,83,76,0
888,111,62,0
836,138,43,0
776,144,25,0
714,154,25,0
831,188,10,0
872,196,4,0
885,252,60,0
950,301,106,0
894,262,290,0
1075,241,481,0
1256,224,334,0
1155,-2,96,0
951,-130,82,0
902,-73,270,0
945,210,345,0
992,432,296,0
1013,343,433,0
917,193,563,0
980,156,613,0
1235,122,596,0
1388,44,403,0
1448,81,366,0
1309,178,432,0
1157,312,337,0
1281,350,240,0
1389,187,217,0
1282,61,166,0
1095,51,124,0
980,120,94,0
927,171,78,0
840,173,54,0
694,150,31,0
575,149,24,0
592,184,22,0
587,207,54,0
681,269,122,0
892,274,171,0
1115,264,265,0
1306,268,532,0
1437,275,474,0
1280,-34,106,0
1078,-181,36,0
929,-171,217,0
867,98,306,0
895,377,311,0
913,402,340,0
926,292,427,0
867,207,468,0
1070,241,509,0
1278,196,466,0
1374,99,332,0
1381,58,362,0
1171,221,379,0
1051,385,263,0
1154,418,188,0
1275,281,215,0
1195,186,163,0
1072,153,79,0
1012,137,45,0
944,126,32,0
860,124,13,0
755,145,12,0
670,199,27,0
732,237,29,0
749,235,67,0
805,266,143,0
888,228,193,0
988,240,293,0
1022,211,456,0
1085,203,391,0
1242,50,86,0
1304,-20,71,0
1138,40,302,0
985,240,410,0
875,404,335,0
823,348,327,0
822,228,387,0
805,174,444,0
856,201,507,0
1144,247,547,0
1317,151,411,0
1398,31,295,0
1403,96,284,0
1176,269,301,0
1048,420,257,0
1156,440,207,0
1253,314,180,0
1161,161,132,0
1014,75,102,0
936,57,79,0
890,105,71,0
818,149,64,0
702,182,69,0
640,199,77,0
757,208,58,0
782,197,65,0
829,235,114,0
922,249,194,0
1031,274,309,0
1140,285,452,0
1156,209,328,0
1185,43,76,0
1078,-45,164,0
919,15,311,0
873,171,340,0
875,288,355,0
911,252,406,0
920,152,461,0
852,97,482,0
966,94,495,0
1238,97,475,0
1441,50,332,0
1467,82,291,0
1228,198,376,0
1023,370,302,0
1084,456,200,0
1216,369,157,0
1197,219,106,0
1067,138,54,0
980,105,33,0
905,135,21,0
835,171,-1,0
745,203,-6,0
680,239,23,0
761,252,41,0
777,231,50,0
825,249,91,0
879,264,124,0
954,272,209,0
1093,318,463,0
1309,313,541,0
1275,131,45,0
1087,-42,47,0
896,-162,244,0
842,0,317,0
847,247,335,0
822,328,365,0
819,292,437,0
808,213,483,0
1009,181,530,0
1316,80,474,0
1484,-33,256,0
1403,-1,271,0
1167,165,318,0
1140,361,282,0
1292,352,252,0
1305,210,206,0
1128,129,168,0
998,106,145,0
897,118,127,0
767,125,103,0
665,134,98,0
604,136,96,0
634,168,53,0
814,181,4,0
868,198,44,0
955,248,116,0
1172,211,156,0
1288,223,293,0
1246,145,451,0
1141,0,334,0
1044,-95,239,0
824,-29,288,0
708,119,361,0
725,271,382,0
800,255,408,0
900,155,474,0
946,100,525,0
972,111,532,0
1175,122,503,0
1347,91,361,0
1368,97,317,0
1317,196,434,0
1216,363,472,0
1300,348,395,0
1469,134,426,0
1506,-96,366,0
1296,-183,213,0
843,-13,194,0
696,119,175,0
616,177,121,0
583,181,112,0
634,145,47,0
670,208,-38,0
815,335,31,0
1017,320,166,0
1078,273,300,0
1001,188,446,0
1077,74,449,0
1132,-5,330,0
1049,36,249,0
901,140,284,0
885,269,406,0
903,320,423,0
1000,266,455,0
1065,39,555,0
956,-22,618,0
1121,-27,632,0
1313,40,505,0
1373,101,334,0
1393,160,365,0
1263,261,423,0
1178,369,354,0
1363,328,269,0
1527,168,254,0
1353,72,240,0
1113,53,225,0
946,76,197,0
802,98,171,0
713,110,147,0
643,104,103,0
629,99,64,0
674,102,30,0
638,144,43,0
743,231,127,0
860,256,209,0
1039,305,320,0
1268,276,470,0
1304,177,287,0
1242,26,108,0
1118,-103,315,0
1007,-83,410,0
1020,151,433,0
1000,272,507,0
954,254,602,0
856,219,641,0
823,199,587,0
1043,253,510,0
1354,328,352,0
1496,304,306,0
1382,254,431,0
1105,297,454,0
1182,329,290,0
1465,231,180,0
1449,68,123,0
1270,-1,157,0
1121,57,132,0
1004,161,90,0
919,213,67,0
824,212,64,0
690,174,79,0
660,176,52,0
695,173,76,0
736,181,140,0
815,191,139,0
1009,180,243,0
1108,184,416,0
1197,99,429,0
1225,-93,185,0
1197,-197,63,0
1090,-141,272,0
1013,182,442,0
957,406,375,0
893,370,355,0
843,172,421,0
771,78,454,0
812,124,476,0
1101,173,482,0
1357,155,325,0
1400,178,259,0
1343,241,437,0
1354,379,417,0
1378,282,251,0
1452,77,191,0
1365,-28,191,0
1152,33,163,0
987,107,130,0
858,158,106,0
715,177,85,0
550,164,67,0
463,170,56,0
564,172,50,0
625,201,82,0
803,288,149,0
961,368,247,0
1165,404,422,0
1257,349,502,0
1374,139,236,0
1353,-152,174,0
1069,-248,334,0
793,-88,387,0
747,233,384,0
758,392,469,0
809,330,571,0
838,179,604,0
821,28,548,0
1033,-25,497,0
1305,-39,422,0
1392,0,227,0
1349,104,180,0
1154,269,298,0
965,450,344,0
1091,476,285,0
1253,325,314,0
1199,69,307,0
1034,-37,327,0
896,120,456,0
754,314,409,0
534,495,347,0
349,499,312,0
290,413,275,0
302,446,331,0
210,416,503,0
226,535,659,0
346,573,768,0
357,675,861,0
519,307,831,0
623,426,712,0
600,294,751,0
434,353,710,0
344,384,671,0
291,371,696,0
278,347,669,0
329,332,667,0
360,351,662,0
350,373,680,0
419,528,733,0
610,667,797,0
719,621,764,0
734,627,762,0
706,638,718,0
788,624,629,0
931,614,573,0
994,452,524,0
891,286,464,0
746,224,378,0
693,167,339,0
664,90,279,0
673,90,237,0
788,139,245,0
1056,196,207,0
1127,238,197,0
1236,271,199,0
1237,279,313,0
1044,290,467,0
951,216,350,0
1012,103,283,0
848,-83,346,0
645,-66,347,0
645,110,337,0
704,172,343,0
752,174,402,0
724,162,432,0
758,179,421,0
1030,164,433,0
1329,80,377,0
1398,72,260,0
1304,170,335,0
1148,340,350,0
1152,356,222,0
1197,185,226,0
1088,46,226,0
882,66,209,0
764,125,192,0
720,149,174,0
696,126,148,0
652,94,122,0
610,110,122,0
742,190,120,0
887,197,138,0
974,265,188,0
1148,265,232,0
1263,238,393,0
1266,131,408,0
1300,-71,350,0
1130,-118,341,0
883,157,329,0
692,220,314,0
587,203,287,0
559,191,264,0
657,171,319,0
760,185,364,0
809,108,375,0
1134,138,405,0
1282,122,359,0
1323,117,281,0
1264,195,300,0
1013,351,328,0
962,315,288,0
1143,202,264,0
1107,147,230,0
929,129,219,0
792,167,214,0
767,174,185,0
796,171,150,0
780,125,136,0
731,115,125,0
815,193,127,0
981,146,139,0
1014,182,182,0
1163,236,202,0
1227,194,327,0
1110,98,440,0
1032,13,418,0
1078,-116,342,0
985,-33,287,0
770,153,279,0
655,172,271,0
608,169,291,0
627,190,282,0
717,144,318,0
783,140,359,0
848,194,370,0
1062,205,407,0
1159,198,378,0
1325,189,328,0
1282,271,324,0
1019,347,343,0
925,326,316,0
1084,279,268,0
1062,181,228,0
849,182,211,0
743,190,221,0
780,189,199,0
832,184,154,0
852,154,128,0
811,196,119,0
739,182,111,0
866,252,134,0
990,215,126,0
1123,224,169,0
1258,225,235,0
1115,160,313,0
878,144,428,0
943,77,441,0
1093,11,342,0
1002,47,300,0
830,167,314,0
748,203,284,0
704,196,240,0
712,165,229,0
734,171,254,0
749,157,281,0
853,197,279,0
1194,228,298,0
1382,210,223,0
1389,135,214,0
1241,127,264,0
1000,88,338,0
1015,36,328,0
1060,4,320,0
993,-12,268,0
907,35,167,0
851,184,134,0
869,256,175,0
876,236,151,0
822,158,125,0
762,113,127,0
853,126,147,0
855,91,160,0
862,149,232,0
972,137,245,0
1063,98,270,0
1038,102,349,0
1091,114,454,0
1151,33,405,0
1076,47,340,0
856,130,358,0
737,184,396,0
706,156,411,0
759,113,426,0
805,114,478,0
749,170,532,0
761,187,589,0
916,197,557,0
1196,187,486,0
1331,282,449,0
1233,405,515,0
1137,410,506,0
1338,81,353,0
1125,-25,318,0
912,9,322,0
806,98,328,0
757,183,277,0
735,194,195,0
668,297,143,0
652,391,130,0
682,370,121,0
699,395,154,0
739,414,260,0
881,368,459,0
1051,348,646,0
1099,318,693,0
1062,89,671,0
906,-2,613,0
724,-30,585,0
581,39,548,0
557,108,523,0
642,171,521,0
798,162,517,0
919,138,504,0
944,117,502,0
947,97,469,0
1079,112,418,0
1185,129,335,0
1183,178,230,0
1157,293,207,0
1092,366,247,0
1007,332,285,0
1156,185,283,0
1239,137,307,0
1262,153,289,0
1142,60,335,0
995,54,304,0
797,85,167,0
683,130,213,0
624,198,236,0
610,270,249,0
630,279,262,0
645,291,270,0
662,306,298,0
749,327,368,0
883,290,405,0
1034,221,452,0
1065,183,550,0
1049,158,581,0
1033,84,496,0
989,66,430,0
845,146,409,0
708,198,390,0
673,223,390,0
705,212,392,0
741,197,435,0
713,199,448,0
785,258,477,0
965,341,472,0
1145,353,404,0
1218,375,347,0
1108,461,332,0
1005,489,343,0
1036,463,264,0
1064,405,228,0
964,324,218,0
814,272,224,0
740,237,205,0
728,205,178,0
733,211,158,0
709,216,165,0
712,245,157,0
949,263,152,0
1057,242,152,0
1110,290,196,0
1147,314,273,0
1144,239,332,0
1052,211,461,0
1070,103,423,0
1065,47,314,0
919,75,289,0
741,133,289,0
631,170,291,0
593,131,278,0
628,164,282,0
655,183,312,0
666,210,379,0
868,242,417,0
1196,271,377,0
1309,260,317,0
1197,345,323,0
1005,424,359,0
955,400,338,0
1087,344,323,0
1123,263,297,0
936,187,287,0
795,152,268,0
740,151,247,0
723,138,206,0
746,112,170,0
728,112,145,0
892,170,148,0
1050,187,97,0
1089,238,137,0
1176,250,195,0
1169,210,235,0
1050,139,366,0
1023,56,386,0
1027,-21,269,0
957,62,240,0
757,102,275,0
615,150,271,0
582,118,288,0
635,106,329,0
680,103,339,0
699,130,404,0
928,168,450,0
1319,136,413,0
1529,70,296,0
1456,218,300,0
1104,329,337,0
956,301,292,0
1015,251,260,0
1043,186,235,0
928,123,227,0
836,126,220,0
822,129,202,0
841,119,163,0
859,122,134,0
832,133,131,0
936,171,122,0
967,170,134,0
939,211,176,0
1008,185,239,0
1097,160,331,0
1033,166,545,0
951,159,519,0
892,134,490,0
731,138,492,0
616,173,514,0
595,300,513,0
690,281,581,0
705,295,593,0
664,270,580,0
644,250,559,0
786,334,510,0
1057,359,445,0
1256,323,349,0
1276,331,336,0
965,312,346,0
823,267,341,0
912,204,302,0
968,140,228,0
892,133,204,0
805,184,193,0
784,215,179,0
821,207,132,0
828,220,134,0
838,219,135,0
967,197,69,0
1104,216,100,0
1227,272,150,0
1252,249,172,0
1085,227,290,0
912,166,374,0
905,73,312,0
1013,10,241,0
976,67,234,0
788,153,238,0
708,179,228,0
767,112,246,0
786,63,236,0
782,79,249,0
744,102,262,0
869,157,198,0
1124,150,172,0
1207,114,101,0
1228,174,39,0
1239,248,205,0
1042,180,287,0
997,94,233,0
1140,-4,153,0
1033,-41,57,0
834,-93,16,0
751,64,103,0
793,191,149,0
809,151,79,0
885,209,37,0
877,244,41,0
995,238,21,0
1168,178,47,0
1145,177,119,0
1171,116,146,0
1197,83,256,0
1037,14,263,0
980,-11,299,0
1040,-95,220,0
996,-144,131,0
784,-61,129,0
655,7,141,0
665,26,142,0
733,45,138,0
795,80,172,0
797,108,204,0
787,117,243,0
977,129,288,0
1150,93,262,0
1301,84,184,0
1372,193,232,0
1191,296,281,0
949,271,239,0
1017,132,144,0
1117,15,124,0
973,-53,85,0
818,-118,69,0
766,-94,75,0
786,93,101,0
835,105,52,0
868,152,18,0
924,204,4,0
1162,208,-34,0
1187,227,33,0
1224,189,115,0
1252,127,184,0
1047,67,275,0
946,-43,300,0
1022,-186,193,0
993,-187,98,0
807,-39,111,0
668,40,165,0
609,45,180,0
644,49,168,0
745,54,219,0
749,74,246,0
786,188,261,0
1043,194,277,0
1303,158,245,0
1311,122,138,0
1167,196,239,0
1027,345,306,0
1150,277,233,0
1241,124,215,0
1055,109,194,0
826,161,267,0
757,136,257,0
765,117,214,0
805,117,157,0
807,136,115,0
874,158,108,0
1091,265,66,0
1149,255,87,0
1162,317,165,0
1146,207,232,0
999,122,333,0
996,-27,350,0
1035,-112,248,0
959,10,228,0
793,113,217,0
626,162,222,0
586,163,201,0
601,183,194,0
665,165,214,0
699,145,256,0
802,220,304,0
1148,207,380,0
1361,170,303,0
1463,153,276,0
1283,314,361,0
1037,360,352,0
1108,267,311,0
1120,219,259,0
952,172,241,0
808,159,244,0
787,158,222,0
809,157,165,0
819,173,131,0
793,192,110,0
752,198,116,0
907,211,88,0
1057,205,80,0
1091,264,113,0
1109,282,192,0
1118,182,272,0
1033,119,400,0
959,-7,402,0
1011,-81,343,0
1003,-29,276,0
866,118,280,0
717,214,255,0
631,196,232,0
655,137,263,0
740,108,261,0
761,87,356,0
1096,80,414,0
1195,58,331,0
1242,44,250,0
1218,194,341,0
1128,278,383,0
1143,188,338,0
1244,112,322,0
1098,86,210,0
889,111,249,0
789,116,248,0
784,147,206,0
744,104,144,0
699,120,141,0
684,129,162,0
891,144,174,0
1047,106,148,0
1071,180,153,0
1060,201,218,0
978,125,284,0
948,105,373,0
1066,28,413,0
1098,-34,385,0
989,38,392,0
835,98,424,0
765,122,413,0
768,131,396,0
816,135,420,0
842,121,442,0
809,106,457,0
869,140,464,0
1065,164,458,0
1206,113,369,0
1314,143,294,0
1173,242,316,0
1023,262,347,0
1124,169,276,0
1256,130,237,0
1191,113,187,0
955,139,189,0
834,162,176,0
769,158,145,0
707,141,116,0
654,158,109,0
628,173,111,0
744,211,110,0
851,243,117,0
970,309,167,0
1102,319,252,0
1174,277,400,0
1060,189,554,0
1040,108,604,0
1123,95,577,0
1036,82,519,0
816,134,482,0
674,191,435,0
632,220,377,0
659,222,330,0
693,240,325,0
689,253,340,0
728,282,337,0
951,308,344,0
1145,307,315,0
1264,289,278,0
1192,358,301,0
983,400,340,0
1006,351,310,0
1148,309,281,0
1105,248,259,0
960,208,265,0
881,186,252,0
844,163,216,0
772,157,177,0
723,175,175,0
688,213,213,0
705,274,220,0
871,329,253,0
903,339,291,0
987,327,334,0
1043,276,407,0
1021,195,441,0
943,111,471,0
951,93,479,0
982,69,431,0
888,64,401,0
735,107,402,0
635,146,393,0
629,164,373,0
677,194,376,0
699,245,405,0
683,258,453,0
713,276,474,0
853,301,475,0
1030,287,454,0
1063,310,397,0
983,416,427,0
991,457,478,0
1152,423,402,0
1260,341,358,0
1194,273,295,0
989,238,271,0
805,188,276,0
672,136,231,0
648,116,171,0
613,82,156,0
631,127,198,0
782,203,239,0
949,255,204,0
1122,331,244,0
1246,335,277,0
1284,280,296,0
1142,219,302,0
922,158,329,0
821,129,331,0
889,119,328,0
906,137,319,0
833,123,339,0
739,144,375,0
685,132,370,0
673,167,367,0
666,205,384,0
674,283,388,0
725,319,415,0
812,343,433,0
948,338,428,0
1087,335,400,0
1101,387,378,0
1094,447,403,0
964,403,401,0
931,345,371,0
1009,284,331,0
1021,261,269,0
915,238,229,0
820,205,215,0
762,215,200,0
721,197,179,0
703,205,185,0
709,252,202,0
901,275,190,0
1088,283,226,0
1135,302,267,0
1171,277,328,0
1142,224,375,0
980,181,406,0
984,89,408,0
1094,63,326,0
1011,84,280,0
741,102,265,0
594,153,299,0
580,104,336,0
567,68,270,0
541,178,190,0
608,208,373,0
740,243,401,0
1067,313,380,0
1375,317,353,0
1467,371,333,0
1295,487,386,0
944,392,368,0
950,323,360,0
993,284,335,0
915,238,267,0
808,183,260,0
769,181,211,0
770,186,173,0
805,159,147,0
824,149,148,0
829,160,138,0
993,180,126,0
1068,171,121,0
1112,243,158,0
1143,252,203,0
1185,190,242,0
1014,155,312,0
863,59,344,0
936,13,299,0
937,48,257,0
796,127,236,0
699,204,251,0
667,191,264,0
719,157,289,0
778,127,300,0
794,110,350,0
801,128,390,0
1010,158,439,0
1220,137,376,0
1288,117,272,0
1312,205,316,0
1099,335,351,0
896,272,362,0
1108,179,353,0
1233,91,263,0
1111,30,222,0
946,83,211,0
877,165,194,0
830,198,132,0
757,173,83,0
694,169,107,0
646,208,121,0
831,189,116,0
897,180,109,0
1033,252,180,0
1100,212,235,0
1236,146,283,0
1154,178,364,0
1132,126,334,0
1194,-12,231,0
1114,-44,216,0
857,-34,243,0
669,-20,301,0
593,-2,338,0
600,9,296,0
731,27,277,0
827,136,235,0
841,279,284,0
937,401,403,0
1154,437,439,0
1287,311,336,0
1245,208,323,0
1102,232,383,0
1068,282,417,0
1246,236,447,0
1367,150,389,0
1288,45,331,0
1078,-65,273,0
891,5,241,0
781,85,274,0
734,219,239,0
646,242,186,0
492,398,224,0
410,487,363,0
351,342,543,0
348,408,713,0
514,450,762,0
622,516,763,0
759,487,781,0
759,447,761,0
681,436,700,0
765,424,669,0
807,462,569,0
814,651,435,0
772,630,351,0
732,390,428,0
707,260,474,0
733,201,550,0
756,72,639,0
742,-116,717,0
715,-247,754,0
674,-293,729,0
661,-290,727,0
720,-229,765,0
752,-133,746,0
852,-23,790,0
1032,191,825,0
1011,486,742,0
744,818,676,0
620,947,715,0
610,898,679,0
596,816,576,0
537,716,507,0
484,608,459,0
473,489,426,0
518,416,436,0
577,359,452,0
650,284,483,0
818,187,567,0
949,74,585,0
1118,-23,574,0
1195,-80,584,0
1124,-154,671,0
1020,-74,666,0
1029,9,557,0
900,-1,367,0
775,51,284,0
709,180,230,0
720,274,178,0
760,312,144,0
766,293,30,0
783,369,9,0
827,369,172,0
1000,343,238,0
1253,294,297,0
1293,165,272,0
1382,221,323,0
1199,364,440,0
892,347,426,0
998,261,460,0
1210,190,411,0
1196,110,310,0
1027,90,259,0
941,123,221,0
874,160,162,0
770,129,165,0
729,118,159,0
798,126,157,0
920,125,158,0
936,128,162,0
1013,195,219,0
1106,181,269,0
1120,122,323,0
1090,105,359,0
1115,22,313,0
1072,65,267,0
875,144,255,0
708,183,262,0
608,183,237,0
606,185,261,0
701,166,299,0
801,148,373,0
875,148,440,0
1186,157,504,0
1313,117,448,0
1330,116,374,0
1336,199,367,0
1146,424,476,0
978,401,495,0
1183,310,446,0
1258,213,274,0
1127,88,225,0
925,146,208,0
750,152,186,0
632,144,187,0
545,128,212,0
532,139,217,0
563,154,201,0
687,222,162,0
846,224,209,0
909,312,187,0
1033,213,280,0
1136,278,326,0
1081,169,414,0
1096,154,480,0
1136,101,474,0
1084,79,437,0
903,51,439,0
770,86,457,0
752,136,475,0
783,151,503,0
824,212,652,0
705,158,520,0
747,330,425,0
1038,286,455,0
1193,212,296,0
1250,322,159,0
1246,403,226,0
1001,474,236,0
903,486,192,0
1060,380,199,0
1132,335,185,0
1049,224,180,0
923,177,176,0
901,167,157,0
874,156,137,0
848,196,104,0
789,197,95,0
700,204,120,0
804,215,119,0
904,179,127,0
943,211,141,0
1026,185,218,0
1084,133,320,0
1091,109,404,0
1155,128,340,0
1286,156,321,0
1169,284,290,0
935,335,303,0
771,282,280,0
703,251,263,0
707,222,283,0
764,200,321,0
787,198,351,0
788,189,385,0
991,216,412,0
1155,177,333,0
1330,147,253,0
1364,259,258,0
1080,315,272,0
854,279,269,0
985,253,243,0
1181,220,224,0
1178,150,184,0
1073,56,182,0
1002,70,181,0
929,82,150,0
826,102,131,0
739,121,119,0
659,152,122,0
630,176,115,0
713,176,124,0
812,172,162,0
1010,199,187,0
1296,181,247,0
1460,96,285,0
1301,127,437,0
1105,101,436,0
1114,46,335,0
1065,145,261,0
872,208,226,0
707,264,210,0
636,293,209,0
673,282,240,0
766,309,275,0
840,246,328,0
878,187,341,0
1123,189,387,0
1303,146,368,0
1357,80,299,0
1269,169,333,0
975,215,348,0
837,197,314,0
996,154,301,0
1252,98,280,0
1224,13,203,0
1108,43,183,0
1026,104,193,0
914,176,122,0
796,177,99,0
685,187,69,0
636,203,117,0
624,183,26,0
795,215,98,0
933,177,122,0
1099,223,158,0
1248,242,239,0
1301,240,410,0
1007,142,436,0
929,54,268,0
1115,-18,210,0
1116,-33,235,0
912,60,280,0
774,217,324,0
705,300,294,0
726,279,298,0
799,174,353,0
802,106,373,0
916,139,404,0
1195,183,425,0
1291,72,350,0
1334,27,308,0
1274,140,348,0
995,283,333,0
896,307,306,0
1048,216,273,0
1218,139,229,0
1142,19,191,0
1004,6,173,0
924,80,168,0
849,119,153,0
767,163,119,0
661,114,102,0
568,200,68,0
645,237,109,0
818,217,82,0
985,254,138,0
1311,266,212,0
1367,148,323,0
1101,181,507,0
956,-64,412,0
1047,-129,311,0
1047,85,283,0
937,213,273,0
802,234,280,0
675,236,322,0
661,216,381,0
690,172,425,0
774,168,453,0
1130,219,530,0
1304,168,467,0
1433,148,415,0
1368,255,390,0
992,270,354,0
865,251,302,0
1032,252,264,0
1178,185,235,0
1108,126,173,0
990,119,177,0
1008,168,159,0
1021,166,142,0
859,169,89,0
682,184,89,0
589,170,156,0
634,170,172,0
706,155,146,0
787,168,212,0
1004,165,302,0
1279,103,410,0
1299,39,450,0
1020,-49,401,0
1044,-81,359,0
1064,42,338,0
978,146,300,0
818,210,315,0
735,222,280,0
815,188,262,0
889,109,286,0
857,55,315,0
820,51,373,0
823,8,432,0
970,-29,413,0
1104,-15,296,0
1239,-43,195,0
1121,91,159,0
1030,334,183,0
1099,369,219,0
1182,246,236,0
996,220,247,0
920,171,312,0
951,67,278,0
1013,-48,207,0
993,-3,108,0
904,153,159,0
899,221,238,0
887,191,151,0
908,164,152,0
1006,205,185,0
1080,195,189,0
1216,207,152,0
1218,229,78,0
747,251,442,0
562,202,697,0
735,176,448,0
864,26,329,0
931,57,313,0
988,394,412,0
909,460,384,0
906,416,455,0
910,404,490,0
863,369,526,0
860,285,621,0
808,215,664,0
863,151,624,0
966,153,544,0
968,191,452,0
1161,254,375,0
1395,246,296,0
1277,150,217,0
1290,159,247,0
1688,155,189,0
1681,146,79,0
1384,110,76,0
1051,149,121,0
835,197,165,0
784,167,161,0
737,134,101,0
625,63,83,0
536,55,88,0
527,146,130,0
677,216,217,0
831,269,293,0
962,248,444,0
1013,148,538,0
1167,7,569,0
1215,-96,663,0
1141,-36,722,0
1080,-56,802,0
994,-46,818,0
992,37,768,0
984,97,666,0
958,146,557,0
906,186,446,0
876,213,360,0
851,198,285,0
851,183,248,0
902,174,207,0
927,169,172,0
978,191,146,0
1062,244,130,0
1257,321,143,0
1143,292,186,0
998,280,230,0
1077,217,233,0
1062,146,198,0
1004,97,195,0
909,118,191,0
844,166,190,0
831,177,174,0
839,166,158,0
850,184,158,0
859,198,158,0
878,178,175,0
969,192,166,0
1069,184,151,0
1165,225,212,0
1146,194,259,0
881,150,340,0
696,128,410,0
776,99,384,0
912,88,312,0
949,124,270,0
911,189,278,0
830,237,279,0
766,203,267,0
772,167,250,0
782,135,237,0
793,133,236,0
847,142,264,0
972,166,272,0
1070,152,256,0
1118,186,239,0
1138,222,212,0
1098,323,252,0
965,358,391,0
1055,312,366,0
1224,192,271,0
1177,53,210,0
1066,97,253,0
1048,176,245,0
986,175,212,0
874,136,148,0
817,140,144,0
778,129,139,0
784,143,128,0
950,152,96,0
1060,181,83,0
1112,234,105,0
1146,239,169,0
1030,130,255,0
940,106,414,0
927,50,334,0
902,-73,213,0
790,-83,182,0
688,6,213,0
649,138,218,0
659,238,217,0
737,249,296,0
789,209,293,0
879,140,381,0
1185,99,497,0
1429,74,447,0
1432,52,404,0
1292,187,429,0
1008,304,432,0
1056,244,394,0
1194,105,333,0
1155,64,266,0
997,72,237,0
886,112,213,0
883,122,178,0
872,131,119,0
786,127,107,0
710,162,78,0
798,208,92,0
929,190,91,0
941,250,139,0
962,246,217,0
1064,150,307,0
1075,32,390,0
1066,-94,424,0
1132,-188,357,0
1068,-75,313,0
864,78,298,0
698,161,302,0
626,145,281,0
640,121,274,0
723,120,320,0
776,87,360,0
812,89,404,0
1054,117,489,0
1249,96,454,0
1299,65,267,0
1339,203,326,0
1137,269,329,0
911,246,299,0
1030,160,313,0
1139,89,278,0
1097,65,223,0
990,102,188,0
903,183,123,0
869,143,146,0
821,128,125,0
754,141,108,0
696,142,123,0
731,155,117,0
890,161,128,0
936,161,150,0
1022,197,192,0
1197,150,249,0
1267,91,324,0
1056,73,418,0
889,0,331,0
988,43,287,0
976,35,262,0
864,130,290,0
759,215,296,0
730,195,277,0
780,141,267,0
869,124,278,0
876,150,300,0
863,142,315,0
910,99,358,0
1105,37,372,0
1141,9,297,0
1137,125,296,0
1241,253,330,0
1086,325,298,0
819,314,288,0
878,109,270,0
1137,43,206,0
1165,121,177,0
1100,208,115,0
987,275,96,0
852,225,87,0
771,204,75,0
734,183,76,0
735,157,83,0
791,143,102,0
916,144,98,0
1051,160,101,0
1135,198,163,0
1195,240,254,0
1254,230,340,0
1069,166,397,0
850,5,277,0
921,-91,191,0
962,-105,197,0
924,2,216,0
828,196,252,0
739,290,256,0
714,269,230,0
732,198,231,0
766,155,253,0
767,152,263,0
792,153,277,0
959,176,311,0
1153,151,325,0
1308,107,241,0
1371,153,258,0
1112,279,389,0
857,366,336,0
954,278,237,0
1090,117,228,0
1121,13,206,0
1106,55,215,0
1047,115,183,0
943,161,127,0
836,172,104,0
746,177,103,0
691,183,112,0
719,181,122,0
878,184,107,0
1024,191,115,0
1117,216,172,0
1201,238,240,0
1131,208,334,0
876,156,393,0
886,74,264,0
1041,-14,111,0
1015,-38,119,0
887,52,159,0
857,216,180,0
814,389,189,0
741,450,203,0
750,404,239,0
792,328,302,0
855,192,329,0
1071,123,293,0
1316,106,304,0
1432,110,333,0
1445,185,444,0
1163,297,515,0
880,248,368,0
1034,91,267,0
1205,-51,225,0
1239,-55,181,0
1212,31,150,0
1159,117,118,0
990,188,72,0
831,221,53,0
683,212,56,0
557,196,74,0
520,176,84,0
623,186,87,0
767,183,115,0
953,193,157,0
1286,203,208,0
1358,217,353,0
1088,208,499,0
1015,144,384,0
1160,-32,178,0
1168,-116,91,0
1142,-15,151,0
1058,233,296,0
881,419,373,0
758,408,364,0
726,318,364,0
728,201,354,0
807,137,324,0
1085,185,380,0
1252,174,392,0
1313,126,332,0
1516,144,310,0
1229,223,310,0
812,283,287,0
757,294,271,0
1033,262,253,0
1241,187,151,0
1381,107,27,0
1192,56,-37,0
958,81,7,0
829,183,73,0
763,250,95,0
695,208,87,0
620,144,84,0
599,97,86,0
646,102,104,0
762,192,161,0
1040,258,282,0
1362,268,322,0
1592,218,266,0
1266,199,390,0
952,304,446,0
1035,310,231,0
1199,203,134,0
1201,127,255,0
970,208,384,0
755,324,369,0
694,376,285,0
760,321,291,0
843,216,290,0
890,157,302,0
901,159,282,0
1084,196,248,0
1266,174,180,0
1307,178,90,0
1265,232,48,0
1137,308,88,0
953,369,132,0
957,338,0,0
1116,257,-64,0
1085,137,-47,0
1015,127,-11,0
973,160,9,0
838,208,52,0
750,197,53,0
738,176,58,0
737,155,88,0
737,145,124,0
860,149,133,0
1119,170,150,0
1264,211,228,0
1371,255,322,0
1537,213,361,0
1088,151,432,0
665,69,376,0
684,-9,210,0
782,-20,68,0
874,49,38,0
972,200,157,0
878,330,295,0
770,369,279,0
759,322,229,0
812,256,239,0
885,142,250,0
942,69,249,0
1084,62,317,0
1185,62,382,0
1208,81,325,0
1159,96,327,0
1012,155,371,0
818,249,315,0
1027,252,208,0
1257,154,135,0
1177,135,105,0
1024,138,119,0
889,175,160,0
830,194,115,0
779,177,61,0
748,150,62,0
700,166,98,0
695,204,116,0
827,222,130,0
1038,225,146,0
1256,252,329,0
1347,237,390,0
1013,133,413,0
726,9,311,0
773,-82,140,0
870,-60,38,0
933,51,59,0
886,222,187,0
779,322,268,0
716,340,231,0
738,306,158,0
813,249,158,0
853,151,165,0
912,107,182,0
1142,84,215,0
1196,81,169,0
1256,34,147,0
1279,-2,245,0
1170,228,338,0
966,320,248,0
1093,148,105,0
1078,83,-17,0
995,-69,-5,0
915,54,12,0
797,192,41,0
738,214,34,0
786,139,30,0
888,146,31,0
939,197,-3,0
941,204,-18,0
1097,178,-35,0
1224,168,20,0
1196,194,121,0
1270,176,160,0
1138,111,251,0
766,9,314,0
708,-161,237,0
811,-328,60,0
979,-227,-46,0
1009,6,74,0
897,111,287,0
774,90,316,0
719,33,163,0
767,99,142,0
813,66,167,0
832,1,232,0
928,20,258,0
1134,83,313,0
1217,63,243,0
1298,94,218,0
1271,166,256,0
992,279,258,0
920,221,272,0
1100,115,248,0
1091,32,160,0
898,25,148,0
772,27,143,0
761,-23,138,0
826,11,69,0
848,27,52,0
866,98,41,0
869,125,41,0
1062,91,54,0
1174,167,101,0
1302,190,121,0
1324,105,177,0
1200,65,254,0
863,14,379,0
703,-135,310,0
748,-322,170,0
801,-336,127,0
855,-83,143,0
884,128,194,0
848,166,184,0
794,120,202,0
780,81,203,0
812,85,219,0
831,86,248,0
991,101,298,0
1246,89,291,0
1291,130,178,0
1206,258,223,0
1066,361,285,0
917,341,284,0
920,317,195,0
931,336,119,0
924,279,157,0
995,72,84,0
946,-107,34,0
1017,75,89,0
965,190,54,0
887,194,60,0
820,185,40,0
827,203,49,0
1052,151,50,0
1147,166,66,0
1190,199,136,0
1233,178,211,0
1072,119,270,0
695,149,360,0
726,12,294,0
922,-143,180,0
1162,-27,114,0
1026,128,138,0
822,241,204,0
738,173,205,0
735,84,189,0
768,95,256,0
796,44,259,0
838,74,289,0
1064,80,349,0
1259,15,303,0
1224,17,226,0
1295,175,295,0
1161,231,305,0
872,177,279,0
895,184,277,0
1161,176,213,0
1237,145,108,0
1146,168,53,0
996,239,87,0
912,246,90,0
836,178,76,0
774,159,71,0
746,151,77,0
698,143,99,0
744,155,130,0
894,148,135,0
1022,179,170,0
1129,201,250,0
1302,114,270,0
1184,42,294,0
953,86,372,0
937,90,326,0
975,105,210,0
1028,176,158,0
959,259,135,0
820,270,177,0
721,249,197,0
711,203,220,0
763,198,219,0
813,146,199,0
1030,160,256,0
1252,84,299,0
1310,113,241,0
1324,149,256,0
1108,181,276,0
876,115,205,0
1003,73,168,0
1173,24,53,0
1011,20,-37,0
893,45,-22,0
863,51,-62,0
822,82,-69,0
814,122,-72,0
836,156,-106,0
789,157,-52,0
822,161,19,0
997,188,15,0
1191,229,37,0
1282,263,116,0
1294,219,229,0
1320,126,289,0
1060,15,317,0
764,109,298,0
843,33,226,0
959,-158,73,0
1000,-88,-14,0
981,86,8,0
828,101,58,0
722,124,43,0
764,149,36,0
788,81,48,0
776,41,84,0
862,-22,174,0
1134,262,178,0
1253,117,137,0
1233,136,110,0
1336,223,156,0
1154,302,171,0
867,282,168,0
858,156,135,0
974,28,63,0
1044,-29,-10,0
988,-92,-52,0
919,56,-19,0
842,207,16,0
776,125,-15,0
781,99,-25,0
808,140,-33,0
870,178,-46,0
1099,207,-77,0
1279,207,-31,0
1295,208,62,0
1323,202,146,0
1198,85,197,0
787,7,264,0
669,-36,266,0
785,-141,151,0
991,-120,30,0
1122,-10,3,0
991,104,59,0
808,129,59,0
744,74,68,0
726,70,81,0
769,99,102,0
795,137,141,0
845,167,176,0
1035,196,206,0
1270,173,216,0
1331,131,157,0
1325,195,211,0
1107,324,277,0
824,346,248,0
876,228,249,0
1026,180,220,0
1075,107,163,0
1019,125,167,0
990,178,154,0
918,199,111,0
875,177,110,0
889,145,94,0
915,150,91,0
1093,182,80,0
1150,181,62,0
1242,178,101,0
1200,216,63,0
937,179,123,0
799,134,250,0
899,80,230,0
961,-136,170,0
858,-178,158,0
762,54,183,0
751,246,193,0
780,298,192,0
864,261,206,0
950,254,238,0
967,277,326,0
983,248,392,0
1169,192,446,0
1383,132,409,0
1476,145,389,0
1230,249,415,0
922,240,344,0
1041,145,283,0
1291,69,213,0
1344,51,137,0
1264,107,123,0
1210,169,121,0
1078,204,84,0
851,187,49,0
652,146,37,0
500,148,40,0
448,180,54,0
519,186,54,0
701,200,60,0
963,219,75,0
1149,191,131,0
1408,175,212,0
1590,230,356,0
1133,80,356,0
973,-59,360,0
1060,57,345,0
1135,178,283,0
989,186,289,0
763,222,281,0
688,366,274,0
742,271,277,0
793,190,246,0
843,148,255,0
898,149,291,0
1137,163,306,0
1284,135,276,0
1274,130,233,0
1257,192,231,0
1052,263,241,0
854,259,224,0
934,213,196,0
1017,234,149,0
1045,263,128,0
987,333,144,0
910,341,149,0
878,322,159,0
821,280,136,0
733,227,156,0
653,221,165,0
711,242,186,0
913,190,154,0
1035,190,165,0
1068,250,214,0
1209,221,243,0
1223,138,340,0
889,55,350,0
918,19,263,0
994,118,194,0
939,177,186,0
800,222,163,0
727,302,153,0
760,313,182,0
789,243,177,0
829,176,203,0
856,168,258,0
1107,143,333,0
1225,99,306,0
1241,71,283,0
1226,136,286,0
1050,265,324,0
768,348,285,0
822,263,261,0
1063,212,261,0
1116,184,160,0
1031,153,128,0
943,174,143,0
904,258,117,0
914,234,105,0
877,210,86,0
788,171,92,0
870,292,114,0
1025,184,126,0
1116,212,126,0
1225,201,173,0
1227,163,212,0
1019,52,272,0
820,44,346,0
873,36,319,0
904,-74,211,0
852,-84,150,0
762,50,181,0
703,204,212,0
685,231,226,0
711,232,219,0
797,174,221,0
844,160,241,0
907,141,318,0
1103,150,378,0
1229,89,329,0
1312,45,282,0
1411,331,407,0
1210,125,645,0
955,-198,531,0
1080,-213,423,0
1026,-206,460,0
943,-105,399,0
896,-49,294,0
846,41,163,0
784,163,74,0
724,307,75,0
695,342,122,0
644,332,142,0
738,283,124,0
883,223,86,0
978,162,141,0
1180,156,188,0
1361,154,185,0
1076,180,388,0
769,175,516,0
824,6,390,0
1072,-167,288,0
1227,-83,293,0
1023,171,357,0
850,309,454,0
776,299,467,0
820,106,464,0
868,-3,465,0
875,-31,410,0
972,19,379,0
1155,106,373,0
1219,87,320,0
1240,126,252,0
1259,252,232,0
1070,338,240,0
892,312,227,0
1031,245,213,0
1138,183,173,0
1120,222,153,0
1061,186,133,0
999,207,150,0
889,177,116,0
794,188,114,0
683,171,107,0
581,123,89,0
702,163,112,0
903,184,100,0
1093,196,134,0
1349,216,178,0
1309,146,260,0
961,192,412,0
808,114,431,0
949,-62,346,0
1080,6,248,0
1098,155,298,0
948,236,362,0
790,288,379,0
765,174,384,0
797,128,366,0
799,77,349,0
829,107,363,0
998,177,390,0
1171,126,415,0
1259,160,255,0
1322,258,271,0
1087,235,291,0
895,259,273,0
1090,282,267,0
1277,163,222,0
1181,83,137,0
1025,85,166,0
909,128,176,0
853,177,146,0
803,175,102,0
746,145,79,0
662,141,98,0
617,168,127,0
745,196,100,0
867,233,108,0
1030,260,234,0
1251,240,414,0
1324,16,384,0
1031,-285,479,0
847,-137,541,0
976,70,474,0
1102,193,351,0
1084,272,273,0
864,337,236,0
705,340,232,0
665,294,209,0
729,239,209,0
789,218,238,0
818,192,291,0
879,185,358,0
1107,153,412,0
1275,127,387,0
1311,94,363,0
1213,130,439,0
921,199,418,0
877,183,358,0
1067,172,309,0
1134,151,233,0
1086,107,197,0
1052,106,180,0
1014,147,161,0
934,175,96,0
850,169,68,0
814,173,107,0
753,178,90,0
817,193,115,0
968,220,135,0
1027,169,171,0
1148,186,219,0
1134,83,294,0
847,38,419,0
720,5,479,0
842,-32,375,0
1052,32,302,0
1038,126,281,0
885,180,321,0
759,187,349,0
735,153,331,0
761,138,297,0
800,129,334,0
857,141,368,0
1085,191,403,0
1229,164,403,0
1316,162,358,0
1297,248,375,0
932,238,404,0
872,267,381,0
1114,259,325,0
1195,182,255,0
1023,104,213,0
988,140,215,0
1003,187,186,0
931,171,136,0
822,175,96,0
763,174,107,0
727,174,115,0
856,169,133,0
982,167,140,0
1102,184,191,0
1161,169,234,0
1200,122,324,0
929,60,389,0
712,18,430,0
733,-63,332,0
916,-35,216,0
1044,40,194,0
912,145,224,0
823,229,216,0
808,311,304,0
829,205,314,0
841,178,294,0
833,149,368,0
936,108,418,0
1124,75,460,0
1260,36,425,0
1313,72,419,0
1254,174,433,0
958,226,423,0
896,168,374,0
1132,140,332,0
1287,95,253,0
1195,90,215,0
1098,90,198,0
973,115,169,0
855,119,147,0
754,140,116,0
650,163,105,0
583,171,122,0
652,168,130,0
743,148,105,0
832,187,153,0
1056,194,218,0
1268,184,237,0
1152,160,361,0
933,139,381,0
1063,12,254,0
1258,52,192,0
1185,221,249,0
932,305,344,0
775,306,352,0
775,220,346,0
839,131,361,0
864,119,382,0
870,155,404,0
1060,164,454,0
1229,108,399,0
1125,68,277,0
1114,128,275,0
1120,233,294,0
967,319,297,0
868,288,267,0
1079,207,275,0
1310,113,238,0
1327,64,195,0
1151,55,198,0
955,109,193,0
804,138,182,0
698,141,168,0
612,126,150,0
566,115,139,0
634,135,140,0
872,167,132,0
1069,166,131,0
1311,220,142,0
1585,260,185,0
1165,279,350,0
643,195,334,0
639,147,256,0
1031,109,190,0
1346,38,180,0
1150,139,268,0
850,262,338,0
752,366,347,0
766,264,342,0
828,116,356,0
874,13,388,0
901,40,414,0
942,102,426,0
1051,91,408,0
1068,47,334,0
996,90,280,0
974,183,283,0
1095,352,311,0
1087,430,376,0
905,350,330,0
1009,251,220,0
1321,137,163,0
1312,-18,118,0
1165,18,122,0
968,123,142,0
855,235,137,0
797,266,91,0
751,227,60,0
719,183,63,0
705,170,79,0
729,181,102,0
872,186,112,0
1000,195,148,0
1094,221,243,0
1307,231,371,0
1237,120,475,0
821,-15,428,0
916,-52,251,0
1196,40,199,0
1202,109,278,0
967,192,372,0
823,258,334,0
791,268,242,0
794,175,211,0
810,105,214,0
826,69,237,0
836,114,283,0
988,153,361,0
1201,115,359,0
1323,57,252,0
1274,92,293,0
1061,152,349,0
969,194,347,0
1143,105,328,0
1171,10,309,0
1033,21,282,0
922,63,289,0
868,71,274,0
849,39,232,0
819,63,202,0
756,101,192,0
729,145,201,0
789,182,186,0
809,192,181,0
882,226,233,0
1026,257,341,0
1180,178,365,0
1057,25,372,0
752,-33,497,0
773,6,457,0
895,74,469,0
839,139,479,0
765,244,546,0
755,313,584,0
784,297,577,0
890,220,558,0
1019,182,437,0
1041,176,456,0
952,113,510,0
920,145,510,0
954,143,497,0
1092,70,444,0
1139,7,373,0
1032,21,291,0
1028,101,240,0
970,214,260,0
824,289,317,0
829,319,264,0
1266,247,167,0
1309,62,145,0
957,6,219,0
924,96,253,0
1039,118,270,0
999,57,270,0
876,7,266,0
759,5,265,0
641,48,280,0
668,77,291,0
848,57,313,0
1001,2,276,0
1116,34,221,0
1202,80,294,0
1058,150,496,0
844,134,429,0
807,77,246,0
794,50,239,0
758,102,358,0
753,217,397,0
811,225,411,0
935,141,458,0
988,60,500,0
962,23,516,0
891,33,499,0
855,88,468,0
940,105,440,0
1072,106,354,0
1135,142,252,0
1185,220,225,0
1074,337,276,0
906,391,259,0
1086,336,166,0
1358,199,121,0
1329,98,74,0
1134,97,75,0
976,157,86,0
886,229,95,0
853,239,90,0
810,187,84,0
748,150,84,0
876,161,85,0
891,165,81,0
859,209,98,0
918,238,135,0
1074,247,176,0
1005,241,311,0
888,253,457,0
1001,150,307,0
1240,-15,148,0
1152,-131,209,0
935,-20,359,0
800,208,375,0
743,320,328,0
787,267,337,0
818,180,372,0
820,172,366,0
972,208,374,0
1250,157,329,0
1266,44,175,0
1307,85,149,0
1258,239,204,0
955,424,275,0
766,423,223,0
967,330,153,0
1127,187,70,0
1028,110,39,0
914,124,61,0
868,177,62,0
879,211,27,0
863,180,4,0
819,143,44,0
851,149,73,0
1027,166,57,0
1108,59,44,0
1149,11,61,0
1261,109,98,0
1192,133,174,0
1045,168,341,0
1007,97,295,0
1025,26,100,0
885,-30,38,0
691,18,158,0
680,144,268,0
714,258,285,0
786,270,290,0
853,201,329,0
838,175,387,0
905,142,436,0
1118,58,371,0
1254,-35,202,0
1139,31,226,0
1144,198,370,0
1305,328,363,0
1550,189,283,0
1372,56,334,0
1130,10,300,0
922,17,216,0
812,32,178,0
757,17,170,0
697,42,154,0
640,80,129,0
623,129,95,0
632,203,75,0
617,265,141,0
886,310,232,0
1283,325,246,0
1571,374,333,0
1341,310,465,0
901,81,345,0
941,-239,106,0
991,-307,52,0
871,-123,183,0
785,157,374,0
748,332,425,0
724,302,361,0
731,204,356,0
745,161,430,0
750,103,428,0
901,64,411,0
1167,9,410,0
1212,-7,289,0
1205,95,280,0
1123,278,424,0
932,428,421,0
1012,320,255,0
1172,110,244,0
1158,-23,258,0
989,16,211,0
873,111,191,0
808,165,159,0
779,186,133,0
724,194,119,0
743,200,101,0
960,200,89,0
1084,209,108,0
1115,239,175,0
1112,245,274,0
987,211,449,0
884,102,430,0
1024,-58,232,0
1043,-136,208,0
871,-119,299,0
743,55,370,0
673,214,339,0
659,235,306,0
702,165,353,0
774,132,418,0
833,145,442,0
1128,137,499,0
1255,43,414,0
1301,42,264,0
1374,175,364,0
1188,388,471,0
1000,414,340,0
1153,284,234,0
1233,118,219,0
1097,53,172,0
990,90,136,0
973,158,117,0
962,193,90,0
928,197,70,0
816,170,49,0
783,196,37,0
918,210,45,0
872,218,95,0
938,235,153,0
1036,218,207,0
932,172,376,0
835,159,472,0
884,89,337,0
989,-49,186,0
975,-127,164,0
911,-43,317,0
869,138,409,0
854,267,385,0
884,206,391,0
890,88,447,0
838,31,445,0
922,85,433,0
1162,130,441,0
1285,108,328,0
1282,123,293,0
1180,253,344,0
954,398,340,0
1073,419,266,0
1269,248,258,0
1250,41,213,0
1078,-42,152,0
973,-1,143,0
926,86,142,0
850,160,127,0
765,184,131,0
645,171,119,0
683,168,106,0
823,182,99,0
844,203,132,0
912,242,184,0
1031,267,275,0
1073,285,450,0
1031,210,428,0
1128,17,160,0
1108,-150,127,0
1007,-118,222,0
876,80,319,0
789,307,341,0
763,335,343,0
816,230,363,0
859,137,405,0
865,58,441,0
964,31,441,0
1190,10,430,0
1222,-47,311,0
1290,-27,219,0
1261,126,253,0
1016,334,300,0
839,405,274,0
1022,397,229,0
1129,278,210,0
1033,124,139,0
867,24,125,0
787,81,121,0
776,152,123,0
760,166,106,0
731,157,116,0
720,181,110,0
906,237,74,0
1021,229,245,0
1060,244,193,0
1172,218,283,0
1208,156,417,0
1046,-4,448,0
950,-171,403,0
1022,-180,356,0
963,-31,314,0
812,113,288,0
708,209,272,0
678,254,267,0
714,201,261,0
765,160,276,0
831,140,305,0
1084,128,417,0
1326,123,386,0
1374,127,292,0
1374,159,310,0
1008,223,354,0
866,191,272,0
1004,153,270,0
1067,121,261,0
944,117,201,0
864,130,158,0
