AccX [mg],AccY,AccZ,Ground Truth
-479,901,-216,-1
-410,947,-208,-1
-351,885,-183,-1
-317,778,-135,-1
-339,732,-107,-1
-416,687,-80,-1
-413,694,-58,-1
-420,701,-67,-1
-455,714,-59,-1
-530,719,-58,-1
-549,809,-66,-1
-551,852,-139,-1
-538,827,-214,-1
-562,813,-332,-1
-570,986,-578,-1
-598,850,-624,-1
-540,773,-601,-1
-389,647,-582,-1
-366,508,-563,-1
-391,482,-546,-1
-332,321,-486,-1
-344,354,-452,-1
-310,464,-437,-1
-294,623,-429,-1
-342,624,-464,-1
-299,595,-462,-1
-156,765,-570,-1
-89,834,-689,-1
214,974,-975,-1
291,914,-942,-1
340,787,-856,-1
331,815,-687,-1
302,1038,-895,-1
369,1026,-884,-1
321,765,-580,-1
298,614,-411,-1
203,438,-433,-1
422,660,-695,-1
332,741,-861,-1
215,688,-401,-1
218,680,-469,-1
213,909,-538,-1
136,792,-453,-1
276,850,-604,-1
139,754,-535,-1
168,683,-507,-1
275,818,-697,-1
108,673,-501,-1
147,835,-559,-1
317,597,-691,-1
152,832,-586,-1
306,557,-622,-1
274,578,-566,-1
339,867,-730,-1
282,576,-703,-1
216,541,-503,-1
319,820,-825,-1
188,541,-564,-1
111,774,-653,-1
309,744,-892,-1
105,588,-556,-1
49,386,-626,-1
404,663,-551,-1
545,1173,-1075,-1
123,1132,-868,-1
476,342,-209,-1
444,617,-596,-1
417,596,-511,-1
434,495,-85,-1
340,833,-471,-1
449,660,-432,-1
221,482,-266,-1
287,1118,-970,-1
-85,467,-148,-1
395,750,-1165,-1
-119,973,-626,-1
123,576,-831,-1
132,598,-709,-1
195,966,-638,-1
187,618,-712,-1
177,730,-561,-1
192,733,-589,-1
198,608,-558,-1
213,646,-549,-1
210,567,-621,-1
436,449,-805,-1
27,752,-565,-1
-142,1170,-577,-1
415,430,-767,-1
77,795,-563,-1
190,706,-687,-1
90,402,-384,-1
367,1156,-847,-1
149,527,-721,-1
303,408,-733,-1
263,1335,-754,-1
321,348,-530,-1
348,-181,-547,-1
275,1115,-753,-1
325,582,-683,-1
325,584,-568,-1
200,716,-724,-1
113,677,-430,-1
276,726,-829,-1
23,838,-549,-1
113,778,-661,-1
156,677,-616,-1
27,750,-543,-1
173,641,-676,-1
194,807,-697,-1
193,673,-773,-1
198,605,-668,-1
219,636,-667,-1
278,632,-820,-1
196,441,-568,-1
221,644,-740,-1
215,508,-713,-1
194,689,-681,-1
207,607,-785,-1
146,582,-619,-1
232,691,-836,-1
134,550,-647,-1
303,684,-856,-1
310,658,-914,-1
169,652,-648,-1
309,593,-694,-1
312,634,-708,-1
312,645,-735,-1
251,564,-508,-1
267,609,-604,-1
280,546,-630,-1
291,617,-622,-1
277,673,-644,-1
223,664,-562,-1
160,663,-631,-1
142,651,-663,-1
64,673,-666,-1
227,758,-838,-1
134,653,-698,-1
160,663,-839,-1
141,694,-817,-1
172,650,-818,-1
299,530,-810,-1
216,557,-622,-1
186,387,-755,-1
242,494,-779,-1
170,603,-607,-1
125,566,-726,-1
284,383,-921,-1
49,600,-757,-1
97,564,-792,-1
153,574,-792,-1
192,559,-822,-1
176,562,-769,-1
150,523,-685,-1
303,694,-752,-1
211,627,-571,-1
292,561,-667,-1
331,453,-647,-1
407,498,-916,-1
365,587,-720,-1
276,667,-511,-1
226,645,-798,-1
311,602,-884,-1
-43,513,-249,-1
345,650,-1035,-1
123,833,-737,-1
207,490,-906,-1
15,659,-771,-1
-12,496,-729,-1
-122,601,-742,-1
425,570,-880,-1
196,719,-867,-1
74,663,-740,-1
241,537,-749,-1
184,458,-579,-1
268,518,-610,-1
312,587,-567,-1
291,558,-674,-1
290,718,-790,-1
214,531,-601,-1
208,857,-752,-1
182,701,-622,-1
294,554,-616,-1
296,776,-702,-1
211,1009,-775,-1
333,467,-504,-1
440,795,-547,-1
326,754,-646,-1
428,323,-390,-1
363,786,-435,-1
397,403,-544,-1
392,829,-486,-1
280,617,-645,-1
191,784,-591,-1
136,835,-687,-1
172,871,-887,-1
409,370,-1129,-1
35,472,-607,-1
152,830,-744,-1
257,984,-541,-1
219,491,-581,-1
287,849,-530,-1
341,577,-488,-1
314,726,-421,-1
212,752,-378,-1
322,538,-465,-1
401,612,-746,-1
293,639,-640,-1
272,715,-650,-1
286,515,-620,-1
207,770,-617,-1
418,601,-784,-1
173,543,-579,-1
477,676,-801,-1
326,860,-687,-1
378,569,-665,-1
409,633,-638,-1
419,484,-647,-1
347,445,-481,-1
411,625,-636,-1
391,606,-584,-1
322,757,-579,-1
272,739,-594,-1
231,890,-645,-1
229,647,-580,-1
205,843,-639,-1
232,740,-674,-1
212,634,-583,-1
294,636,-692,-1
287,704,-657,-1
332,758,-700,-1
322,647,-600,-1
256,577,-691,-1
325,456,-731,-1
331,472,-637,-1
421,502,-798,-1
227,533,-633,-1
397,460,-966,-1
229,664,-701,-1
251,463,-830,-1
234,715,-775,-1
280,512,-824,-1
283,674,-708,-1
335,688,-663,-1
342,790,-676,-1
400,512,-662,-1
425,464,-555,-1
408,411,-470,-1
439,540,-600,-1
429,507,-703,-1
337,617,-572,-1
300,704,-738,-1
195,789,-651,-1
98,665,-560,-1
234,839,-827,-1
138,698,-709,-1
130,649,-758,-1
155,605,-692,-1
227,503,-832,-1
210,713,-779,-1
223,511,-726,-1
301,591,-785,-1
275,517,-703,-1
292,496,-673,-1
227,552,-677,-1
206,512,-654,-1
161,624,-767,-1
428,638,-994,-1
67,527,-606,-1
201,450,-724,-1
388,808,-843,-1
422,343,-618,-1
178,950,-694,-1
337,696,-727,-1
312,635,-531,-1
416,525,-708,-1
402,362,-589,-1
372,641,-618,-1
399,564,-668,-1
285,700,-464,-1
310,682,-753,-1
196,783,-564,-1
203,800,-566,-1
213,868,-660,-1
142,660,-609,-1
179,534,-750,-1
170,693,-703,-1
186,836,-723,-1
261,798,-703,-1
266,543,-678,-1
258,547,-514,-1
263,682,-658,-1
282,460,-693,-1
210,569,-633,-1
358,676,-864,-1
200,608,-564,-1
310,696,-930,-1
259,628,-645,-1
223,615,-617,-1
345,638,-782,-1
248,779,-508,-1
354,698,-668,-1
396,658,-620,-1
352,576,-586,-1
342,455,-611,-1
377,548,-606,-1
388,575,-649,-1
340,514,-670,-1
285,594,-616,-1
272,630,-807,-1
255,684,-704,-1
130,686,-760,-1
185,633,-796,-1
203,603,-791,-1
125,653,-695,-1
254,576,-793,-1
235,648,-723,-1
251,618,-765,-1
249,573,-683,-1
237,523,-613,-1
374,530,-818,-1
258,551,-640,-1
263,587,-781,-1
190,672,-746,-1
170,587,-810,-1
267,543,-824,-1
162,633,-679,-1
283,572,-768,-1
323,495,-746,-1
302,521,-599,-1
393,779,-879,-1
356,492,-534,-1
379,530,-687,-1
404,494,-642,-1
413,463,-607,-1
339,613,-551,-1
408,575,-711,-1
279,581,-511,-1
307,721,-852,-1
273,661,-672,-1
157,666,-726,-1
144,704,-709,-1
115,686,-761,-1
161,585,-738,-1
195,682,-843,-1
84,602,-643,-1
301,686,-767,-1
315,539,-798,-1
252,487,-585,-1
386,450,-822,-1
309,452,-552,-1
276,612,-773,-1
246,463,-686,-1
289,630,-807,-1
194,659,-818,-1
117,585,-688,-1
231,616,-797,-1
251,607,-801,-1
266,579,-794,-1
234,616,-630,-1
351,678,-747,-1
320,533,-611,-1
368,527,-663,-1
314,562,-552,-1
388,600,-709,-1
388,584,-678,-1
332,545,-623,-1
261,722,-714,-1
137,580,-569,-1
277,697,-905,-1
141,696,-767,-1
174,614,-740,-1
94,646,-687,-1
213,586,-725,-1
258,686,-774,-1
225,647,-742,-1
298,528,-698,-1
269,646,-637,-1
269,475,-673,-1
279,601,-605,-1
366,496,-755,-1
227,676,-667,-1
318,550,-818,-1
133,557,-659,-1
188,645,-846,-1
240,563,-788,-1
252,686,-812,-1
255,539,-704,-1
271,723,-720,-1
307,749,-597,-1
360,608,-570,-1
370,624,-639,-1
409,573,-543,-1
402,570,-475,-1
378,645,-596,-1
351,618,-559,-1
276,619,-560,-1
292,747,-728,-1
193,739,-608,-1
191,791,-617,-1
317,693,-650,-1
259,725,-517,-1
332,641,-711,-1
273,721,-541,-1
435,824,-629,-1
318,692,-652,-1
327,622,-534,-1
278,715,-588,-1
308,564,-567,-1
260,629,-563,-1
279,619,-653,-1
341,748,-706,-1
312,636,-619,-1
391,748,-761,-1
296,703,-636,-1
276,655,-600,-1
335,773,-583,-1
351,736,-611,-1
271,806,-434,-1
394,721,-517,-1
436,701,-418,-1
435,657,-445,-1
410,575,-446,-1
404,696,-471,-1
466,615,-589,-1
322,666,-394,-1
355,753,-558,-1
307,689,-465,-1
396,823,-595,-1
347,700,-579,-1
370,759,-599,-1
312,736,-627,-1
240,743,-574,-1
273,795,-623,-1
271,782,-609,-1
315,788,-648,-1
308,749,-589,-1
294,644,-514,-1
292,582,-512,-1
344,595,-505,-1
375,684,-558,-1
418,716,-679,-1
337,671,-639,-1
303,715,-597,-1
318,687,-670,-1
294,740,-554,-1
327,878,-658,-1
270,633,-535,-1
310,844,-469,-1
442,789,-512,-1
415,751,-518,-1
395,726,-411,-1
412,659,-445,-1
357,633,-370,-1
400,602,-429,-1
462,696,-446,-1
423,681,-540,-1
378,818,-526,-1
289,768,-481,-1
292,787,-514,-1
243,809,-557,-1
216,876,-540,-1
161,744,-472,-1
198,787,-504,-1
252,883,-498,-1
267,932,-576,-1
222,787,-497,-1
207,764,-522,-1
234,677,-519,-1
277,590,-517,-1
337,772,-531,-1
310,618,-476,-1
347,758,-527,-1
368,748,-523,-1
371,684,-566,-1
387,833,-536,-1
428,824,-532,-1
369,622,-472,-1
333,884,-521,-1
308,810,-416,-1
386,935,-373,-1
421,692,-393,-1
467,653,-345,-1
469,581,-335,-1
495,625,-365,-1
518,700,-494,-1
396,728,-514,-1
321,820,-463,-1
318,878,-493,-1
318,876,-527,-1
273,817,-461,-1
232,825,-477,-1
312,867,-559,-1
200,849,-450,-1
334,872,-505,-1
352,850,-489,-1
305,720,-459,-1
390,771,-469,-1
414,516,-428,-1
386,566,-342,-1
479,670,-461,-1
388,644,-398,-1
438,813,-462,-1
383,712,-458,-1
412,782,-531,-1
392,761,-533,-1
356,822,-436,-1
446,791,-569,-1
420,729,-512,-1
438,876,-415,-1
462,719,-495,-1
587,695,-546,-1
495,618,-483,-1
503,729,-431,-1
417,596,-371,-1
357,721,-263,-1
1143,790,-1150,-1
-592,848,203,-1
453,582,-410,-1
391,843,-564,-1
261,878,-510,-1
180,907,-439,-1
178,768,-244,-1
414,956,-417,-1
230,937,-489,-1
195,634,-361,-1
310,784,-375,-1
371,938,-422,-1
312,635,-414,-1
346,658,-397,-1
356,709,-437,-1
319,670,-417,-1
364,779,-405,-1
355,969,-636,-1
292,435,-497,-1
442,950,-884,-1
153,937,-266,-1
359,674,-478,-1
249,984,-362,-1
380,832,-488,-1
379,404,-478,-1
379,1246,-436,-1
525,572,-705,-1
507,725,-416,-1
502,620,-437,-1
400,551,-302,-1
319,743,-154,-1
325,654,-188,-1
260,925,-255,-1
217,761,-335,-1
426,784,-749,-1
197,1014,-541,-1
221,893,-461,-1
265,821,-506,-1
214,780,-454,-1
247,771,-362,-1
388,828,-494,-1
234,795,-335,-1
317,1138,-241,-1
546,162,-670,-1
368,735,-272,-1
625,929,-779,-1
211,433,-423,-1
436,765,-380,-1
421,587,-623,-1
316,900,-513,-1
415,744,-674,-1
271,866,-434,-1
385,800,-591,-1
242,855,-462,-1
278,882,-444,-1
335,874,-430,-1
331,757,-379,-1
407,756,-384,-1
408,821,-350,-1
572,645,-418,-1
549,728,-417,-1
462,731,-301,-1
480,458,-419,-1
441,906,-410,-1
529,584,-537,-1
332,783,-221,-1
518,755,-573,-1
287,895,-482,-1
209,868,-377,-1
289,1001,-546,-1
185,811,-395,-1
303,847,-462,-1
252,843,-384,-1
288,762,-400,-1
271,815,-345,-1
364,838,-410,-1
430,770,-457,-1
392,711,-429,-1
376,712,-433,-1
336,746,-436,-1
358,778,-557,-1
282,766,-505,-1
277,820,-507,-1
318,864,-515,-1
243,857,-456,-1
240,935,-350,-1
359,748,-412,-1
301,888,-241,-1
510,776,-319,-1
344,708,-220,-1
600,843,-328,-1
466,748,-317,-1
522,649,-280,-1
423,606,-250,-1
398,751,-226,-1
540,777,-537,-1
347,802,-260,-1
461,842,-461,-1
303,904,-364,-1
271,853,-421,-1
227,965,-400,-1
159,955,-426,-1
173,995,-460,-1
203,903,-426,-1
254,831,-299,-1
258,921,-362,-1
338,899,-353,-1
306,841,-309,-1
320,637,-271,-1
362,706,-280,-1
361,732,-401,-1
382,813,-364,-1
370,749,-387,-1
307,756,-353,-1
268,820,-353,-1
382,897,-452,-1
342,880,-485,-1
381,867,-593,-1
384,902,-543,-1
444,997,-637,-1
628,1349,-659,-1
625,941,-529,-1
447,820,-425,-1
248,860,-374,-1
82,790,-354,-1
59,850,-292,-1
-44,685,-293,-1
-106,579,-359,-1
-129,620,-407,-1
-141,709,-541,-1
-207,702,-733,-1
-260,722,-766,-1
-354,771,-845,-1
-381,820,-778,-1
-401,699,-645,-1
-349,695,-610,-1
-335,652,-515,-1
-326,579,-392,-1
-306,552,-337,-1
-340,595,-328,-1
-366,616,-317,-1
-389,612,-311,-1
-405,698,-303,-1
-404,856,-323,-1
-429,879,-427,-1
-471,1011,-493,-1
-518,1049,-515,-1
-442,1057,-436,-1
-396,1011,-364,-1
-351,976,-333,-1
-216,958,-303,-1
-190,770,-176,-1
-236,625,-138,-1
-315,558,-135,-1
-363,571,-142,-1
-420,571,-132,-1
-489,660,-144,-1
-561,724,-139,-1
-617,806,-179,-1
-627,921,-325,-1
-643,979,-422,-1
-702,999,-476,-1
-659,981,-578,-1
-631,862,-521,-1
-569,861,-502,-1
-483,762,-508,-1
-432,623,-357,-1
-400,539,-240,-1
-405,532,-222,-1
-458,554,-242,-1
-518,550,-232,-1
-532,621,-258,-1
-553,722,-303,-1
-592,851,-367,-1
-610,1017,-461,-1
-627,1022,-442,-1
-576,1034,-383,-1
-512,1055,-385,-1
-462,1107,-335,-1
-341,952,-203,-1
-245,797,-144,-1
-237,708,-104,-1
-282,602,-76,-1
-311,512,-63,-1
-347,522,-25,-1
-401,611,-14,-1
-459,732,17,-1
-559,793,29,-1
-575,968,-130,-1
-617,1062,-264,-1
-769,1050,-350,-1
-719,1302,-647,-1
-724,1142,-705,-1
-745,814,-678,-1
-606,690,-675,-1
-503,542,-438,-1
-467,394,-208,-1
-440,322,-66,-1
-451,189,-26,-1
-500,196,-50,-1
-565,303,-165,-1
-510,775,-597,-1
-522,1504,-900,-1
-564,1252,-866,-1
-664,743,-672,-1
-674,970,-347,-1
-542,1099,-13,-1
-432,1004,249,-1
-279,851,266,-1
-128,785,133,-1
-91,915,-120,-1
-184,1008,-375,-1
-302,706,-305,-1
-395,586,-240,-1
-518,578,-151,-1
-627,662,-74,-1
-677,561,-53,-1
-822,353,-94,-1
-892,444,-255,-1
-920,619,-520,-1
-954,632,-605,-1
-753,1047,-758,-1
-658,1352,-830,-1
-534,1093,-687,-1
-524,753,-364,-1
-455,777,-117,-1
-377,574,-26,-1
-304,292,-36,-1
-264,213,-62,-1
-222,438,-121,-1
-225,903,-280,-1
-226,1082,-322,-1
-46,1292,-161,-1
107,1401,93,-1
29,1545,119,-1
-118,1557,55,-1
-99,1454,94,-1
12,1169,191,-1
76,853,168,-1
71,661,84,-1
-2,547,10,-1
-51,533,-94,-1
-115,611,-159,-1
-202,677,-182,-1
-325,770,-231,-1
-405,909,-275,-1
-411,1044,-261,-1
-328,1273,-396,-1
-263,1516,-564,-1
-261,1456,-455,-1
-197,1342,-351,-1
-161,1184,-313,-1
-122,1007,-223,-1
-91,836,-156,-1
-86,693,-140,-1
-99,614,-163,-1
-146,565,-218,-1
-192,576,-290,-1
-213,575,-327,-1
-220,532,-350,-1
-137,616,-387,-1
70,772,-487,-1
247,902,-441,-1
312,1015,-347,-1
373,1332,-314,-1
280,1292,-125,-1
289,1033,-52,-1
320,1183,71,-1
283,1356,-7,-1
153,803,37,-1
164,706,76,-1
218,739,84,-1
334,1244,50,-1
155,604,-352,-1
185,1063,-41,-1
55,914,-79,-1
-14,1172,-67,-1
17,1235,-109,-1
2,1157,-39,-1
72,1059,-60,-1
149,974,-36,-1
178,920,-8,-1
199,668,23,-1
300,805,140,-1
202,829,21,-1
219,928,-7,-1
206,953,70,-1
154,951,-46,-1
101,1023,-31,-1
166,976,-44,-1
106,1093,-32,-1
154,1014,52,-1
129,1086,58,-1
122,1036,141,-1
175,1067,238,-1
327,773,230,-1
353,781,190,-1
278,757,160,-1
228,739,156,-1
258,1019,173,-1
233,800,75,-1
281,893,133,-1
204,849,160,-1
86,1015,188,-1
58,997,238,-1
40,1066,206,-1
110,1097,87,-1
52,979,-53,-1
16,1026,58,-1
-10,1253,300,-1
78,868,221,-1
192,1020,230,-1
208,880,127,-1
280,728,184,-1
293,737,148,-1
295,750,69,-1
192,877,34,-1
152,1024,-19,-1
17,1017,55,-1
70,1060,61,-1
12,1169,84,-1
-56,1033,162,-1
20,1134,261,-1
118,1034,263,-1
193,860,240,-1
345,924,181,-1
404,852,149,-1
394,810,98,-1
276,530,56,-1
268,830,113,-1
417,1131,137,-1
270,743,104,-1
122,893,13,-1
77,1115,156,-1
8,1102,312,-1
93,1082,177,-1
68,1050,50,-1
42,1257,14,-1
-49,861,10,-1
-44,940,215,-1
25,990,251,-1
268,1110,207,-1
322,892,163,-1
195,712,14,-1
237,843,93,-1
230,888,127,-1
130,877,74,-1
88,896,74,-1
91,961,127,-1
75,824,114,-1
157,1226,191,-1
329,1187,86,-1
251,846,34,-1
213,1063,162,-1
186,1001,334,-1
293,797,268,-1
427,906,145,-1
444,674,89,-1
331,690,117,-1
297,813,128,-1
297,957,196,-1
315,1067,209,-1
255,799,117,-1
208,1039,-25,-1
68,1195,240,-1
105,961,81,-1
11,1077,-151,-1
-47,943,-67,-1
-36,1197,9,-1
-78,1158,271,-1
120,759,426,-1
198,955,193,-1
174,590,141,-1
243,1099,284,-1
417,539,325,-1
316,1152,150,-1
286,594,2,-1
50,940,185,-1
201,1040,127,-1
37,933,187,-1
140,1169,120,-1
141,1066,52,-1
223,1067,62,-1
191,1016,74,-1
220,894,227,-1
372,1007,265,-1
345,752,154,-1
377,829,78,-1
411,761,36,-1
357,751,38,-1
363,870,97,-1
234,848,127,-1
213,1080,200,-1
205,801,162,-1
124,1046,274,-1
170,1123,162,-1
-23,756,240,-1
136,1347,253,-1
52,805,262,-1
240,1115,237,-1
136,840,68,-1
170,1059,173,-1
262,764,117,-1
276,859,94,-1
319,858,42,-1
303,929,14,-1
77,814,-23,-1
161,1146,87,-1
194,966,55,-1
222,1047,-3,-1
189,1032,85,-1
197,1065,145,-1
256,994,155,-1
285,838,178,-1
396,798,71,-1
442,923,86,-1
406,744,18,-1
371,768,75,-1
461,895,28,-1
384,619,30,-1
340,1065,54,-1
157,954,18,-1
145,1153,200,-1
152,1024,-89,-1
-124,1135,121,-1
43,1109,162,-1
-101,938,269,-1
113,1175,322,-1
28,884,243,-1
132,952,267,-1
151,790,218,-1
164,702,150,-1
288,1009,24,-1
154,683,25,-1
172,1058,74,-1
156,1035,102,-1
60,881,124,-1
290,1231,280,-1
129,732,98,-1
261,1125,42,-1
240,1017,323,-1
328,951,343,-1
347,779,153,-1
373,815,83,-1
257,648,36,-1
379,992,198,-1
318,732,51,-1
256,940,199,-1
187,952,261,-1
165,1121,333,-1
31,874,289,-1
59,976,222,-1
153,1092,162,-1
43,1000,157,-1
159,921,-37,-1
36,1151,246,-1
190,1025,178,-1
139,906,137,-1
248,1001,240,-1
166,672,99,-1
370,953,191,-1
280,721,70,-1
168,861,98,-1
149,975,156,-1
88,948,153,-1
100,1043,134,-1
162,1110,43,-1
137,910,91,-1
194,1113,164,-1
170,1034,262,-1
236,935,276,-1
328,893,161,-1
355,813,75,-1
305,807,158,-1
303,799,143,-1
242,816,183,-1
245,800,191,-1
131,934,235,-1
258,1096,261,-1
128,948,244,-1
78,967,192,-1
89,988,135,-1
-8,942,106,-1
30,1170,214,-1
96,1134,123,-1
142,966,6,-1
85,915,76,-1
178,905,164,-1
161,836,171,-1
259,906,65,-1
206,807,66,-1
105,937,142,-1
119,1039,82,-1
58,1032,95,-1
153,1148,36,-1
66,889,38,-1
213,1113,76,-1
140,1014,132,-1
225,1056,301,-1
264,832,174,-1
293,852,245,-1
323,744,27,-1
277,862,102,-1
464,864,117,-1
311,696,49,-1
300,984,102,-1
190,942,235,-1
185,985,168,-1
185,995,199,-1
153,983,178,-1
276,1078,-3,-1
97,860,-1,-1
22,1175,174,-1
59,1048,276,-1
172,749,169,-1
180,1271,241,-1
269,695,218,-1
214,775,176,-1
367,902,208,-1
224,735,52,-1
184,826,49,-1
162,969,136,-1
51,1069,136,-1
70,1069,133,-1
56,990,84,-1
79,1067,162,-1
111,1025,203,-1
99,1048,254,-1
183,986,327,-1
264,790,179,-1
344,879,149,-1
300,788,190,-1
327,806,162,-1
365,918,176,-1
227,824,150,-1
178,880,154,-1
198,1183,239,-1
8,810,202,-1
83,1047,212,-1
-21,1015,233,-1
80,1030,144,-1
64,989,188,-1
30,1022,201,-1
65,974,239,-1
126,1038,137,-1
114,1021,125,-1
102,808,152,-1
190,982,237,-1
251,810,75,-1
223,787,-37,-1
185,916,45,-1
132,1015,42,-1
130,1034,37,-1
142,1071,70,-1
134,986,75,-1
144,1060,206,-1
122,912,184,-1
139,1127,276,-1
218,873,263,-1
269,832,216,-1
316,851,178,-1
308,802,151,-1
337,874,200,-1
320,824,115,-1
236,791,141,-1
207,999,161,-1
121,971,215,-1
86,945,210,-1
99,1024,188,-1
70,1060,153,-1
67,936,144,-1
26,1051,160,-1
23,1077,230,-1
124,894,158,-1
149,1158,164,-1
214,810,194,-1
126,776,172,-1
256,892,144,-1
209,933,129,-1
136,843,91,-1
105,1016,60,-1
82,996,158,-1
80,1043,136,-1
113,1003,105,-1
77,947,129,-1
120,1159,109,-1
104,1044,235,-1
226,1054,316,-1
296,781,164,-1
321,706,101,-1
339,899,198,-1
361,750,144,-1
290,741,122,-1
279,939,257,-1
234,937,247,-1
119,910,236,-1
144,997,277,-1
63,848,260,-1
91,984,247,-1
150,1198,205,-1
94,787,-3,-1
-20,1150,54,-1
117,1191,259,-1
127,878,170,-1
281,1169,119,-1
118,435,151,-1
-31,727,305,-1
328,1366,322,-1
105,671,180,-1
86,975,100,-1
45,968,237,-1
72,950,156,-1
97,1020,116,-1
159,1082,134,-1
152,879,78,-1
130,1102,133,-1
277,1122,186,-1
286,803,122,-1
294,766,128,-1
255,922,218,-1
489,990,153,-1
263,513,26,-1
396,999,116,-1
189,669,58,-1
168,1105,189,-1
32,1055,296,-1
300,1146,100,-1
199,747,-72,-1
-100,1329,169,-1
104,720,230,-1
-67,1456,402,-1
185,634,229,-1
154,918,336,-1
224,987,197,-1
81,776,331,-1
220,1007,242,-1
189,698,212,-1
115,921,83,-1
100,948,136,-1
49,977,150,-1
72,992,103,-1
38,1039,184,-1
116,1107,189,-1
24,851,119,-1
36,1221,275,-1
136,943,337,-1
166,864,212,-1
294,1004,208,-1
253,666,187,-1
306,854,89,-1
363,745,139,-1
328,828,107,-1
266,877,120,-1
193,904,165,-1
136,1110,228,-1
151,1085,157,-1
100,915,17,-1
11,1147,14,-1
-69,1083,295,-1
1,919,217,-1
109,1050,145,-1
122,813,99,-1
167,982,274,-1
237,745,73,-1
225,840,20,-1
226,903,-39,-1
24,943,70,-1
113,1036,98,-1
115,995,62,-1
120,1074,96,-1
110,1000,72,-1
76,1205,193,-1
223,1374,133,-1
34,549,59,-1
52,823,316,-1
199,1092,269,-1
205,727,268,-1
482,908,112,-1
347,531,29,-1
374,924,79,-1
209,865,115,-1
148,1009,167,-1
65,968,243,-1
53,990,255,-1
0,887,148,-1
-18,1115,158,-1
-42,1079,300,-1
18,989,178,-1
127,1070,120,-1
106,923,138,-1
236,1080,181,-1
326,876,21,-1
214,646,-110,-1
190,1045,86,-1
270,813,-142,-1
103,938,-4,-1
229,1085,39,-1
112,959,34,-1
307,1119,7,-1
58,828,94,-1
256,1152,100,-1
105,912,164,-1
141,1003,274,-1
363,967,150,-1
190,680,59,-1
279,902,87,-1
366,955,127,-1
260,787,99,-1
277,860,116,-1
308,954,90,-1
258,1042,104,-1
83,811,190,-1
45,1138,310,-1
20,698,178,-1
-80,890,257,-1
489,1204,27,-1
-128,306,178,-1
202,1404,-106,-1
89,947,187,-1
114,849,150,-1
175,913,133,-1
343,937,-34,-1
175,777,25,-1
241,852,-38,-1
217,963,13,-1
172,930,-20,-1
100,943,-19,-1
163,1181,30,-1
165,944,-15,-1
151,1023,18,-1
158,1139,214,-1
129,792,365,-1
408,1048,194,-1
356,803,66,-1
362,780,-48,-1
322,635,-85,-1
124,1215,337,-1
475,653,-68,-1
123,1045,235,-1
402,860,-53,-1
-69,816,198,-1
239,1244,141,-1
-82,848,176,-1
54,1301,160,-1
-52,861,197,-1
51,1263,140,-1
100,962,56,-1
86,892,127,-1
156,953,103,-1
161,884,117,-1
271,892,17,-1
188,818,-22,-1
250,997,-59,-1
60,885,35,-1
50,812,77,-1
236,1280,104,-1
67,877,45,-1
150,1088,90,-1
123,893,57,-1
115,1264,256,-1
150,884,214,-1
154,547,199,-1
355,1306,263,-1
423,745,24,-1
264,656,69,-1
375,784,-61,-1
216,971,106,-1
211,892,155,-1
110,902,183,-1
45,1075,218,-1
99,1156,201,-1
-55,880,162,-1
-19,1079,200,-1
-56,1021,310,-1
97,953,154,-1
106,1056,109,-1
227,1019,60,-1
164,857,113,-1
221,902,97,-1
243,729,19,-1
194,846,-22,-1
200,1088,61,-1
259,870,12,-1
120,1055,51,-1
79,1085,102,-1
73,1001,151,-1
85,947,117,-1
86,1030,161,-1
129,1148,318,-1
137,863,294,-1
302,866,166,-1
349,830,119,-1
301,728,107,-1
317,827,106,-1
401,821,86,-1
300,993,99,-1
211,872,122,-1
113,1069,207,-1
20,787,269,-1
-17,1045,281,-1
4,1047,261,-1
15,1057,236,-1
53,1088,268,-1
-38,1001,261,-1
22,755,207,-1
86,913,266,-1
383,1304,211,-1
125,570,169,-1
347,1008,20,-1
302,688,101,-1
240,830,86,-1
174,940,174,-1
200,937,110,-1
166,1035,71,-1
121,988,65,-1
120,1012,59,-1
69,1105,111,-1
-10,1048,168,-1
10,1025,267,-1
127,1053,307,-1
249,883,165,-1
266,770,95,-1
283,928,175,-1
291,810,226,-1
276,871,238,-1
230,748,130,-1
232,1047,218,-1
142,788,154,-1
63,1135,373,-1
105,753,214,-1
66,1211,231,-1
145,890,63,-1
38,977,96,-1
67,1256,197,-1
156,740,122,-1
66,1026,137,-1
175,986,157,-1
152,774,219,-1
255,979,165,-1
279,815,23,-1
152,793,-12,-1
150,1072,18,-1
182,942,75,-1
162,1006,114,-1
232,1159,62,-1
240,779,99,-1
194,1024,131,-1
229,1112,233,-1
405,862,185,-1
288,803,34,-1
365,910,-85,-1
332,836,46,-1
337,853,-36,-1
325,808,21,-1
257,991,87,-1
265,1059,41,-1
157,919,55,-1
66,1052,176,-1
89,1143,180,-1
-60,904,211,-1
-9,1267,118,-1
32,1011,132,-1
13,983,62,-1
56,1075,93,-1
149,850,135,-1
180,791,26,-1
343,785,-37,-1
339,825,-100,-1
228,779,-169,-1
113,1022,-142,-1
189,789,2,-1
206,1199,45,-1
176,974,-8,-1
156,979,26,-1
88,1082,31,-1
176,1136,216,-1
289,814,184,-1
320,881,93,-1
361,818,-63,-1
292,700,49,-1
492,970,-42,-1
233,745,-4,-1
252,978,0,-1
149,905,100,-1
77,1241,223,-1
-17,1001,292,-1
94,1157,176,-1
-45,899,211,-1
-3,942,59,-1
77,1281,182,-1
169,791,138,-1
139,993,252,-1
255,855,113,-1
270,828,124,-1
388,952,68,-1
389,495,-79,-1
299,891,-84,-1
303,770,-126,-1
211,998,-71,-1
263,1029,-25,-1
197,1010,-11,-1
175,1069,-23,-1
119,1016,71,-1
133,1133,107,-1
234,1013,241,-1
288,927,284,-1
333,791,171,-1
365,826,119,-1
284,785,66,-1
451,987,-20,-1
254,693,-52,-1
311,933,-82,-1
318,923,-22,-1
159,971,20,-1
170,865,182,-1
100,1079,66,-1
223,1197,-196,-1
39,623,-264,-1
165,1656,97,-1
203,703,54,-1
124,911,41,-1
296,1092,-91,-1
230,711,29,-1
265,1031,80,-1
223,890,71,-1
111,941,200,-1
189,1055,-45,-1
144,989,86,-1
143,1039,1,-1
10,972,23,-1
153,1037,20,-1
114,959,-80,-1
94,1090,37,-1
177,928,131,-1
201,857,73,-1
281,1000,161,-1
182,599,-6,-1
445,1142,4,-1
285,603,-57,-1
309,919,-28,-1
353,897,68,-1
262,836,93,-1
207,944,102,-1
159,1032,161,-1
115,953,-6,-1
20,1141,32,-1
-44,995,108,-1
70,1248,60,-1
34,930,30,-1
143,1063,147,-1
198,910,141,-1
196,608,6,-1
296,1016,-120,-1
274,818,-146,-1
184,879,-87,-1
221,1123,-77,-1
164,949,-103,-1
211,1013,0,-1
252,1060,45,-1
235,913,125,-1
282,994,207,-1
409,841,73,-1
323,667,59,-1
427,1065,-56,-1
418,553,-40,-1
423,941,-93,-1
379,870,-28,-1
275,881,-6,-1
208,1001,-62,-1
202,1053,-1,-1
90,919,63,-1
0,1123,-68,-1
-92,1203,-82,-1
-92,982,-42,-1
23,1309,-15,-1
123,969,-15,-1
202,758,189,-1
289,833,79,-1
228,653,28,-1
354,1027,-129,-1
259,581,-101,-1
225,1119,-97,-1
173,828,-73,-1
67,981,5,-1
199,1172,-13,-1
103,913,26,-1
138,1154,33,-1
98,951,128,-1
144,1003,234,-1
289,982,259,-1
365,740,134,-1
329,805,28,-1
452,873,1,-1
349,562,-57,-1
451,980,-129,-1
302,826,25,-1
264,960,-29,-1
196,1081,104,-1
196,967,115,-1
213,1067,-95,-1
105,1056,72,-1
63,944,208,-1
134,1106,137,-1
196,999,189,-1
333,963,29,-1
199,824,4,-1
285,949,-48,-1
336,691,-39,-1
300,847,-71,-1
320,821,-108,-1
220,825,-118,-1
343,1092,-153,-1
298,935,-176,-1
260,1049,-245,-1
368,947,-272,-1
208,819,-249,-1
196,1167,-218,-1
228,1020,-30,-1
266,914,34,-1
347,817,-28,-1
344,703,-123,-1
383,932,-38,-1
488,711,-162,-1
343,768,-148,-1
400,892,-164,-1
232,891,-83,-1
163,1032,-36,-1
144,997,-73,-1
98,1109,-137,-1
56,1237,-110,-1
63,911,-84,-1
31,1097,-65,-1
169,1075,-55,-1
183,923,38,-1
198,889,-66,-1
197,783,-79,-1
238,858,-193,-1
295,867,-265,-1
202,861,-261,-1
123,857,-236,-1
190,1076,-215,-1
171,986,-162,-1
137,1026,-116,-1
155,923,-58,-1
158,1149,-38,-1
205,907,122,-1
288,939,159,-1
392,960,7,-1
366,750,-32,-1
388,673,-55,-1
385,726,-21,-1
413,744,-37,-1
440,896,-91,-1
287,847,-95,-1
122,995,-15,-1
104,1258,-22,-1
44,951,-59,-1
67,1240,-7,-1
-20,919,-37,-1
4,1028,3,-1
95,1256,-138,-1
193,810,-105,-1
209,1087,-101,-1
228,757,-11,-1
313,687,57,-1
296,880,-51,-1
317,817,-62,-1
244,810,-59,-1
236,1053,-65,-1
228,937,-67,-1
241,971,-75,-1
241,904,-68,-1
283,1129,-52,-1
269,879,-3,-1
336,1039,44,-1
412,884,0,-1
378,838,-82,-1
333,783,-15,-1
323,818,-66,-1
399,943,-76,-1
303,845,-84,-1
249,893,-43,-1
138,973,36,-1
209,1232,-1,-1
102,901,-18,-1
64,1062,-26,-1
20,1072,219,-1
105,1055,-25,-1
78,843,-41,-1
60,647,50,-1
170,1185,224,-1
678,525,-166,-1
70,434,-93,-1
803,1326,-290,-1
304,737,-300,-1
45,781,42,-1
203,1306,-124,-1
47,789,-187,-1
248,1435,-235,-1
178,690,-243,-1
140,1163,-162,-1
177,1169,-21,-1
248,767,-37,-1
300,713,-56,-1
335,772,69,-1
344,701,60,-1
448,773,-131,-1
466,743,-222,-1
418,763,-154,-1
277,1441,58,-1
44,649,-222,-1
68,1298,87,-1
87,1025,-382,-1
101,1192,15,-1
64,974,-247,-1
86,1053,-79,-1
204,983,-93,-1
121,1037,-15,-1
189,763,-66,-1
148,843,-117,-1
421,802,-103,-1
421,876,-357,-1
335,812,-312,-1
280,772,-106,-1
453,1072,-80,-1
376,859,-103,-1
332,720,-279,-1
436,1284,-56,-1
262,941,-130,-1
360,1022,56,-1
316,991,-15,-1
250,406,-23,-1
456,1118,-86,-1
215,457,-34,-1
322,783,-88,-1
462,1047,90,-1
167,563,-95,-1
497,1792,137,-1
183,206,-118,-1
113,1361,-91,-1
111,1134,-41,-1
40,1024,-88,-1
105,1115,-46,-1
129,831,22,-1
234,1025,-2,-1
233,1025,8,-1
195,512,-112,-1
262,905,20,-1
401,1059,-64,-1
379,579,-282,-1
402,991,-99,-1
405,1146,-225,-1
278,839,-174,-1
237,929,-157,-1
273,1528,44,-1
130,429,18,-1
231,1389,201,-1
374,699,92,-1
288,661,88,-1
486,988,0,-1
350,549,41,-1
302,863,96,-1
289,910,-104,-1
384,757,-35,-1
74,873,93,-1
186,1051,-112,-1
78,1424,-106,-1
-6,1134,-110,-1
-166,1118,134,-1
-79,964,169,-1
57,1304,143,-1
191,802,-46,-1
227,719,-53,-1
201,869,34,-1
440,701,-156,-1
332,886,-61,-1
491,523,-344,-1
308,909,-45,-1
426,1005,-194,-1
117,568,70,-1
92,858,-86,-1
721,1325,-520,-1
145,392,126,-1
271,1335,-366,-1
265,1012,102,-1
297,749,235,-1
422,821,-210,-1
331,902,298,-1
393,517,-8,-1
352,778,-226,-1
557,1182,-418,-1
705,866,-797,-1
489,801,8,-1
181,1499,-124,-1
-122,439,269,-1
-248,590,-171,-1
-108,1782,-375,-1
161,424,57,-1
368,986,-666,-1
222,1166,-170,-1
145,835,-361,-1
374,1112,-463,-1
270,629,247,-1
179,589,-754,-1
150,774,-107,-1
106,587,114,-1
165,1453,-818,-1
19,821,620,-1
176,1060,-699,-1
72,724,-240,-1
386,761,-268,-1
372,1883,-548,-1
221,423,-240,-1
518,1147,-192,-1
401,516,-274,-1
245,469,-237,-1
156,443,-199,-1
243,732,-184,-1
224,686,-172,-1
270,1296,110,-1
-7,748,-38,-1
-74,1212,-91,-1
30,882,-265,-1
119,960,-750,-1
143,1786,-428,-1
246,576,-392,-1
96,504,-306,-1
493,1597,-36,-1
278,554,-353,-1
215,723,-388,-1
191,793,-404,-1
272,1050,-413,-1
111,809,-346,-1
0,827,-176,-1
20,727,-471,-1
85,1314,-384,-1
-58,827,-259,-1
75,1055,-307,-1
32,1034,-329,-1
124,1134,-135,-1
300,873,-203,-1
376,908,-134,-1
488,878,-173,-1
202,573,-131,-1
199,691,-98,-1
129,574,-127,-1
150,826,-39,-1
171,1422,262,-1
-48,398,-8,-1
161,1646,-279,-1
10,802,-217,-1
-239,121,202,-1
78,1499,-317,-1
-429,799,-84,-1
123,703,-340,-1
115,714,-86,-1
98,851,-254,-1
106,942,-157,-1
105,725,-66,-1
139,987,-232,-1
131,936,-84,-1
29,917,-164,-1
16,1005,-83,-1
-99,1192,-128,-1
47,784,-139,-1
52,1100,35,-1
41,814,-48,-1
310,1006,-47,-1
418,1204,-89,-1
324,907,-50,-1
341,547,-240,-1
278,717,-104,-1
340,1146,-248,-1
212,668,-54,-1
328,1407,-112,-1
70,583,80,-1
57,1353,144,-1
-139,870,-85,-1
13,1115,220,-1
-52,1093,52,-1
70,830,-24,-1
78,1074,24,-1
78,911,-49,-1
100,870,65,-1
128,851,68,-1
232,733,-98,-1
311,894,-5,-1
253,1010,41,-1
135,825,16,-1
151,1246,-89,-1
158,1093,-15,-1
142,828,-45,-1
23,1194,130,-1
124,805,66,-1
130,1066,261,-1
245,904,116,-1
320,763,52,-1
389,1009,-182,-1
280,846,60,-1
284,1198,-207,-1
344,764,-106,-1
169,683,-27,-1
-80,880,0,-1
-160,609,338,-1
-192,1720,210,-1
123,429,331,-1
78,964,-26,-1
-22,1314,89,-1
35,774,282,-1
172,1111,-109,-1
319,870,0,-1
367,773,0,-1
372,881,-82,-1
374,697,-91,-1
290,810,-111,-1
310,873,-215,-1
263,1018,-1,-1
201,907,-29,-1
124,982,-7,-1
188,1287,-139,-1
126,649,-19,-1
21,1384,-293,-1
99,921,-141,-1
48,967,164,-1
-71,1356,171,-1
403,347,125,-1
180,1109,109,-1
291,528,90,-1
316,1094,30,-1
303,1100,3,-1
80,452,118,-1
-76,1461,317,-1
-68,929,281,-1
68,751,405,-1
-125,1214,273,-1
94,822,324,-1
84,914,162,-1
51,1082,90,-1
224,1070,163,-1
154,770,156,-1
66,544,181,-1
209,1368,222,-1
261,696,81,-1
-12,982,219,-1
128,1312,218,-1
92,686,286,-1
-75,1148,315,-1
28,1082,376,-1
36,238,285,-1
67,1198,423,-1
191,972,541,-1
325,570,494,-1
364,908,355,-1
509,973,267,-1
183,511,106,-1
252,1022,299,-1
226,830,198,-1
136,766,210,-1
95,1403,526,-1
102,679,157,-1
3,1080,607,-1
-168,1020,319,-1
-30,512,471,-1
-71,1430,664,-1
127,819,350,-1
116,537,349,-1
69,1126,343,-1
200,879,253,-1
168,553,304,-1
219,1001,317,-1
259,803,404,-1
247,677,231,-1
255,1037,169,-1
133,1085,301,-1
117,707,50,-1
39,1378,379,-1
142,733,107,-1
114,907,132,-1
106,1310,299,-1
136,939,324,-1
230,543,-28,-1
408,1463,564,-1
326,302,-243,-1
184,935,7,-1
425,1081,15,-1
197,640,13,-1
345,1150,-36,-1
161,862,287,-1
97,963,145,-1
125,703,8,-1
8,1525,504,-1
6,424,-12,-1
-106,1437,443,-1
-50,803,120,-1
158,1129,341,-1
138,820,75,-1
131,788,150,-1
216,958,182,-1
223,939,18,-1
280,948,-11,-1
126,994,41,-1
160,1010,104,-1
142,888,115,-1
128,934,199,-1
170,978,152,-1
127,962,101,-1
170,1016,73,-1
167,1024,122,-1
213,1047,185,-1
283,911,66,-1
247,775,72,-1
237,1025,149,-1
325,877,68,-1
227,819,64,-1
204,1146,137,-1
132,799,209,-1
140,891,147,-1
7,977,385,-1
-90,1167,403,-1
7,850,329,-1
-57,958,423,-1
29,931,265,-1
83,832,231,-1
97,1153,285,-1
189,704,166,-1
245,863,319,-1
239,733,151,-1
215,952,133,-1
220,971,95,-1
153,940,138,-1
87,1032,270,-1
126,874,216,-1
126,1238,268,-1
136,700,102,-1
6,628,126,-1
149,1749,475,-1
189,236,45,-1
306,989,397,-1
410,945,-12,-1
156,718,138,-1
373,1121,-5,-1
291,878,58,-1
291,1007,-38,-1
59,933,182,-1
18,1007,255,-1
-10,862,343,-1
-99,1114,391,-1
-25,742,414,-1
-26,973,439,-1
67,871,297,-1
114,944,274,-1
171,1040,161,-1
143,742,110,-1
187,848,87,-1
205,1077,112,-1
160,812,20,-1
97,1156,87,-1
50,970,108,-1
51,965,193,-1
85,1040,134,-1
85,939,162,-1
150,1025,171,-1
157,917,174,-1
174,971,242,-1
301,924,157,-1
297,813,115,-1
289,926,193,-1
269,751,102,-1
303,969,107,-1
282,958,-2,-1
149,1015,139,-1
61,922,178,-1
1,930,297,-1
-27,1108,217,-1
14,965,137,-1
-14,1156,340,-1
-15,829,152,-1
93,973,314,-1
153,912,257,-1
172,809,171,-1
202,987,184,-1
218,771,67,-1
159,975,84,-1
153,935,38,-1
170,973,106,-1
157,976,114,-1
122,889,167,-1
124,1134,161,-1
194,911,146,-1
-2,947,294,-1
92,1169,266,-1
260,882,299,-1
180,802,157,-1
247,1103,201,-1
226,594,183,-1
232,1069,192,-1
245,817,71,-1
297,779,105,-1
71,1194,240,-1
138,819,155,-1
27,1098,416,-1
17,837,169,-1
88,866,350,-1
12,1151,113,-1
99,866,170,-1
150,1134,27,-1
188,960,20,-1
239,954,34,-1
212,774,79,-1
189,634,0,-1
143,1293,312,-1
166,542,-217,-1
153,1493,161,-1
191,768,-119,-1
25,1067,174,-1
15,1107,-129,-1
74,976,168,-1
-3,1086,156,-1
133,859,165,-1
201,936,294,-1
260,897,216,-1
284,832,161,-1
290,865,167,-1
284,754,58,-1
328,915,100,-1
389,839,36,-1
240,1044,55,-1
151,949,128,-1
2,974,286,-1
10,1051,155,-1
-34,1005,278,-1
-51,1024,262,-1
4,997,290,-1
11,859,180,-1
162,1080,114,-1
163,853,123,-1
204,865,103,-1
201,925,149,-1
182,768,68,-1
214,924,36,-1
262,1025,-30,-1
59,960,111,-1
91,1170,92,-1
193,862,153,-1
111,1046,139,-1
163,934,138,-1
157,988,102,-1
188,1005,178,-1
258,887,161,-1
361,869,18,-1
294,866,16,-1
274,887,13,-1
331,991,-6,-1
202,948,66,-1
89,932,128,-1
20,980,227,-1
8,987,229,-1
-88,1169,273,-1
8,876,207,-1
26,1016,204,-1
110,1073,190,-1
160,887,58,-1
184,1003,73,-1
187,827,119,-1
247,889,158,-1
233,698,-30,-1
202,1059,123,-1
244,870,55,-1
88,1027,145,-1
175,941,140,-1
69,929,80,-1
90,1132,76,-1
59,1022,20,-1
-60,1102,-64,-1
92,1140,129,-1
263,849,136,-1
313,861,229,-1
288,667,155,-1
249,824,160,-1
362,909,174,-1
327,909,58,-1
331,899,20,-1
216,925,100,-1
103,998,219,-1
115,972,180,-1
78,989,242,-1
65,996,230,-1
37,1039,219,-1
79,916,180,-1
111,1032,209,-1
179,947,66,-1
164,876,95,-1
259,888,-2,-1
245,842,-10,-1
268,850,-62,-1
275,983,-23,-1
197,909,3,-1
172,1051,18,-1
188,930,-18,-1
175,1084,-30,-1
176,996,-14,-1
150,961,-20,-1
211,1103,37,-1
271,935,43,-1
257,822,18,-1
329,996,-56,-1
225,856,80,-1
285,862,43,-1
366,919,3,-1
308,929,19,-1
243,903,69,-1
165,892,86,-1
167,1047,125,-1
121,874,130,-1
48,1198,112,-1
0,987,71,-1
38,998,67,-1
-3,1243,80,-1
226,920,97,-1
261,869,-5,-1
233,781,55,-1
197,770,29,-1
179,982,-122,-1
200,944,-19,-1
196,1068,-37,-1
134,972,-5,-1
71,954,79,-1
138,1069,40,-1
163,776,41,-1
175,1093,153,-1
251,882,137,-1
302,910,153,-1
404,927,3,-1
338,765,24,-1
259,892,8,-1
218,919,95,-1
287,972,39,-1
264,1006,4,-1
137,1019,112,-1
74,983,199,-1
-43,967,397,-1
43,1082,290,-1
-34,861,374,-1
48,1030,208,-1
112,903,151,-1
115,876,83,-1
168,999,27,-1
171,982,50,-1
171,835,109,-1
244,848,78,-1
281,842,-72,-1
217,915,-346,-1
224,1116,-118,-1
246,831,-85,-1
286,1000,-118,-1
177,958,-40,-1
143,1052,29,-1
202,966,0,-1
275,937,59,-1
262,936,61,-1
379,882,-5,-1
407,889,-67,-1
331,826,-120,-1
275,869,-71,-1
262,884,-70,-1
335,1044,-78,-1
322,898,-180,-1
196,904,-58,-1
219,1072,-42,-1
194,837,-97,-1
161,1081,-108,-1
113,1058,-95,-1
118,996,-95,-1
56,940,-50,-1
152,914,-79,-1
224,964,-228,-1
217,986,-198,-1
300,891,-133,-1
320,861,-288,-1
342,869,-207,-1
148,768,-101,-1
268,968,-126,-1
272,935,-73,-1
133,917,-196,-1
322,1280,-255,-1
163,727,-76,-1
156,1155,-272,-1
222,887,-168,-1
141,711,134,-1
136,1102,-800,-1
544,956,147,-1
370,808,38,-1
322,703,-446,-1
271,890,252,-1
339,1105,-516,-1
420,848,-40,-1
401,892,-169,-1
193,1014,11,-1
106,710,119,-1
5,944,133,-1
107,1458,55,-1
241,518,109,-1
-17,1190,93,-1
-43,1079,234,-1
100,620,380,-1
-8,1219,317,-1
271,634,167,-1
179,964,312,-1
309,800,-185,-1
222,664,-77,-1
275,1334,123,-1
192,660,13,-1
95,992,151,-1
214,1059,-104,-1
147,991,166,-1
76,1183,218,-1
71,1010,186,-1
170,758,228,-1
229,1065,59,-1
314,953,117,-1
323,1029,120,-1
377,1161,240,-1
218,452,14,-1
298,1003,301,-1
322,899,40,-1
213,915,174,-1
181,1082,162,-1
60,785,273,-1
61,1031,306,-1
67,962,373,-1
56,816,375,-1
70,994,356,-1
89,805,354,-1
154,1052,293,-1
213,903,196,-1
226,881,152,-1
276,913,197,-1
279,776,84,-1
239,896,273,-1
258,893,183,-1
193,1023,202,-1
118,966,170,-1
75,1068,235,-1
139,1210,135,-1
-58,1021,217,-1
33,1002,218,-1
158,1048,326,-1
173,737,339,-1
285,871,247,-1
375,839,286,-1
298,693,212,-1
364,696,351,-1
324,690,338,-1
231,967,314,-1
196,1049,222,-1
93,888,289,-1
43,1026,414,-1
12,941,394,-1
-50,732,433,-1
16,1154,555,-1
11,676,523,-1
69,882,520,-1
166,888,486,-1
207,881,336,-1
158,850,359,-1
278,760,209,-1
206,738,157,-1
173,876,251,-1
126,1033,236,-1
101,946,283,-1
168,1116,287,-1
123,903,161,-1
17,898,148,-1
223,1567,346,-1
93,601,189,-1
48,748,316,-1
314,965,412,-1
441,946,373,-1
575,954,41,-1
58,456,36,-1
370,1270,273,-1
217,771,112,-1
230,961,222,-1
254,952,233,-1
135,912,271,-1
109,947,299,-1
94,1041,412,-1
81,886,335,-1
38,852,397,-1
59,989,471,-1
113,679,344,-1
104,1053,493,-1
214,759,204,-1
277,1100,401,-1
303,626,97,-1
171,750,-19,-1
410,1237,272,-1
90,702,78,-1
48,667,384,-1
185,1223,322,-1
159,1006,210,-1
153,940,-16,-1
31,1165,142,-1
89,1137,154,-1
173,1001,180,-1
237,929,216,-1
292,918,138,-1
275,908,162,-1
297,735,97,-1
228,720,102,-1
207,745,74,-1
260,1092,114,-1
196,1066,43,-1
115,899,37,-1
101,1016,140,-1
-14,1267,231,-1
-6,730,36,-1
-29,1363,360,-1
-55,832,85,-1
-14,1086,183,-1
114,951,171,-1
209,883,143,-1
252,748,79,-1
279,803,106,-1
257,812,13,-1
173,887,-61,-1
131,1093,-89,-1
91,1129,10,-1
137,937,-37,-1
165,1066,96,-1
169,1087,4,-1
109,961,131,-1
84,1049,164,-1
176,915,245,-1
276,771,231,-1
335,930,197,-1
239,709,111,-1
272,889,158,-1
249,906,83,-1
236,887,8,-1
163,1146,57,-1
109,985,130,-1
5,800,268,-1
-61,1342,335,-1
-21,756,315,-1
-120,954,404,-1
-84,1082,347,-1
76,835,302,-1
131,979,170,-1
129,916,179,-1
153,745,163,-1
253,809,150,-1
239,731,152,-1
235,957,127,-1
160,988,44,-1
227,1224,70,-1
137,838,68,-1
107,1230,204,-1
119,765,72,-1
101,1100,247,-1
131,964,175,-1
239,981,210,-1
326,935,115,-1
285,747,30,-1
283,984,226,-1
249,773,72,-1
303,953,247,-1
313,925,38,-1
279,1029,56,-1
54,758,124,-1
4,1122,249,-1
10,932,230,-1
-17,1103,231,-1
-7,998,134,-1
-6,988,169,-1
119,1187,105,-1
87,896,63,-1
153,1101,117,-1
220,982,185,-1
134,693,-40,-1
148,665,62,-1
123,784,203,-1
109,852,271,-1
251,1202,250,-1
162,824,157,-1
161,1099,137,-1
76,970,-201,-1
72,1072,-19,-1
13,1274,170,-1
128,935,23,-1
339,872,96,-1
338,896,85,-1
197,825,82,-1
253,952,175,-1
222,796,76,-1
295,1006,98,-1
155,868,66,-1
92,866,170,-1
33,1066,290,-1
-34,884,315,-1
-35,1092,275,-1
-27,896,317,-1
-78,1015,258,-1
-35,1005,199,-1
36,1028,162,-1
54,1015,99,-1
143,952,-34,-1
183,835,-48,-1
165,757,48,-1
219,972,84,-1
129,757,115,-1
169,1119,142,-1
115,835,139,-1
149,1029,96,-1
136,1116,148,-1
86,805,89,-1
126,1155,105,-1
133,1045,121,-1
227,1006,130,-1
298,803,0,-1
247,925,84,-1
227,934,56,-1
131,844,151,-1
283,1076,94,-1
264,938,36,-1
80,935,198,-1
142,1048,192,-1
72,743,268,-1
-35,1195,348,-1
-34,851,286,-1
35,909,337,-1
-23,983,325,-1
76,904,143,-1
128,1028,88,-1
140,962,111,-1
182,774,74,-1
220,878,89,-1
250,940,6,-1
184,963,33,-1
163,966,-3,-1
108,985,151,-1
167,961,77,-1
171,897,82,-1
47,1246,204,-1
131,869,53,-1
49,974,243,-1
204,1110,218,-1
245,767,196,-1
330,903,148,-1
299,832,101,-1
328,777,65,-1
408,977,-18,-1
209,856,71,-1
185,949,87,-1
137,1017,125,-1
76,782,192,-1
26,1131,239,-1
-66,1010,130,-1
-63,1150,189,-1
-80,995,113,-1
-39,1035,94,-1
157,1359,232,-1
117,620,-63,-1
167,922,184,-1
273,805,113,-1
205,688,164,-1
244,1010,131,-1
43,1016,49,-1
64,1196,202,-1
24,788,177,-1
26,973,251,-1
31,1137,293,-1
149,626,150,-1
105,1215,285,-1
258,899,233,-1
366,899,187,-1
364,770,39,-1
262,808,98,-1
302,848,98,-1
376,879,-2,-1
393,969,-69,-1
31,936,60,-1
96,1136,192,-1
47,893,245,-1
-27,920,244,-1
-81,1202,260,-1
-75,859,154,-1
-72,1117,269,-1
-48,997,90,-1
119,944,43,-1
42,1197,21,-1
101,784,42,-1
148,968,130,-1
184,695,88,-1
271,787,172,-1
139,876,155,-1
69,939,104,-1
53,1081,189,-1
62,914,75,-1
85,1091,173,-1
86,1096,116,-1
110,914,73,-1
119,1116,238,-1
242,993,114,-1
319,802,75,-1
285,1021,256,-1
244,702,86,-1
239,836,213,-1
294,949,48,-1
137,796,96,-1
161,1138,156,-1
75,870,137,-1
-75,1011,187,-1
-118,1182,143,-1
-99,984,187,-1
-114,1015,156,-1
-43,1032,128,-1
32,998,8,-1
71,938,-2,-1
14,1173,97,-1
91,714,39,-1
120,904,191,-1
283,734,173,-1
184,685,62,-1
61,1242,263,-1
47,882,95,-1
0,978,226,-1
-50,1238,233,-1
-23,852,119,-1
69,1241,85,-1
8,881,58,-1
83,792,192,-1
279,1228,217,-1
287,622,161,-1
431,915,181,-1
268,610,8,-1
352,911,294,-1
443,1188,26,-1
161,569,-114,-1
-59,803,153,-1
64,1304,320,-1
32,1135,51,-1
25,1025,-10,-1
-22,913,44,-1
-56,1204,-2,-1
-44,1099,105,-1
3,1003,36,-1
59,921,70,-1
149,889,23,-1
230,735,-24,-1
254,930,81,-1
279,874,-65,-1
167,700,-85,-1
188,1216,83,-1
177,898,-116,-1
135,1073,-2,-1
91,1095,-39,-1
96,827,64,-1
53,1434,264,-1
100,704,167,-1
259,880,337,-1
495,727,-100,-1
262,1133,398,-1
276,698,45,-1
99,701,21,-1
284,1156,139,-1
240,833,182,-1
216,971,31,-1
52,838,165,-1
14,1285,267,-1
-25,977,81,-1
-58,1180,262,-1
-82,877,180,-1
12,1128,113,-1
76,806,8,-1
86,939,126,-1
137,985,80,-1
190,887,-100,-1
181,620,-94,-1
280,1193,-180,-1
250,956,-94,-1
37,1020,-45,-1
24,1073,-34,-1
40,880,-46,-1
58,1164,55,-1
74,840,-47,-1
68,1262,88,-1
85,989,131,-1
225,929,15,-1
256,701,117,-1
245,1090,187,-1
316,724,-110,-1
233,652,206,-1
289,994,-8,-1
156,958,-6,-1
184,895,38,-1
12,913,129,-1
-97,1066,99,-1
-75,971,71,-1
-138,1255,71,-1
-116,737,84,-1
-238,1226,283,-1
-81,871,-31,-1
0,986,105,-1
-5,952,-110,-1
81,1032,19,-1
41,805,6,-1
103,999,-66,-1
144,943,19,-1
32,747,-126,-1
53,871,-263,-1
-184,1387,129,-1
-191,693,-239,-1
1,1380,19,-1
-143,1184,-58,-1
88,527,98,-1
76,1619,190,-1
253,538,67,-1
373,636,102,-1
351,894,19,-1
313,753,110,-1
350,653,69,-1
420,1034,27,-1
274,779,-8,-1
128,997,227,-1
143,1032,98,-1
146,946,146,-1
138,964,-30,-1
112,980,122,-1
206,1226,-52,-1
220,889,-141,-1
279,1064,-340,-1
251,819,-354,-1
261,1104,-230,-1
218,810,-208,-1
176,777,-40,-1
214,720,-17,-1
192,1171,-169,-1
276,763,-227,-1
426,1227,-407,-1
187,818,-396,-1
412,1081,-438,-1
47,1043,-210,-1
-80,501,-238,-1
109,1669,-460,-1
287,449,-65,-1
261,711,-376,-1
221,833,137,-1
297,1132,-282,-1
212,444,-70,-1
293,833,-312,-1
287,664,-153,-1
308,1287,-135,-1
64,737,-158,-1
53,1173,-9,-1
-14,857,-258,-1
-143,1267,66,-1
-1,584,-326,-1
54,1591,6,-1
78,636,-236,-1
189,878,-31,-1
307,1157,-130,-1
239,397,-128,-1
234,971,-275,-1
196,983,-252,-1
198,976,-210,-1
43,877,-305,-1
102,1128,-316,-1
76,1053,-182,-1
47,962,-189,-1
39,1040,60,-1
103,1086,54,-1
279,862,193,-1
370,698,142,-1
359,901,111,-1
299,711,-31,-1
243,694,-52,-1
355,954,-101,-1
298,855,-21,-1
269,1254,7,-1
102,565,-106,-1
39,1291,41,-1
-115,1274,-21,-1
-135,783,-150,-1
25,1261,31,-1
26,1128,-12,-1
150,824,-68,-1
162,1074,38,-1
100,775,103,-1
180,823,148,-1
272,670,135,-1
291,927,-31,-1
196,845,-88,-1
194,1300,89,-1
112,748,-9,-1
84,1031,66,-1
3,1212,179,-1
149,802,27,-1
0,1150,288,-1
69,1004,218,-1
226,944,241,-1
265,911,287,-1
299,794,62,-1
216,710,194,-1
424,1120,-7,-1
181,565,28,-1
236,1132,126,-1
175,1211,176,-1
176,786,86,-1
-148,461,160,-1
-165,1347,521,-1
-54,1038,278,-1
-114,598,259,-1
201,1245,476,-1
245,687,34,-1
137,961,231,-1
216,921,85,-1
155,801,174,-1
222,779,118,-1
318,1025,124,-1
181,808,-255,-1
96,1380,7,-1
97,974,-44,-1
51,1075,-30,-1
86,1072,-76,-1
7,959,24,-1
84,1090,145,-1
128,1104,259,-1
284,494,-32,-1
330,1292,314,-1
416,578,-3,-1
111,610,102,-1
415,1057,337,-1
219,434,-23,-1
425,1405,372,-1
165,648,-211,-1
60,1108,103,-1
-53,1482,201,-1
-20,833,108,-1
-47,1060,311,-1
13,918,217,-1
74,899,342,-1
130,1038,285,-1
131,842,228,-1
150,847,223,-1
250,816,254,-1
238,771,159,-1
238,929,108,-1
179,997,56,-1
117,1000,36,-1
103,1066,105,-1
134,1063,148,-1
158,988,113,-1
125,1030,223,-1
146,1131,285,-1
156,653,257,-1
271,754,405,-1
476,1131,473,-1
99,473,101,-1
346,1037,456,-1
271,693,75,-1
298,932,214,-1
223,827,111,-1
129,1092,276,-1
57,970,201,-1
19,869,278,-1
-17,1108,349,-1
63,963,328,-1
151,1094,407,-1
182,951,139,-1
100,771,27,-1
195,1358,203,-1
26,621,40,-1
227,1159,524,-1
244,726,87,-1
71,678,131,-1
212,1359,274,-1
12,644,180,-1
76,1212,57,-1
86,1590,-69,-1
-72,1589,-139,-1
-43,1569,-277,-1
-86,1212,-320,-1
-19,983,-414,-1
-11,723,-370,-1
-40,504,-234,-1
-63,617,-152,-1
-127,609,-112,-1
-224,420,-43,-1
-282,615,-56,-1
-371,744,0,-1
-478,776,-7,-1
-461,1009,-92,-1
-551,952,-19,-1
-548,1019,-123,-1
-501,1172,-249,-1
-588,839,-105,-1
-621,854,-225,-1
-532,910,-154,-1
-546,624,94,-1
-458,647,-2,-1
-417,570,-25,-1
-444,522,22,-1
-509,623,51,-1
-570,817,40,-1
-630,874,65,-1
-574,1046,60,-1
-669,1060,120,-1
-655,995,217,-1
-580,898,148,-1
-490,997,118,-1
-398,861,185,-1
-376,769,155,-1
-372,714,116,-1
-378,571,138,-1
-424,527,134,-1
-480,600,63,-1
-596,686,98,-1
-688,807,34,-1
-704,907,-100,-1
-760,1052,-16,-1
-795,980,-50,-1
-717,1102,-175,-1
-682,929,-141,-1
-715,818,-162,-1
-663,747,-208,-1
-624,612,-26,-1
-553,567,-7,-1
-485,508,8,-1
-440,405,43,-1
-521,531,40,-1
-620,753,-45,-1
-579,976,-69,-1
-607,980,-8,-1
-614,999,16,-1
-575,873,-5,-1
-383,757,-162,-1
-181,696,-189,-1
-103,476,-126,-1
-92,311,-119,-1
-232,193,-130,-1
-364,370,-39,-1
-513,657,24,-1
-346,1205,180,-1
-330,1371,278,-1
-127,1580,337,-1
57,1394,324,-1
289,1166,-13,-1
390,1779,-680,-1
126,1176,58,-1
287,1105,87,-1
81,747,44,-1
36,1373,284,-1
134,628,160,-1
45,931,0,-1
4,1058,2,-1
70,1006,-64,-1
120,1019,-132,-1
-7,1140,-34,-1
41,866,-125,-1
-35,1167,-5,-1
75,931,-120,-1
166,986,38,-1
123,976,6,-1
283,890,54,-1
375,932,22,-1
335,796,37,-1
264,767,8,-1
220,904,60,-1
148,742,-26,-1
306,1072,92,-1
262,1021,-13,-1
88,875,93,-1
2,1108,62,-1
8,1029,36,-1
-35,1020,1,-1
-52,1088,6,-1
14,954,-28,-1
80,967,-42,-1
80,1144,-14,-1
127,794,-17,-1
229,849,-31,-1
177,846,-46,-1
191,957,-26,-1
203,1019,-12,-1
122,941,47,-1
94,1016,7,-1
94,917,21,-1
76,1119,-28,-1
48,872,-50,-1
68,1080,40,-1
158,1005,23,-1
265,940,15,-1
362,963,-94,-1
300,768,-39,-1
245,758,-45,-1
293,978,-30,-1
300,852,-151,-1
248,991,-38,-1
201,1089,-77,-1
126,846,-4,-1
81,1097,-8,-1
-13,1018,104,-1
-15,978,17,-1
-83,1060,120,-1
-21,1072,13,-1
45,1084,58,-1
-19,1108,14,-1
145,804,-14,-1
177,907,8,-1
196,921,-87,-1
159,956,68,-1
140,1112,-35,-1
-35,578,294,-1
-113,1054,122,-1
-187,1078,254,-1
-23,469,328,-1
-44,1607,191,-1
27,663,339,-1
150,771,248,-1
246,1147,212,-1
333,635,74,-1
273,1057,84,-1
232,651,104,-1
256,981,57,-1
294,944,20,-1
372,1328,6,-1
42,614,130,-1
177,1507,127,-1
-55,532,180,-1
-156,778,222,-1
-147,1470,268,-1
44,737,105,-1
104,994,-57,-1
2,1096,101,-1
100,857,-141,-1
77,1164,308,-1
81,840,17,-1
149,737,173,-1
142,1100,132,-1
61,901,124,-1
63,1095,211,-1
2,858,159,-1
-83,917,166,-1
-31,970,198,-1
36,972,135,-1
-2,1038,128,-1
209,889,-113,-1
227,1178,287,-1
55,717,-350,-1
240,640,65,-1
276,926,181,-1
111,913,-178,-1
339,1119,64,-1
316,857,-277,-1
177,961,-23,-1
59,931,-211,-1
16,1060,-213,-1
26,1223,-153,-1
-21,1030,-88,-1
-30,1014,-140,-1
-11,1017,-229,-1
-1,918,-118,-1
0,1085,-78,-1
85,891,-43,-1
101,622,-46,-1
218,1231,-253,-1
145,844,25,-1
31,929,-234,-1
-49,1152,-73,-1
-56,854,-117,-1
-55,1111,-11,-1
-15,930,-51,-1
-21,1048,172,-1
97,901,67,-1
193,845,34,-1
335,1071,-54,-1
318,853,16,-1
241,662,-33,-1
281,836,-7,-1
266,777,-51,-1
232,1031,-84,-1
233,972,-10,-1
94,1029,50,-1
67,1187,-11,-1
-16,896,170,-1
-258,1236,223,-1
-91,757,328,-1
-262,667,473,-1
57,1429,293,-1
218,540,175,-1
236,1293,70,-1
219,697,75,-1
209,756,1,-1
163,1136,113,-1
195,863,-51,-1
55,1300,23,-1
117,1040,24,-1
-92,879,166,-1
-143,876,203,-1
-43,1064,274,-1
2,729,200,-1
68,1161,351,-1
231,1084,308,-1
346,788,114,-1
337,803,56,-1
223,690,49,-1
223,793,102,-1
233,1213,93,-1
187,864,54,-1
177,1265,172,-1
-45,567,265,-1
-11,1140,330,-1
-149,1123,374,-1
-77,675,333,-1
-89,1116,395,-1
66,948,235,-1
53,763,216,-1
203,1060,17,-1
203,1072,117,-1
111,733,48,-1
140,955,117,-1
68,917,257,-1
127,852,149,-1
60,1163,256,-1
109,910,-88,-1
-27,1187,294,-1
-30,1005,159,-1
-31,1019,222,-1
-8,883,281,-1
144,1186,365,-1
171,531,151,-1
315,1081,144,-1
246,915,134,-1
153,500,109,-1
170,1407,324,-1
165,623,110,-1
137,1172,201,-1
23,1001,285,-1
-36,649,401,-1
-227,1231,373,-1
-274,783,663,-1
-168,946,500,-1
-137,773,438,-1
-126,970,522,-1
-39,944,359,-1
45,705,452,-1
27,861,275,-1
114,778,356,-1
110,821,333,-1
23,845,289,-1
19,945,196,-1
-141,1104,428,-1
-64,819,217,-1
-26,1165,483,-1
33,843,262,-1
208,940,264,-1
85,1034,560,-1
305,738,246,-1
312,832,407,-1
261,773,183,-1
153,760,199,-1
323,1040,286,-1
174,723,192,-1
203,1032,331,-1
75,908,270,-1
102,1120,437,-1
46,945,374,-1
-73,1019,374,-1
-101,1166,442,-1
-21,899,345,-1
-84,838,399,-1
112,912,229,-1
175,1000,350,-1
251,827,109,-1
226,851,223,-1
270,806,192,-1
280,822,158,-1
276,840,132,-1
243,1050,-23,-1
170,978,40,-1
90,1098,166,-1
146,968,163,-1
68,815,206,-1
42,1126,236,-1
96,1019,226,-1
82,983,377,-1
197,971,237,-1
308,918,126,-1
179,726,219,-1
291,932,163,-1
280,871,231,-1
214,682,20,-1
245,1198,171,-1
107,1006,89,-1
33,849,184,-1
81,1145,219,-1
30,996,397,-1
-78,768,296,-1
57,1139,426,-1
169,822,275,-1
142,917,228,-1
237,950,142,-1
171,821,141,-1
163,894,171,-1
203,817,25,-1
112,1048,278,-1
56,993,20,-1
31,1133,168,-1
50,915,23,-1
-6,1209,272,-1
124,797,192,-1
103,1033,318,-1
97,918,290,-1
205,906,359,-1
366,800,177,-1
389,858,87,-1
281,730,62,-1
236,686,67,-1
341,1015,271,-1
329,789,-152,-1
216,1247,65,-1
113,941,9,-1
129,1116,52,-1
-26,898,118,-1
-78,1355,169,-1
52,839,157,-1
-40,1048,134,-1
93,1139,-27,-1
120,888,165,-1
201,983,-7,-1
151,665,37,-1
230,1057,22,-1
159,762,-124,-1
158,1068,-37,-1
202,995,-59,-1
63,776,14,-1
183,1134,-11,-1
84,897,104,-1
98,1002,4,-1
125,959,132,-1
244,1102,-4,-1
356,937,-5,-1
276,795,-85,-1
321,929,-132,-1
325,875,-5,-1
255,674,-91,-1
297,860,-45,-1
307,1114,-156,-1
238,1019,-11,-1
9,673,11,-1
119,1415,-17,-1
-13,894,2,-1
36,1121,-110,-1
29,1113,-103,-1
86,827,-143,-1
192,1139,-110,-1
190,959,-141,-1
273,788,-111,-1
214,843,-86,-1
214,840,-35,-1
225,738,-32,-1
191,717,-128,-1
202,1142,-335,-1
203,1021,-185,-1
295,1126,-298,-1
80,875,-194,-1
47,1172,-29,-1
22,1044,-136,-1
153,944,71,-1
332,1041,-45,-1
377,871,7,-1
203,518,3,-1
374,1190,-104,-1
234,477,-58,-1
427,1070,-162,-1
269,752,-32,-1
148,1029,-79,-1
67,1104,5,-1
33,964,-29,-1
-58,998,64,-1
24,1161,-1,-1
-54,897,162,-1
118,1082,9,-1
109,909,92,-1
189,922,55,-1
174,748,-94,-1
231,997,-74,-1
194,793,-142,-1
182,1007,-176,-1
175,1032,-101,-1
115,943,-165,-1
115,1219,10,-1
118,860,-126,-1
110,974,80,-1
129,1054,18,-1
209,858,94,-1
340,1101,160,-1
364,641,-6,-1
310,858,48,-1
321,836,-25,-1
262,829,-123,-1
366,1060,-29,-1
301,843,-160,-1
226,928,-72,-1
67,1051,23,-1
-17,1007,39,-1
33,1147,20,-1
-23,982,41,-1
-13,1085,63,-1
111,970,43,-1
104,892,9,-1
161,978,13,-1
201,843,-13,-1
204,998,35,-1
244,850,-123,-1
239,880,-77,-1
105,983,-49,-1
169,1043,-53,-1
125,886,-58,-1
145,1080,-107,-1
85,937,-36,-1
107,1004,-38,-1
134,1041,22,-1
214,928,90,-1
390,914,-14,-1
339,813,-3,-1
365,782,-29,-1
385,875,4,-1
338,684,-91,-1
395,1158,-85,-1
241,875,-25,-1
132,1035,44,-1
6,998,128,-1
-37,1117,170,-1
-54,1119,173,-1
-20,890,136,-1
-14,1008,80,-1
134,1067,74,-1
169,856,12,-1
221,1029,-13,-1
246,900,41,-1
260,938,-26,-1
215,835,9,-1
189,1041,34,-1
98,932,45,-1
109,1000,12,-1
121,1059,63,-1
80,973,65,-1
157,1009,41,-1
124,995,159,-1
199,909,128,-1
310,932,87,-1
381,863,5,-1
364,871,-3,-1
289,762,17,-1
318,827,0,-1
338,981,-40,-1
279,985,-96,-1
143,1057,77,-1
84,1037,70,-1
4,1057,147,-1
-10,1084,142,-1
-25,926,213,-1
61,1009,195,-1
62,899,148,-1
144,990,71,-1
221,1032,83,-1
167,794,25,-1
179,880,137,-1
212,891,30,-1
214,928,-48,-1
206,1053,-30,-1
110,989,-12,-1
89,1058,110,-1
135,952,17,-1
137,1122,181,-1
167,845,68,-1
179,945,190,-1
209,918,250,-1
234,827,179,-1
388,941,169,-1
349,884,86,-1
306,758,120,-1
298,773,-11,-1
368,1005,59,-1
297,943,-32,-1
169,1063,170,-1
135,953,173,-1
66,1017,242,-1
77,888,309,-1
69,1082,347,-1
46,790,282,-1
38,929,267,-1
93,1022,247,-1
214,909,49,-1
158,1026,168,-1
162,839,70,-1
188,862,127,-1
239,913,48,-1
233,946,26,-1
82,1097,100,-1
26,939,102,-1
-11,1185,211,-1
64,943,99,-1
12,1041,212,-1
90,915,115,-1
213,870,238,-1
270,1090,398,-1
318,675,104,-1
333,788,305,-1
347,760,234,-1
352,741,157,-1
368,820,112,-1
395,1052,19,-1
207,920,83,-1
81,1120,203,-1
-12,937,215,-1
-54,1178,216,-1
-46,1018,207,-1
-101,928,251,-1
108,1210,265,-1
107,793,124,-1
127,1037,119,-1
120,873,165,-1
121,738,99,-1
223,1069,207,-1
225,729,-38,-1
33,1046,187,-1
141,1128,57,-1
40,681,-46,-1
17,1499,-103,-1
-12,1094,-69,-1
-8,923,-147,-1
-197,1000,93,-1
126,686,-20,-1
95,974,211,-1
460,1339,-59,-1
431,479,38,-1
310,572,8,-1
326,811,46,-1
409,1074,-104,-1
397,695,-151,-1
372,832,-193,-1
45,1337,-97,-1
125,823,-212,-1
-129,1200,23,-1
-113,1172,-170,-1
-43,1097,-195,-1
-53,904,-24,-1
-257,1043,81,-1
31,1003,-135,-1
68,1055,108,-1
56,882,-118,-1
137,818,-109,-1
236,1035,-134,-1
152,596,-235,-1
107,1151,71,-1
-2,1289,-18,-1
126,451,-77,-1
118,1385,-178,-1
-85,824,225,-1
-7,830,58,-1
66,1267,94,-1
178,636,-87,-1
438,1297,91,-1
200,616,-87,-1
280,605,-52,-1
266,1265,321,-1
226,542,-332,-1
348,587,-72,-1
577,1631,38,-1
86,565,-164,-1
128,1100,-56,-1
-53,1278,104,-1
-106,592,-60,-1
-51,1353,31,-1
190,1425,-5,-1
-268,297,98,-1
54,1410,23,-1
-73,1260,195,-1
197,684,-99,-1
164,722,-6,-1
276,1314,-206,-1
219,1019,17,-1
31,284,-77,-1
107,1415,93,-1
65,679,-75,-1
67,580,196,-1
122,1666,-3,-1
131,474,99,-1
-26,1264,164,-1
87,810,176,-1
236,1010,190,-1
400,947,-154,-1
242,834,81,-1
170,720,19,-1
214,980,136,-1
169,610,-25,-1
356,1432,-335,-1
194,955,154,-1
101,1104,-42,-1
-54,766,123,-1
-160,1525,237,-1
-58,735,-28,-1
61,818,109,-1
-33,1253,94,-1
77,904,-72,-1
216,1053,116,-1
80,905,84,-1
118,682,-8,-1
195,969,188,-1
220,841,-214,-1
167,1107,171,-1
63,958,-102,-1
59,1109,84,-1
19,860,87,-1
45,1256,70,-1
88,802,137,-1
72,874,128,-1
119,1099,291,-1
216,837,198,-1
349,846,170,-1
335,903,83,-1
250,820,142,-1
225,766,99,-1
274,966,189,-1
327,1038,-114,-1
168,979,93,-1
72,1019,180,-1
0,1044,238,-1
-67,989,207,-1
-118,1083,478,-1
-38,914,236,-1
2,863,302,-1
98,954,323,-1
159,902,168,-1
123,934,235,-1
192,830,113,-1
263,743,179,-1
217,925,69,-1
162,1045,131,-1
135,933,-86,-1
74,1147,180,-1
126,994,6,-1
11,1024,189,-1
21,1138,255,-1
90,857,85,-1
137,978,379,-1
297,1204,243,-1
400,1177,184,-1
461,716,192,-1
285,549,83,-1
92,276,198,-1
134,524,281,-1
255,1189,546,-1
332,1037,340,-1
160,771,101,-1
-10,1305,165,-1
-126,978,155,-1
-76,1162,263,-1
-78,911,222,-1
-63,1172,228,-1
62,689,94,-1
52,1243,220,-1
39,1028,69,-1
93,787,163,-1
94,981,196,-1
225,678,120,-1
160,1062,293,-1
264,821,-61,-1
34,982,221,-1
116,899,5,-1
121,1102,176,-1
105,935,22,-1
102,1137,84,-1
49,976,119,-1
144,936,177,-1
205,1128,246,-1
308,739,-10,-1
259,987,199,-1
353,720,30,-1
277,687,47,-1
410,825,6,-1
278,971,73,-1
317,873,-131,-1
131,1113,182,-1
140,1061,190,-1
26,867,-64,-1
130,1229,116,-1
123,982,-15,-1
52,888,-66,-1
221,1087,-83,-1
101,878,-258,-1
146,1065,-292,-1
99,1093,-54,-1
94,755,-110,-1
1,762,253,-1
358,1351,157,-1
-128,767,55,-1
98,1231,136,-1
-77,911,-42,-1
-193,789,24,-1
161,1473,128,-1
29,645,-81,-1
242,1067,-81,-1
221,856,72,-1
394,1048,43,-1
174,648,111,-1
356,888,280,-1
146,676,142,-1
292,970,202,-1
194,987,111,-1
307,1078,98,-1
6,679,103,-1
-149,738,-44,-1
65,1604,-146,-1
-267,846,-165,-1
113,1125,-198,-1
28,1026,157,-1
282,866,-257,-1
211,956,-12,-1
149,1016,-135,-1
51,660,-242,-1
-27,1062,-214,-1
44,1002,-233,-1
28,765,-418,-1
202,1298,-362,-1
20,709,-203,-1
30,1084,-407,-1
21,863,-367,-1
74,1137,-395,-1
38,897,-329,-1
169,805,-244,-1
223,1179,-208,-1
343,484,-313,-1
472,559,-88,-1
316,1188,-84,-1
357,1292,-284,-1
287,504,-271,-1
194,1193,-224,-1
110,878,-326,-1
-45,903,-64,-1
-107,1322,-339,-1
-56,727,-115,-1
-76,1225,-300,-1
-41,1028,-402,-1
132,879,-269,-1
114,1007,-303,-1
113,941,-213,-1
162,642,-211,-1
269,951,-349,-1
326,676,-62,-1
117,711,-358,-1
295,1330,-247,-1
22,491,-204,-1
141,1234,-437,-1
-46,1074,-173,-1
113,803,-438,-1
74,1417,-223,-1
90,613,-282,-1
175,1079,-174,-1
191,973,-132,-1
274,811,-108,-1
273,790,-57,-1
301,847,-90,-1
271,1030,-36,-1
187,701,-147,-1
138,1091,-42,-1
39,933,-28,-1
27,882,-8,-1
-25,1275,-33,-1
23,846,-98,-1
69,909,-8,-1
-50,1098,-163,-1
111,862,-113,-1
98,1024,-182,-1
93,934,-115,-1
128,1049,-94,-1
147,802,-144,-1
181,648,-63,-1
85,1388,-160,-1
122,638,-181,-1
12,995,-160,-1
-108,1259,-186,-1
-12,862,-155,-1
-8,1209,-196,-1
50,715,-120,-1
127,927,-18,-1
235,1450,-220,-1
343,312,-60,-1
202,994,-77,-1
310,979,-66,-1
167,476,22,-1
348,1325,-182,-1
359,686,-216,-1
47,860,-163,-1
38,1282,-91,-1
-9,778,-89,-1
-44,1297,-98,-1
-79,761,-20,-1
-11,1529,-4,-1
26,666,-155,-1
-3,574,108,-1
46,1473,-266,-1
-47,684,101,-1
206,1059,-50,-1
312,596,-156,-1
122,1188,-55,-1
226,875,-203,-1
141,511,-134,-1
-30,1450,-18,-1
130,528,-250,-1
53,1469,159,-1
130,597,-376,-1
152,841,-25,-1
47,1200,-43,-1
278,1035,-82,-1
325,970,-144,-1
470,1161,-197,-1
379,821,-122,-1
92,456,-89,-1
96,553,-23,-1
-26,642,12,-1
-140,1475,164,-1
44,825,-247,-1
-241,1637,-255,-1
-24,566,-157,-1
-27,1364,-62,-1
-82,981,-240,-1
-13,953,22,-1
69,1073,-215,-1
95,910,98,-1
141,738,-7,-1
189,807,-22,-1
155,716,-37,-1
133,927,-214,-1
113,977,-337,-1
76,839,-301,-1
0,1072,-329,-1
71,995,-286,-1
88,980,-264,-1
120,1229,-320,-1
114,703,-121,-1
300,1119,-114,-1
189,961,-152,-1
395,764,-248,-1
231,965,-57,-1
461,775,-248,-1
174,607,-6,-1
408,1162,-371,-1
202,596,-144,-1
64,1040,-320,-1
48,1096,-193,-1
-14,945,-227,-1
12,1339,-280,-1
-71,891,-204,-1
59,782,-230,-1
15,1209,-171,-1
204,982,-246,-1
138,683,-88,-1
221,1083,-309,-1
134,659,-72,-1
182,798,-362,-1
229,1170,-78,-1
215,471,-326,-1
110,1468,-176,-1
83,755,-253,-1
180,796,-194,-1
128,1288,-217,-1
253,724,-95,-1
157,1078,-135,-1
224,901,-147,-1
228,888,-32,-1
313,1094,-239,-1
343,741,-105,-1
327,737,-105,-1
259,865,-182,-1
307,841,-142,-1
232,1048,-241,-1
43,887,-132,-1
-1,985,-113,-1
-23,1232,-231,-1
81,876,-143,-1
2,1169,-230,-1
27,1122,-152,-1
176,753,-164,-1
144,904,-252,-1
194,1045,-194,-1
255,709,-141,-1
135,864,-174,-1
308,970,-149,-1
214,803,-164,-1
112,944,-203,-1
163,1040,-185,-1
70,906,-182,-1
132,1023,-290,-1
139,920,-181,-1
194,1190,-266,-1
114,729,-162,-1
146,1175,45,-1
336,934,-163,-1
157,657,-35,-1
365,1144,-122,-1
219,736,95,-1
209,952,-42,-1
294,813,-64,-1
161,966,-9,-1
113,1126,-7,-1
118,802,80,-1
56,1230,46,-1
174,881,105,-1
119,986,122,-1
10,960,-19,-1
119,986,-81,-1
287,997,-190,-1
249,903,-165,-1
193,932,-51,-1
190,1014,55,-1
267,771,49,-1
170,888,118,-1
219,870,47,-1
68,1195,-41,-1
99,953,-54,-1
93,1141,49,-1
77,1008,0,-1
-12,862,59,-1
-70,1110,-275,-1
92,1215,-44,-1
139,967,113,-1
240,880,114,-1
371,761,176,-1
356,969,89,-1
642,895,-57,-1
447,716,-79,-1
35,592,-29,-1
41,1310,194,-1
13,767,415,-1
18,1074,310,-1
28,949,359,-1
-14,860,290,-1
-19,1051,395,-1
28,899,319,-1
3,853,184,-1
17,1048,278,-1
26,961,237,-1
29,903,282,-1
19,959,220,-1
16,1031,198,-1
62,992,211,-1
52,903,104,-1
31,828,133,-1
22,1081,260,-1
44,933,205,-1
42,929,266,-1
89,1032,214,-1
109,965,204,-1
145,951,144,-1
166,873,180,-1
197,1009,245,-1
247,965,109,-1
292,862,105,-1
287,817,15,-1
356,974,52,-1
420,701,-176,-1
373,902,62,-1
294,891,64,-1
228,906,221,-1
196,1096,170,-1
224,849,33,-1
176,1054,132,-1
228,831,184,-1
332,979,185,-1
354,964,-9,-1
548,944,116,-1
466,961,-88,-1
382,953,-35,-1
240,720,-16,-1
249,648,-5,-1
409,723,-87,-1
531,681,-225,-1
554,862,-273,-1
643,765,-339,-1
612,884,-383,-1
609,876,-99,-1
617,618,-93,-1
803,624,-115,-1
626,576,-353,-1
525,771,-216,-1
296,856,-266,-1
341,1032,-129,-1
456,1074,-259,-1
682,911,-137,-1
686,743,-258,-1
742,649,-148,-1
538,816,-281,-1
603,771,-480,-1
449,895,-367,-1
366,701,-528,-1
357,823,-459,-1
322,805,-424,-1
299,819,-458,-1
297,913,-351,-1
252,805,-451,-1
237,938,-286,-1
209,952,-294,-1
210,915,-238,-1
146,962,-318,-1
153,786,-256,-1
-34,932,-127,-1
76,989,-204,-1
-15,895,-240,-1
168,784,-210,-1
49,813,-273,-1
254,1078,-239,-1
509,1315,-175,-1
362,746,-262,-1
377,1337,28,-1
543,686,-773,-1
192,677,169,-1
581,877,-150,-1
474,656,-19,-1
286,596,-112,-1
544,1013,-285,-1
658,721,-226,-1
134,837,-97,-1
-56,975,-311,-1
442,518,-181,-1
-109,843,-105,-1
36,1244,-230,-1
359,972,-274,-1
250,775,-153,-1
346,687,-138,-1
-7,1072,41,-1
-162,1138,-1,-1
76,847,-335,-1
59,884,-289,-1
-68,1024,-254,-1
266,787,-262,-1
-131,948,-108,-1
198,896,-330,-1
139,922,-156,-1
126,944,-246,-1
121,976,-192,-1
202,942,-188,-1
147,854,-118,-1
189,1042,-161,-1
206,786,-99,-1
83,1085,-98,-1
289,770,-181,-1
186,1075,-189,-1
250,868,-231,-1
171,867,-155,-1
285,1020,-282,-1
227,827,-134,-1
224,931,-180,-1
293,1004,-257,-1
128,823,-91,-1
114,936,-184,-1
279,1056,-267,-1
158,861,-220,-1
279,1081,-213,-1
82,769,-222,-1
437,860,-313,-1
346,1039,-416,-1
276,857,-191,-1
312,909,-303,-1
171,1170,-236,-1
241,834,-79,-1
292,840,-47,-1
218,1069,3,-1
321,936,-150,-1
305,1029,-41,-1
124,898,-60,-1
273,931,-64,-1
473,926,-83,-1
508,907,-146,-1
422,828,-18,-1
134,685,135,-1
253,843,145,-1
713,978,18,-1
605,869,-39,-1
559,648,-225,-1
745,894,-504,-1
9,985,200,-1
412,1057,119,-1
223,632,257,-1
388,940,298,-1
227,677,365,-1
445,955,269,-1
216,857,284,-1
397,984,204,-1
109,814,267,-1
382,1048,162,-1
166,842,196,-1
289,1024,110,-1
144,909,203,-1
330,1122,-9,-1
705,1075,2,-1
578,1028,-139,-1
247,817,-75,-1
7,449,129,-1
-10,797,135,-1
-68,981,250,-1
81,739,302,-1
259,1372,350,-1
465,999,113,-1
226,864,-25,-1
337,780,68,-1
452,1128,118,-1
308,979,64,-1
-180,760,108,-1
195,1190,201,-1
66,974,392,-1
207,700,165,-1
275,1420,333,-1
158,1094,197,-1
256,628,-11,-1
191,864,113,-1
279,779,95,-1
581,1228,126,-1
296,756,66,-1
255,701,33,-1
440,1060,280,-1
196,560,125,-1
90,883,64,-1
234,1077,375,-1
208,1051,348,-1
471,1325,193,-1
237,1013,-6,-1
83,628,-185,-1
-128,1064,252,-1
109,946,258,-1
255,968,323,-1
145,852,209,-1
331,935,191,-1
439,847,55,-1
237,987,309,-1
340,538,0,-1
358,1052,242,-1
223,675,352,-1
236,1011,163,-1
258,1137,284,-1
272,780,-60,-1
-54,954,171,-1
175,1226,137,-1
117,1030,223,-1
261,997,119,-1
44,942,205,-1
102,1056,-8,-1
2,871,199,-1
175,1012,218,-1
254,813,293,-1
381,1014,255,-1
211,872,211,-1
257,420,223,-1
281,1337,338,-1
399,340,78,-1
151,1296,205,-1
143,1035,189,-1
209,757,154,-1
16,1018,298,-1
191,1115,261,-1
142,745,325,-1
169,1291,256,-1
235,522,123,-1
170,1326,213,-1
337,756,-60,-1
156,894,29,-1
200,874,108,-1
316,1105,173,-1
246,734,184,-1
206,1036,164,-1
171,904,94,-1
185,1040,141,-1
172,1118,190,-1
138,852,262,-1
246,984,290,-1
259,731,214,-1
236,1214,351,-1
426,620,247,-1
528,899,37,-1
465,1034,207,-1
316,354,109,-1
329,1027,356,-1
531,819,329,-1
286,677,181,-1
405,933,265,-1
318,762,171,-1
335,902,176,-1
456,1092,189,-1
322,813,43,-1
248,1136,59,-1
206,859,183,-1
193,1081,260,-1
194,891,163,-1
188,1063,65,-1
317,1178,210,-1
131,681,265,-1
359,907,90,-1
394,931,154,-1
310,728,144,-1
342,846,110,-1
380,866,135,-1
249,852,93,-1
154,1164,164,-1
260,828,32,-1
282,726,267,-1
222,1184,41,-1
271,914,168,-1
281,944,58,-1
126,934,110,-1
275,1140,281,-1
277,840,105,-1
371,848,52,-1
275,834,103,-1
298,889,134,-1
332,779,172,-1
353,1039,136,-1
303,759,88,-1
303,1172,30,-1
183,881,150,-1
286,937,84,-1
105,911,124,-1
214,1015,254,-1
252,1019,193,-1
264,790,103,-1
378,1033,79,-1
254,899,167,-1
280,814,44,-1
330,904,69,-1
393,850,39,-1
318,978,8,-1
289,898,44,-1
268,916,26,-1
223,1008,95,-1
211,1008,57,-1
217,1134,3,-1
99,902,72,-1
131,1112,143,-1
239,859,114,-1
219,1092,121,-1
183,801,117,-1
247,1021,327,-1
420,799,130,-1
379,717,87,-1
458,941,120,-1
349,711,181,-1
425,986,246,-1
274,807,153,-1
242,922,80,-1
246,1011,178,-1
122,1010,277,-1
195,846,297,-1
175,1007,319,-1
273,860,210,-1
275,811,182,-1
266,980,203,-1
287,961,62,-1
296,1158,76,-1
249,702,1,-1
324,1023,-21,-1
302,1033,55,-1
266,775,52,-1
318,887,52,-1
311,872,-11,-1
288,1026,31,-1
265,926,27,-1
239,849,10,-1
261,1143,45,-1
245,906,80,-1
308,1004,30,-1
229,988,29,-1
256,855,18,-1
175,963,120,-1
276,1021,276,-1
343,856,204,-1
362,876,194,-1
352,720,14,-1
375,910,2,-1
305,831,21,-1
259,866,70,-1
160,706,62,-1
131,930,189,-1
197,843,283,-1
658,1601,609,-1
327,641,-162,-1
307,1034,-97,-1
271,1017,-56,-1
240,948,183,-1
290,1010,121,-1
269,873,83,-1
229,890,188,-1
164,637,107,-1
390,1096,281,-1
501,850,74,-1
360,934,-202,-1
223,863,-10,-1
169,989,47,-1
191,912,136,-1
276,967,89,-1
281,987,24,-1
220,920,52,-1
230,960,131,-1
238,1022,199,-1
220,795,160,-1
321,1020,61,-1
219,1028,218,-1
245,800,259,-1
329,819,190,-1
384,936,59,-1
354,814,-25,-1
401,852,0,-1
258,844,73,-1
331,935,179,-1
192,946,168,-1
220,1088,182,-1
125,1021,273,-1
219,861,185,-1
284,1110,245,-1
197,820,127,-1
293,995,38,-1
258,934,77,-1
293,889,85,-1
329,1097,146,-1
275,733,138,-1
251,843,197,-1
293,820,25,-1
236,1018,-24,-1
356,926,-59,-1
324,837,-51,-1
266,1036,95,-1
248,957,141,-1
236,1090,77,-1
103,928,118,-1
155,1081,133,-1
173,916,204,-1
238,955,223,-1
213,733,177,-1
309,1204,233,-1
275,696,91,-1
265,1130,167,-1
260,809,125,-1
271,818,135,-1
339,934,160,-1
418,845,145,-1
384,859,46,-1
368,887,128,-1
399,927,159,-1
254,888,180,-1
325,875,171,-1
195,937,213,-1
281,938,175,-1
304,906,223,-1
332,885,148,-1
287,966,186,-1
305,827,61,-1
322,1046,192,-1
231,890,121,-1
269,1070,276,-1
177,831,213,-1
188,786,244,-1
355,1009,238,-1
310,859,40,-1
427,1014,-33,-1
298,907,54,-1
400,915,61,-1
309,891,204,-1
352,784,72,-1
283,944,184,-1
307,916,98,-1
266,911,126,-1
303,956,67,-1
274,952,93,-1
274,980,118,-1
249,860,146,-1
306,990,74,-1
270,915,187,-1
332,976,235,-1
287,793,236,-1
387,911,195,-1
351,806,-2,-1
455,944,-53,-1
373,884,-12,-1
390,900,56,-1
348,881,165,-1
407,846,227,-1
327,758,179,-1
433,948,78,-1
323,1029,-3,-1
359,812,-62,-1
371,1062,184,-1
292,776,186,-1
355,1027,209,-1
278,840,235,-1
360,948,146,-1
256,909,231,-1
308,940,195,-1
294,917,189,-1
329,904,137,-1
293,880,129,-1
300,894,73,-1
294,983,92,-1
313,874,74,-1
285,844,50,-1
347,870,-10,-1
336,964,-11,-1
329,967,-26,-1
325,987,-16,-1
268,955,48,-1
201,802,126,-1
244,1037,151,-1
332,868,181,-1
226,875,175,-1
288,991,147,-1
235,855,148,-1
239,1039,123,-1
262,883,158,-1
228,998,143,-1
217,986,192,-1
205,945,203,-1
230,1031,197,-1
242,853,155,-1
260,992,215,-1
258,778,261,-1
328,892,254,-1
429,762,145,-1
423,962,84,-1
416,787,69,-1
382,937,115,-1
310,891,208,-1
312,895,215,-1
282,858,203,-1
287,1031,243,-1
252,820,149,-1
307,992,180,-1
219,977,204,-1
281,899,171,-1
306,938,243,-1
244,878,155,-1
239,982,198,-1
234,908,263,-1
252,883,259,-1
214,986,300,-1
247,833,209,-1
245,995,261,-1
324,802,155,-1
319,903,112,-1
339,857,86,-1
394,886,96,-1
324,827,182,-1
346,896,242,-1
313,810,219,-1
300,912,171,-1
206,1008,201,-1
200,912,183,-1
216,985,148,-1
204,981,142,-1
186,1061,178,-1
170,877,124,-1
186,1070,89,-1
160,965,128,-1
184,1050,141,-1
252,949,227,-1
387,766,176,-1
376,874,245,-1
424,793,105,-1
382,852,37,-1
435,786,78,-1
408,861,124,-1
343,868,64,-1
336,1012,80,-1
314,932,20,-1
287,985,37,-1
249,1006,57,-1
231,961,161,-1
248,963,175,-1
280,928,121,-1
266,926,197,-1
264,921,187,-1
220,1072,224,-1
378,742,75,-1
326,966,-6,-1
342,898,124,-1
317,902,32,-1
353,845,172,-1
199,1163,194,-1
215,621,253,-1
403,999,129,-1
418,873,61,-1
379,869,-45,-1
342,963,47,-1
318,842,99,-1
326,828,212,-1
309,944,208,-1
286,869,179,-1
291,905,200,-1
335,892,207,-1
458,863,94,-1
391,895,72,-1
363,947,74,-1
460,775,95,-1
441,750,7,-1
440,795,57,-1
467,834,76,-1
369,874,92,-1
446,961,-10,-1
330,959,157,-1
154,906,-4,-1
139,981,215,-1
149,1047,219,-1
11,1019,102,-1
80,1198,219,-1
132,1085,36,-1
216,905,21,-1
285,1078,-83,-1
281,826,-162,-1
199,758,-58,-1
440,1066,-276,-1
434,814,-60,-1
152,894,8,-1
230,1123,-129,-1
142,591,-39,-1
186,1157,-334,-1
167,1129,-84,-1
188,906,-72,-1
138,977,-180,-1
741,1306,-900,-1
317,517,31,-1
163,556,-467,-1
326,1231,-346,-1
198,408,31,-1
219,918,-368,-1
489,819,-211,-1
318,724,-66,-1
241,1316,-227,-1
139,519,-35,-1
132,1490,10,-1
-79,623,-278,-1
67,1002,131,-1
118,1511,-328,-1
47,176,-305,-1
301,1683,460,-1
387,197,-255,-1
-75,461,-100,-1
475,731,209,-1
551,758,-387,-1
87,1148,-40,-1
520,1007,-335,-1
236,903,-76,-1
419,921,-214,-1
409,891,-148,-1
440,899,-180,-1
590,958,-224,-1
549,947,-185,-1
652,805,-44,-1
107,714,-3,-1
310,695,-202,-1
434,864,-218,-1
516,809,-87,-1
498,903,-157,-1
380,909,-173,-1
85,1006,16,-1
86,1119,-177,-1
-38,1224,-152,-1
124,1060,-410,-1
286,1183,-249,-1
222,635,-334,-1
330,772,-170,-1
408,658,-71,-1
424,501,-233,-1
409,817,-278,-1
592,650,-319,-1
423,891,-112,-1
373,838,-310,-1
332,940,-212,-1
412,1047,-326,-1
429,916,-67,-1
540,917,-131,-1
637,674,-282,-1
453,884,-205,-1
417,664,-327,-1
288,806,-220,-1
389,831,-358,-1
468,778,-183,-1
605,986,-263,-1
344,816,-215,-1
222,1103,-258,-1
166,1072,-168,-1
72,868,-114,-1
379,1182,-574,-1
445,740,-363,-1
385,769,-349,-1
292,789,-284,-1
415,615,-314,-1
372,612,-254,-1
508,728,-258,-1
546,705,-270,-1
510,820,-316,-1
377,736,-173,-1
388,877,-443,-1
383,996,-348,-1
301,808,-316,-1
360,1082,-450,-1
478,874,-215,-1
424,813,-248,-1
534,707,-383,-1
320,633,-130,-1
407,653,-361,-1
780,900,-310,-1
536,662,-282,-1
360,935,-323,-1
182,901,-160,-1
30,916,-146,-1
74,1376,-282,-1
19,750,-179,-1
192,1204,-496,-1
87,1191,-247,-1
209,790,-295,-1
151,831,-188,-1
372,628,-53,-1
212,617,-40,-1
447,810,-168,-1
489,695,-126,-1
413,841,-388,-1
421,1014,-207,-1
353,769,-298,-1
303,1084,-196,-1
351,693,-158,-1
403,990,-162,-1
461,843,-134,-1
660,669,-406,-1
445,632,-254,-1
446,690,-285,-1
398,811,-241,-1
600,835,-242,-1
668,866,-281,-1
444,941,-122,-1
255,1038,-302,-1
183,1024,-300,-1
32,979,-283,-1
158,1063,-380,-1
180,852,-538,-1
246,821,-512,-1
296,912,-452,-1
325,615,-337,-1
375,657,-381,-1
368,490,-300,-1
383,601,-109,-1
538,729,-822,-1
566,746,-124,-1
431,852,-591,-1
419,897,-590,-1
358,935,-240,-1
289,885,-730,-1
318,837,-293,-1
428,947,-296,-1
524,663,-289,-1
596,649,-400,-1
471,559,-297,-1
448,570,-213,-1
472,702,-363,-1
475,758,-314,-1
600,825,-316,-1
454,898,-282,-1
347,919,-211,-1
292,892,-385,-1
145,1349,-203,-1
189,795,-381,-1
222,992,-353,-1
187,860,-700,-1
316,796,-237,-1
310,911,-418,-1
361,527,-250,-1
429,696,-182,-1
429,520,-312,-1
536,786,-277,-1
578,791,-365,-1
444,797,-284,-1
390,820,-369,-1
441,1005,-396,-1
361,792,-423,-1
374,923,-422,-1
386,871,-387,-1
462,853,-294,-1
555,811,-314,-1
557,583,-393,-1
448,596,-225,-1
454,599,-356,-1
443,813,-322,-1
485,795,-341,-1
454,948,-302,-1
349,740,-267,-1
311,1156,-289,-1
189,872,-291,-1
151,1068,-236,-1
200,988,-311,-1
194,769,-317,-1
270,995,-449,-1
282,835,-309,-1
316,793,-260,-1
294,722,-262,-1
330,701,-232,-1
358,730,-267,-1
359,812,-323,-1
398,882,-324,-1
316,781,-365,-1
302,984,-390,-1
309,998,-413,-1
306,837,-383,-1
324,868,-381,-1
361,1062,-242,-1
434,744,-243,-1
486,771,-247,-1
495,818,-293,-1
409,619,-183,-1
353,784,-445,-1
331,823,-289,-1
433,898,-300,-1
348,818,-265,-1
246,929,-194,-1
154,894,-236,-1
179,1296,-333,-1
160,853,-173,-1
142,888,-264,-1
134,1066,-342,-1
237,729,-320,-1
282,970,-421,-1
230,864,-240,-1
277,692,-307,-1
280,875,-331,-1
287,770,-175,-1
262,804,-212,-1
228,1013,-295,-1
178,880,-221,-1
165,921,-255,-1
264,1180,-357,-1
250,760,-217,-1
296,939,-252,-1
254,879,-210,-1
310,852,-72,-1
357,896,-188,-1
477,791,-154,-1
554,771,-185,-1
603,609,-163,-1
443,645,-247,-1
457,828,-185,-1
490,819,-224,-1
484,927,-280,-1
380,812,-208,-1
285,1057,-244,-1
244,950,-294,-1
237,981,-240,-1
254,996,-341,-1
224,853,-209,-1
224,1045,-372,-1
263,836,-287,-1
367,971,-370,-1
375,837,-319,-1
384,648,-209,-1
428,803,-352,-1
421,681,-346,-1
384,836,-379,-1
422,894,-352,-1
326,807,-269,-1
230,993,-389,-1
229,938,-288,-1
245,941,-263,-1
241,953,-324,-1
279,919,-189,-1
263,846,-175,-1
349,901,-162,-1
516,879,-187,-1
494,596,-211,-1
432,734,-260,-1
417,810,-218,-1
370,736,-67,-1
282,856,-179,-1
396,1280,-427,-1
448,753,-46,-1
100,718,-147,-1
151,1414,-187,-1
118,778,-69,-1
191,1046,-192,-1
207,1033,-143,-1
199,743,-9,-1
128,1076,-12,-1
197,857,10,-1
253,928,29,-1
247,921,-93,-1
292,775,-88,-1
338,887,-151,-1
338,798,-214,-1
325,881,-186,-1
260,949,-204,-1
256,937,-176,-1
238,1006,-215,-1
247,925,-206,-1
216,1078,-154,-1
241,928,-155,-1
285,1120,-72,-1
308,670,-112,-1
427,954,61,-1
452,989,8,-1
532,512,-222,-1
513,1025,-72,-1
428,552,-199,-1
292,859,-3,-1
366,973,-206,-1
248,766,-21,-1
223,1064,-193,-1
260,1032,-87,-1
237,887,-85,-1
210,1085,-285,-1
236,1041,-92,-1
177,991,-151,-1
217,1227,-273,-1
132,569,6,-1
290,1219,-322,-1
256,776,-65,-1
357,933,-221,-1
306,774,-172,-1
308,731,-143,-1
311,889,-207,-1
280,830,-139,-1
269,908,-208,-1
282,984,-205,-1
212,890,-210,-1
278,1095,-225,-1
261,943,-194,-1
237,914,-238,-1
275,946,-198,-1
297,903,-130,-1
316,974,24,-1
439,829,-178,-1
422,709,-123,-1
500,869,-299,-1
335,604,-145,-1
454,1168,-174,-1
313,314,-344,-1
381,1322,-37,-1
375,350,-349,-1
133,956,34,-1
218,1153,-420,-1
124,541,34,-1
281,1536,-164,-1
75,518,-113,-1
206,1098,107,-1
299,920,-177,-1
247,860,-57,-1
312,925,-24,-1
318,737,-72,-1
238,694,-77,-1
363,882,-4,-1
278,884,-237,-1
283,1028,-223,-1
367,1011,-80,-1
252,901,-192,-1
286,1042,-149,-1
298,958,-120,-1
301,975,-133,-1
348,973,-158,-1
317,930,-67,-1
449,874,14,-1
539,879,-97,-1
406,619,-61,-1
355,686,22,-1
302,730,109,-1
305,742,109,-1
354,914,65,-1
376,1016,101,-1
585,1020,27,-1
85,647,-233,-1
370,1567,-458,-1
100,821,-241,-1
135,1108,-271,-1
160,1013,-318,-1
186,877,-241,-1
307,1068,-193,-1
261,842,-264,-1
198,848,-245,-1
206,784,-247,-1
198,859,-255,-1
231,904,-259,-1
163,829,-297,-1
257,1036,-329,-1
223,854,-272,-1
284,934,-318,-1
292,1051,-262,-1
244,777,-148,-1
265,1149,-86,-1
345,664,29,-1
367,959,15,-1
449,827,-303,-1
306,447,-17,-1
402,1451,-182,-1
219,471,34,-1
313,1149,-69,-1
271,819,-80,-1
88,882,42,-1
219,1280,-30,-1
138,771,155,-1
141,1015,-54,-1
226,964,-29,-1
241,982,-98,-1
209,960,-134,-1
295,1037,-329,-1
274,909,-206,-1
214,986,-155,-1
233,758,-84,-1
272,825,-112,-1
299,858,-64,-1
253,955,-62,-1
328,905,-262,-1
235,960,-106,-1
258,1147,-224,-1
309,903,-150,-1
243,828,-167,-1
265,1134,-182,-1
210,787,-45,-1
315,1113,-15,-1
345,756,-34,-1
434,746,-69,-1
432,924,-13,-1
450,571,-93,-1
337,935,23,-1
445,888,-171,-1
335,887,-42,-1
240,989,-181,-1
98,1107,-75,-1
189,1092,-50,-1
99,1081,17,-1
130,966,-91,-1
188,1007,68,-1
151,1080,-81,-1
122,601,-42,-1
313,1396,2,-1
237,681,2,-1
238,652,34,-1
427,1024,-35,-1
331,662,-23,-1
247,994,-67,-1
274,888,-9,-1
219,1068,-47,-1
291,812,-42,-1
247,1108,10,-1
285,871,-40,-1
279,1032,71,-1
364,888,-46,-1
298,893,29,-1
549,1049,-100,-1
361,740,-43,-1
346,847,-59,-1
351,884,-38,-1
273,660,-96,-1
397,1189,-205,-1
364,741,-79,-1
271,886,-80,-1
205,1185,-119,-1
204,953,-51,-1
195,1173,-153,-1
115,912,-1,-1
186,999,-136,-1
287,1002,-176,-1
256,894,-120,-1
317,934,-145,-1
375,798,-206,-1
379,794,-64,-1
377,648,-68,-1
293,837,-7,-1
310,878,-228,-1
260,996,-171,-1
292,917,-251,-1
290,1088,-270,-1
181,861,-144,-1
192,1134,-267,-1
185,1111,-126,-1
205,900,48,-1
249,938,-48,-1
263,782,29,-1
283,823,55,-1
296,900,-43,-1
242,755,22,-1
380,1060,-71,-1
405,815,60,-1
254,1030,17,-1
55,861,119,-1
134,1242,89,-1
91,990,49,-1
107,778,93,-1
240,1296,114,-1
171,596,41,-1
353,1166,-73,-1
407,857,-139,-1
375,844,-159,-1
293,840,-113,-1
247,895,-46,-1
269,729,-22,-1
205,929,110,-1
311,912,22,-1
263,1089,-228,-1
167,1137,43,-1
133,1074,-1,-1
81,962,180,-1
107,1065,229,-1
162,873,228,-1
192,998,253,-1
323,738,235,-1
356,976,313,-1
422,681,149,-1
258,871,133,-1
431,404,-1,-1
627,1267,-444,-1
579,508,-653,-1
433,804,119,-1
433,1216,-111,-1
-73,820,459,-1
106,1005,55,-1
157,1138,203,-1
159,953,33,-1
151,1067,-81,-1
129,1001,58,-1
134,831,-143,-1
283,1295,-154,-1
162,786,-160,-1
351,734,-201,-1
298,792,9,-1
234,933,-156,-1
235,941,-129,-1
255,910,29,-1
291,1030,-29,-1
223,804,37,-1
177,1261,23,-1
176,744,-17,-1
170,1153,55,-1
152,1141,134,-1
315,778,-59,-1
295,915,187,-1
470,705,-68,-1
454,911,25,-1
574,726,-50,-1
418,839,43,-1
377,746,106,-1
392,850,26,-1
397,803,-62,-1
457,1122,-7,-1
356,759,-43,-1
267,1090,179,-1
279,840,6,-1
233,961,118,-1
279,964,-22,-1
277,1033,-9,-1
181,960,-13,-1
213,1034,-104,-1
268,1039,-149,-1
262,933,-36,-1
316,949,-164,-1
277,896,-82,-1
368,844,-134,-1
328,933,65,-1
428,697,-232,-1
357,1076,-27,-1
312,975,-169,-1
363,992,-180,-1
270,1057,-64,-1
313,939,-160,-1
343,966,50,-1
505,880,-89,-1
537,674,-162,-1
298,645,-73,-1
390,679,107,-1
269,691,173,-1
411,803,52,-1
417,912,94,-1
390,931,50,-1
381,948,67,-1
285,1010,41,-1
237,898,-151,-1
151,1317,25,-1
81,1055,-82,-1
205,1108,-189,-1
285,1165,48,-1
232,846,-161,-1
320,782,193,-1
315,754,22,-1
264,851,-58,-1
364,876,-64,-1
317,873,-92,-1
298,886,-156,-1
362,884,-169,-1
307,997,-218,-1
332,1032,-206,-1
278,886,-166,-1
300,1060,-48,-1
329,929,-7,-1
386,842,-63,-1
491,903,-70,-1
353,777,-65,-1
249,745,-5,-1
324,918,59,-1
267,871,-40,-1
372,973,-205,-1
260,983,-13,-1
149,1074,-35,-1
102,1003,78,-1
17,1016,11,-1
26,1174,49,-1
-2,932,90,-1
115,991,103,-1
170,890,136,-1
139,962,154,-1
169,881,123,-1
167,716,151,-1
238,885,156,-1
252,782,75,-1
198,878,-40,-1
214,1085,-199,-1
139,832,-86,-1
139,1182,-204,-1
124,1048,-109,-1
170,1099,-86,-1
189,1055,-86,-1
200,982,117,-1
215,862,166,-1
361,739,251,-1
431,666,315,-1
392,702,150,-1
393,786,149,-1
439,825,92,-1
372,860,72,-1
364,1001,29,-1
244,959,37,-1
226,880,12,-1
220,1121,17,-1
194,940,-9,-1
253,1198,27,-1
230,954,-117,-1
145,1063,28,-1
287,1030,61,-1
353,891,104,-1
361,826,81,-1
324,789,-53,-1
328,853,-34,-1
313,869,-43,-1
215,857,-35,-1
265,958,95,-1
221,857,-65,-1
279,1099,-80,-1
297,1074,-209,-1
197,956,-167,-1
301,1128,-151,-1
276,960,-58,-1
303,964,-99,-1
368,915,63,-1
398,645,5,-1
480,798,73,-1
328,677,91,-1
367,801,139,-1
469,964,71,-1
430,830,-20,-1
478,1052,-58,-1
187,977,67,-1
86,1020,150,-1
53,1056,222,-1
70,1038,247,-1
108,904,256,-1
142,1051,206,-1
288,786,124,-1
318,1101,141,-1
304,833,-21,-1
327,851,111,-1
355,766,153,-1
368,635,85,-1
381,825,102,-1
346,857,-80,-1
318,1024,-113,-1
374,1075,-183,-1
211,802,-40,-1
378,1314,-159,-1
293,693,-9,-1
265,1100,106,-1
331,947,58,-1
331,900,198,-1
456,825,183,-1
460,810,6,-1
379,794,-1,-1
351,816,59,-1
397,879,166,-1
426,854,4,-1
342,1014,18,-1
240,938,8,-1
124,949,121,-1
109,1133,207,-1
105,994,232,-1
192,1025,260,-1
206,841,271,-1
188,927,245,-1
339,1114,71,-1
260,831,-36,-1
264,863,18,-1
301,904,59,-1
338,712,99,-1
368,756,157,-1
349,716,25,-1
299,1131,-59,-1
205,935,-6,-1
199,1032,68,-1
255,1031,-51,-1
268,897,66,-1
273,961,41,-1
293,1010,107,-1
306,946,182,-1
380,829,166,-1
451,767,112,-1
437,754,-13,-1
397,860,-28,-1
383,897,-45,-1
425,965,-69,-1
387,873,-45,-1
278,853,61,-1
391,1143,13,-1
310,699,74,-1
322,1096,-32,-1
307,932,-53,-1
215,900,-19,-1
166,1004,3,-1
229,1017,-3,-1
312,874,-152,-1
337,809,-164,-1
436,846,-183,-1
336,687,-160,-1
436,858,-190,-1
336,845,-204,-1
274,1081,-118,-1
263,894,-200,-1
302,943,-131,-1
368,913,-184,-1
366,930,-81,-1
367,802,-124,-1
394,888,-45,-1
433,870,-102,-1
420,874,-141,-1
474,936,-67,-1
568,883,-269,-1
482,829,-230,-1
417,738,-111,-1
360,686,-105,-1
380,810,-189,-1
446,982,-92,-1
508,983,-57,-1
352,967,-94,-1
346,965,-9,-1
282,861,-116,-1
279,1131,-98,-1
194,920,-87,-1
366,1011,-141,-1
140,871,-146,-1
205,922,-28,-1
262,871,-227,-1
273,778,-210,-1
337,748,-149,-1
423,797,-69,-1
454,848,0,-1
428,874,-43,-1
314,754,-135,-1
378,1180,-208,-1
382,864,-179,-1
413,905,-149,-1
436,925,-108,-1
395,789,-45,-1
402,922,-46,-1
500,896,-82,-1
585,900,-135,-1
522,786,-138,-1
469,749,-70,-1
350,717,1,-1
362,668,-31,-1
423,867,-31,-1
409,892,-74,-1
434,1353,-208,-1
275,802,-179,-1
405,1298,-202,-1
186,767,-246,-1
203,1047,-85,-1
156,862,-106,-1
277,1099,-143,-1
301,911,-161,-1
334,797,-125,-1
315,823,-16,-1
344,642,-77,-1
438,876,-257,-1
486,711,-287,-1
441,917,-264,-1
365,862,-132,-1
291,922,-126,-1
293,992,-168,-1
306,855,-31,-1
350,1057,-77,-1
369,874,-58,-1
307,956,69,-1
419,930,-29,-1
467,734,-17,-1
454,801,-195,-1
466,796,-85,-1
414,674,-115,-1
461,866,-142,-1
390,970,-87,-1
251,903,-33,-1
189,1157,-28,-1
188,958,81,-1
196,892,-14,-1
248,1030,-3,-1
211,950,12,-1
174,937,-8,-1
229,995,-116,-1
288,954,-101,-1
317,868,-99,-1
366,815,-143,-1
410,773,-138,-1
362,768,-198,-1
390,840,-227,-1
329,901,-187,-1
374,984,-159,-1
342,847,-188,-1
359,916,-228,-1
436,835,-257,-1
355,892,-187,-1
408,981,-332,-1
393,933,-179,-1
419,844,-211,-1
523,744,-246,-1
539,811,-353,-1
490,704,-185,-1
472,800,-196,-1
392,758,-213,-1
420,814,-316,-1
447,920,-248,-1
330,789,-145,-1
367,1188,-218,-1
239,697,-162,-1
192,1120,-341,-1
336,1037,-342,-1
259,640,-305,-1
250,1141,-614,-1
269,786,-259,-1
327,876,-342,-1
337,711,-205,-1
432,785,-233,-1
285,665,-357,-1
435,1005,-252,-1
350,757,-309,-1
312,852,-282,-1
280,954,-306,-1
308,959,-288,-1
414,921,-290,-1
332,735,-147,-1
447,1093,-251,-1
370,714,-33,-1
375,851,24,-1
584,849,-217,-1
533,765,-268,-1
453,729,-241,-1
483,855,-175,-1
401,802,-230,-1
448,915,-210,-1
371,801,-181,-1
322,1081,-144,-1
266,811,-113,-1
271,1069,-155,-1
258,893,-80,-1
273,1047,-85,-1
238,918,-71,-1
260,762,-89,-1
317,1054,-13,-1
345,764,-33,-1
358,931,-9,-1
423,800,-157,-1
403,800,-206,-1
512,954,-272,-1
342,710,-213,-1
268,933,-147,-1
447,995,-185,-1
284,733,-164,-1
443,1178,-220,-1
345,756,-83,-1
343,947,-117,-1
300,963,-40,-1
336,857,40,-1
500,936,-45,-1
524,752,-120,-1
501,846,-89,-1
440,779,-64,-1
422,768,-57,-1
434,831,-55,-1
409,879,-97,-1
380,952,-79,-1
320,901,-27,-1
309,951,26,-1
321,974,14,-1
287,865,-36,-1
280,1047,0,-1
256,826,-39,-1
266,908,-24,-1
340,989,-94,-1
336,904,-28,-1
339,815,-88,-1
385,898,-84,-1
368,779,-204,-1
357,917,-134,-1
322,924,-226,-1
268,1004,-175,-1
256,900,-194,-1
277,1017,-228,-1
319,936,-212,-1
354,928,-186,-1
370,920,-158,-1
379,849,-123,-1
454,836,-214,-1
513,837,-283,-1
448,723,-224,-1
415,805,-259,-1
376,644,-145,-1
366,837,-303,-1
500,884,-187,-1
375,723,-224,-1
351,1032,-240,-1
273,887,-187,-1
237,961,-282,-1
227,1048,-325,-1
249,849,-226,-1
204,838,-370,-1
320,1096,-415,-1
323,720,-284,-1
364,837,-401,-1
381,689,-302,-1
383,716,-254,-1
356,702,-299,-1
351,860,-296,-1
378,914,-423,-1
386,856,-408,-1
467,881,-446,-1
438,835,-450,-1
380,880,-408,-1
329,930,-401,-1
291,873,-292,-1
349,851,-247,-1
446,888,-242,-1
541,663,-261,-1
531,670,-236,-1
489,625,-213,-1
455,720,-205,-1
439,742,-271,-1
466,851,-261,-1
470,865,-322,-1
408,889,-266,-1
318,1069,-298,-1
256,993,-192,-1
230,1025,-176,-1
252,1132,-107,-1
278,730,-111,-1
351,908,-121,-1
415,831,-186,-1
369,631,-146,-1
395,903,-240,-1
429,728,-237,-1
367,790,-270,-1
407,940,-297,-1
336,837,-202,-1
318,968,-253,-1
304,937,-248,-1
325,959,-197,-1
332,865,-194,-1
346,944,-119,-1
335,861,-7,-1
400,821,20,-1
487,730,-15,-1
532,723,-100,-1
599,904,-304,-1
618,751,-264,-1
469,826,-266,-1
429,872,-175,-1
295,854,-112,-1
231,965,-51,-1
230,921,-2,-1
295,996,-14,-1
294,1020,-27,-1
297,853,27,-1
241,986,-38,-1
295,894,-41,-1
346,990,-55,-1
367,796,-103,-1
381,873,-63,-1
379,757,-100,-1
396,813,-190,-1
388,807,-161,-1
384,890,-161,-1
353,846,-125,-1
298,797,-100,-1
384,1005,-66,-1
497,1120,-98,-1
403,734,-153,-1
437,944,-223,-1
535,976,-223,-1
418,833,-89,-1
471,757,-171,-1
527,807,-143,-1
478,674,-196,-1
504,754,-133,-1
526,771,-172,-1
540,798,-198,-1
593,872,-199,-1
432,857,-181,-1
348,912,-209,-1
374,966,-194,-1
360,972,-265,-1
281,936,-225,-1
280,923,-214,-1
338,876,-353,-1
407,818,-382,-1
421,827,-300,-1
474,789,-310,-1
414,755,-296,-1
449,746,-202,-1
457,594,-190,-1
407,639,-201,-1
418,789,-296,-1
461,808,-391,-1
476,909,-317,-1
451,728,-305,-1
419,967,-255,-1
374,841,-197,-1
441,961,-200,-1
503,833,-151,-1
552,724,-156,-1
506,687,-188,-1
488,690,-152,-1
478,685,-147,-1
519,750,-220,-1
505,812,-154,-1
616,848,-227,-1
429,744,-115,-1
502,1107,-215,-1
375,780,-141,-1
348,1038,-231,-1
316,1071,-214,-1
299,819,-212,-1
348,957,-175,-1
383,903,-183,-1
417,912,-183,-1
419,768,-185,-1
452,703,-169,-1
479,693,-151,-1
473,727,-157,-1
443,739,-117,-1
431,856,-186,-1
384,945,-274,-1
406,943,-229,-1
471,852,-175,-1
402,945,-135,-1
416,893,-113,-1
381,947,-34,-1
410,835,30,-1
549,836,0,-1
620,838,-132,-1
549,730,-143,-1
517,718,-88,-1
508,775,-58,-1
473,776,-108,-1
498,889,-88,-1
449,896,-144,-1
399,942,-92,-1
357,869,-62,-1
335,952,-74,-1
287,919,-14,-1
286,989,-40,-1
265,983,36,-1
271,915,107,-1
352,904,-22,-1
403,915,-151,-1
345,853,-50,-1
349,820,-22,-1
539,664,-35,-1
409,863,-19,-1
430,889,11,-1
370,843,-22,-1
303,945,-31,-1
367,1016,-6,-1
319,881,-68,-1
294,972,-59,-1
290,1043,-20,-1
269,871,10,-1
227,1041,50,-1
285,973,136,-1
389,871,135,-1
440,812,71,-1
506,790,34,-1
454,816,35,-1
450,711,92,-1
403,824,164,-1
365,864,136,-1
331,944,64,-1
319,984,0,-1
255,874,-19,-1
242,1056,-44,-1
231,991,-25,-1
203,1003,12,-1
203,1079,10,-1
190,902,118,-1
269,926,15,-1
296,1009,-99,-1
238,943,-34,-1
394,804,-109,-1
351,808,-69,-1
424,835,-146,-1
404,827,-176,-1
357,836,-149,-1
345,931,-108,-1
297,894,-79,-1
293,976,-95,-1
242,958,-69,-1
290,1025,-46,-1
308,945,-98,-1
336,938,-76,-1
359,876,-87,-1
433,840,-93,-1
496,777,-179,-1
538,760,-302,-1
470,735,-286,-1
436,776,-197,-1
416,866,-180,-1
364,805,-139,-1
376,820,-205,-1
476,952,-194,-1
413,858,-117,-1
373,897,-311,-1
326,916,-170,-1
303,875,-231,-1
307,937,-213,-1
383,994,-384,-1
392,703,-554,-1
253,860,-611,-1
206,1078,-384,-1
263,776,-523,-1
308,826,-414,-1
470,645,-164,-1
353,599,-272,-1
287,764,-363,-1
311,990,-265,-1
265,823,-318,-1
300,961,-304,-1
319,897,-339,-1
391,919,-355,-1
417,887,-285,-1
412,947,-219,-1
396,793,67,-1
615,528,-27,-1
794,836,-369,-1
529,714,-379,-1
655,708,-208,-1
585,760,-178,-1
467,599,-178,-1
486,734,-72,-1
459,793,-67,-1
407,833,-145,-1
435,879,-93,-1
448,789,-117,-1
522,826,-298,-1
417,947,-375,-1
499,955,-387,-1
487,901,-491,-1
451,829,-417,-1
482,729,-327,-1
432,692,-425,-1
464,715,-505,-1
446,729,-447,-1
425,638,-379,-1
385,649,-351,-1
379,792,-573,-1
514,914,-425,-1
436,742,-206,-1
528,955,-380,-1
462,704,-195,-1
397,745,-251,-1
438,885,-303,-1
460,821,-319,-1
462,885,-303,-1
519,671,-208,-1
558,755,-282,-1
497,701,-340,-1
409,677,-195,-1
417,868,-403,-1
423,928,-263,-1
348,833,-239,-1
310,978,-194,-1
254,916,-103,-1
328,960,-175,-1
343,825,-88,-1
274,792,-100,-1
358,875,-191,-1
354,823,-246,-1
436,922,-353,-1
485,958,-400,-1
383,815,-377,-1
378,884,-326,-1
350,726,-272,-1
332,744,-180,-1
335,699,-194,-1
296,763,-242,-1
366,1153,-519,-1
297,820,-214,-1
450,991,-381,-1
404,814,-308,-1
450,825,-206,-1
404,847,-325,-1
337,818,-205,-1
363,853,-182,-1
455,799,-439,-1
619,885,-317,-1
478,680,-252,-1
464,893,-363,-1
297,785,-182,-1
365,919,-253,-1
368,736,-230,-1
464,1026,-254,-1
296,847,-75,-1
368,1023,-346,-1
347,976,-228,-1
47,643,109,-1
198,934,-376,-1
285,1168,-394,-1
307,692,-314,-1
292,1083,-194,-1
343,620,-457,-1
310,694,-223,-1
360,961,-319,-1
376,676,-262,-1
395,894,-331,-1
431,800,-346,-1
433,738,-222,-1
437,821,-278,-1
452,853,-142,-1
447,836,-219,-1
489,742,-349,-1
460,906,-244,-1
475,883,-292,-1
540,853,-297,-1
540,765,-402,-1
424,675,-322,-1
437,730,-234,-1
401,679,-386,-1
479,922,-252,-1
524,825,-366,-1
463,1030,-234,-1
390,705,-343,-1
315,845,-228,-1
392,1086,-294,-1
244,897,-159,-1
319,1001,-239,-1
336,842,-350,-1
342,888,-298,-1
308,875,-240,-1
352,728,-250,-1
373,836,-268,-1
381,754,-306,-1
347,749,-226,-1
396,902,-305,-1
305,789,-227,-1
361,947,-305,-1
349,872,-212,-1
369,926,-210,-1
393,929,-198,-1
388,908,-197,-1
451,1005,-83,-1
604,813,17,-1
565,669,-53,-1
506,661,-69,-1
467,669,-24,-1
479,674,-105,-1
521,782,-102,-1
526,785,-59,-1
476,830,-132,-1
394,823,-77,-1
410,892,-412,-1
494,1003,-218,-1
489,980,-266,-1
386,953,-220,-1
377,1000,-176,-1
363,886,-185,-1
453,928,-154,-1
490,807,-254,-1
482,782,-259,-1
453,761,-168,-1
410,617,-156,-1
419,718,-148,-1
382,744,-233,-1
465,941,-366,-1
453,810,-366,-1
546,793,-278,-1
522,893,-312,-1
460,846,-237,-1
462,844,-255,-1
433,1055,-135,-1
440,859,-112,-1
519,796,-125,-1
569,797,-196,-1
524,747,-201,-1
469,695,-163,-1
410,679,-163,-1
481,842,-119,-1
454,792,-145,-1
437,812,-167,-1
441,1010,-144,-1
362,829,-122,-1
378,904,-196,-1
387,990,-190,-1
338,863,-164,-1
411,872,-255,-1
425,893,-211,-1
475,846,-212,-1
516,794,-197,-1
523,741,-183,-1
505,707,-124,-1
530,701,-162,-1
480,670,-231,-1
474,810,-278,-1
450,944,-312,-1
473,842,-284,-1
492,870,-347,-1
470,904,-325,-1
439,890,-295,-1
450,858,-254,-1
445,935,-176,-1
447,935,-89,-1
550,807,-131,-1
553,709,-138,-1
496,671,-180,-1
449,653,-145,-1
474,686,-225,-1
559,856,-202,-1
515,834,-289,-1
467,898,-229,-1
367,825,-185,-1
369,831,-206,-1
444,911,-199,-1
425,874,-196,-1
418,899,-184,-1
407,936,-193,-1
476,875,-288,-1
444,855,-237,-1
410,799,-264,-1
470,712,-303,-1
431,756,-277,-1
486,752,-196,-1
458,666,-282,-1
461,651,-249,-1
562,796,-349,-1
510,711,-333,-1
583,783,-343,-1
543,839,-288,-1
495,782,-306,-1
515,1013,-368,-1
504,930,-277,-1
568,842,-206,-1
584,777,-222,-1
515,639,-252,-1
503,619,-177,-1
507,563,-105,-1
483,709,-215,-1
485,956,-315,-1
424,865,-222,-1
390,1009,-250,-1
335,960,-252,-1
253,1004,-175,-1
287,997,-258,-1
365,883,-236,-1
413,919,-298,-1
325,776,-224,-1
410,686,-135,-1
419,684,-154,-1
495,704,-240,-1
518,704,-311,-1
527,740,-293,-1
462,855,-327,-1
468,856,-296,-1
435,887,-284,-1
432,847,-326,-1
452,851,-313,-1
451,1019,-201,-1
491,859,-70,-1
560,705,-84,-1
557,796,-151,-1
497,510,-135,-1
583,725,-94,-1
565,705,-191,-1
576,698,-192,-1
490,919,-260,-1
390,762,-164,-1
346,1014,-197,-1
391,912,-292,-1
338,968,-222,-1
302,1000,-238,-1
322,986,-211,-1
501,911,-270,-1
488,864,-203,-1
465,734,-156,-1
478,686,-211,-1
462,699,-140,-1
513,658,-102,-1
515,665,-218,-1
521,763,-203,-1
552,823,-207,-1
531,774,-238,-1
574,945,-288,-1
437,793,-242,-1
366,902,-275,-1
314,1134,-532,-1
324,961,-200,-1
490,895,-111,-1
524,802,-101,-1
475,687,-70,-1
504,731,-101,-1
480,659,-115,-1
603,769,-211,-1
531,629,-140,-1
477,873,-198,-1
435,868,-174,-1
302,818,-96,-1
412,1133,-198,-1
317,811,-78,-1
475,969,-263,-1
464,947,-242,-1
515,786,-227,-1
633,930,-268,-1
566,765,-288,-1
361,660,-126,-1
431,525,-41,-1
396,584,-45,-1
398,605,-100,-1
429,780,-130,-1
583,1114,-565,-1
597,694,-292,-1
595,941,-298,-1
471,872,-252,-1
463,1023,-265,-1
417,966,-197,-1
509,947,-221,-1
590,778,-192,-1
578,660,-177,-1
482,671,-168,-1
477,642,-102,-1
527,619,-43,-1
460,742,-155,-1
470,858,-144,-1
440,927,-324,-1
399,899,-292,-1
424,996,-354,-1
343,872,-250,-1
442,919,-350,-1
451,973,-357,-1
545,882,-309,-1
528,792,-314,-1
578,793,-212,-1
477,609,-104,-1
435,568,-122,-1
370,500,-130,-1
399,661,-94,-1
384,786,-238,-1
529,864,-364,-1
558,1093,-513,-1
546,822,-369,-1
490,1006,-320,-1
432,916,-321,-1
436,945,-129,-1
578,875,-165,-1
554,733,-173,-1
501,608,-139,-1
471,631,-123,-1
502,635,-148,-1
516,639,-183,-1
529,868,-318,-1
491,901,-323,-1
349,903,-175,-1
293,970,-226,-1
294,957,-216,-1
328,957,-223,-1
407,1072,-268,-1
452,860,-379,-1
532,929,-358,-1
440,854,-240,-1
365,678,-60,-1
310,483,90,-1
370,407,-74,-1
458,634,-229,-1
576,1000,-766,-1
488,678,-225,-1
704,789,-472,-1
553,778,-375,-1
514,885,-388,-1
489,871,-302,-1
441,949,-312,-1
522,1046,-259,-1
562,786,-97,-1
630,804,-257,-1
442,702,-249,-1
459,619,-208,-1
498,509,-122,-1
488,476,-226,-1
557,911,-188,-1
454,960,-401,-1
373,857,-85,-1
411,964,-325,-1
358,907,-338,-1
466,907,-351,-1
525,1011,-467,-1
521,830,-301,-1
489,791,-218,-1
388,707,-178,-1
451,621,-202,-1
509,639,-187,-1
488,603,-238,-1
475,628,-260,-1
489,701,-357,-1
539,970,-453,-1
503,851,-414,-1
554,813,-298,-1
491,842,-318,-1
520,940,-327,-1
486,928,-310,-1
599,943,-293,-1
618,767,-293,-1
447,722,-241,-1
447,561,20,-1
443,499,71,-1
432,456,-30,-1
476,712,-41,-1
524,950,-138,-1
488,927,-217,-1
441,762,-235,-1
404,927,-465,-1
336,987,-517,-1
381,814,-385,-1
516,1077,-546,-1
505,926,-523,-1
515,879,-338,-1
399,697,-411,-1
353,587,-383,-1
370,691,-250,-1
383,627,-299,-1
493,599,-182,-1
576,628,-288,-1
577,766,-417,-1
565,768,-427,-1
540,722,-380,-1
565,731,-390,-1
582,850,-646,-1
608,942,-394,-1
661,931,-396,-1
634,715,-328,-1
404,531,-219,-1
420,639,-259,-1
404,567,-228,-1
434,487,-231,-1
505,820,-401,-1
489,1115,-372,-1
429,930,-310,-1
433,853,-364,-1
337,926,-346,-1
266,900,-336,-1
370,881,-473,-1
442,903,-526,-1
454,782,-406,-1
466,730,-347,-1
435,683,-307,-1
439,537,-231,-1
425,506,-234,-1
482,559,-231,-1
490,717,-372,-1
447,945,-591,-1
609,847,-443,-1
470,777,-381,-1
454,853,-402,-1
435,956,-339,-1
405,849,-275,-1
511,1075,-201,-1
595,701,-234,-1
683,712,-173,-1
510,608,-96,-1
496,526,-102,-1
536,482,-24,-1
537,615,-160,-1
551,745,-225,-1
489,913,-310,-1
336,977,-365,-1
450,987,-396,-1
386,1043,-345,-1
437,1027,-387,-1
398,880,-382,-1
492,868,-518,-1
605,852,-408,-1
597,652,-218,-1
505,555,-157,-1
405,454,-114,-1
504,390,-137,-1
516,528,-153,-1
455,558,-274,-1
580,967,-879,-1
637,948,-383,-1
595,935,-412,-1
516,824,-348,-1
478,834,-277,-1
471,835,-335,-1
458,870,-210,-1
625,789,-182,-1
580,631,-305,-1
481,722,-280,-1
450,585,-223,-1
480,585,-168,-1
444,727,-372,-1
561,931,-308,-1
483,911,-295,-1
385,893,-207,-1
304,936,-255,-1
298,944,-215,-1
369,1018,-292,-1
445,808,-309,-1
380,841,-327,-1
357,835,-240,-1
428,725,-167,-1
395,675,-173,-1
461,707,-167,-1
433,707,-287,-1
424,873,-320,-1
477,869,-334,-1
495,869,-356,-1
497,821,-300,-1
435,858,-151,-1
412,820,-204,-1
489,947,-294,-1
524,1028,-194,-1
618,870,-188,-1
468,651,-96,-1
407,734,-69,-1
430,692,-75,-1
486,559,-13,-1
448,630,-98,-1
436,780,-163,-1
434,928,-243,-1
458,974,-335,-1
395,1046,-472,-1
373,1001,-384,-1
337,1008,-392,-1
347,855,-487,-1
496,936,-379,-1
410,735,-363,-1
490,654,-231,-1
520,875,-328,-1
451,651,-288,-1
517,551,-141,-1
489,521,-226,-1
470,573,-359,-1
563,816,-449,-1
562,772,-415,-1
586,779,-439,-1
519,793,-343,-1
483,883,-352,-1
470,964,-299,-1
437,967,-164,-1
533,884,-218,-1
478,771,-243,-1
440,691,-212,-1
391,638,-202,-1
428,506,-199,-1
482,886,-349,-1
474,973,-271,-1
421,967,-220,-1
321,963,-216,-1
203,1011,-114,-1
178,922,-121,-1
302,1003,-164,-1
420,875,-215,-1
443,789,-243,-1
507,841,-282,-1
456,744,-145,-1
519,632,-205,-1
469,683,-192,-1
441,705,-186,-1
417,744,-216,-1
443,919,-349,-1
554,926,-268,-1
388,875,-251,-1
479,1022,-214,-1
401,838,-199,-1
485,926,-194,-1
413,1028,-4,-1
534,726,-8,-1
612,802,24,-1
599,632,-116,-1
485,645,-31,-1
572,640,-3,-1
459,606,-48,-1
562,777,-75,-1
475,945,-231,-1
436,878,-133,-1
388,1001,-260,-1
370,985,-204,-1
338,1067,-247,-1
370,1102,-301,-1
429,940,-354,-1
435,885,-231,-1
371,825,-157,-1
320,721,-168,-1
370,608,-178,-1
435,576,-119,-1
471,661,-232,-1
501,862,-583,-1
530,887,-308,-1
578,865,-395,-1
459,779,-289,-1
418,901,-284,-1
453,849,-273,-1
418,962,-117,-1
468,863,-69,-1
568,780,-38,-1
587,749,-140,-1
506,638,-65,-1
492,658,-192,-1
499,663,-221,-1
557,712,-285,-1
592,886,-283,-1
434,847,-246,-1
409,875,-240,-1
380,875,-262,-1
399,854,-244,-1
458,958,-282,-1
468,831,-229,-1
528,725,-295,-1
535,829,-294,-1
402,698,-253,-1
572,650,-349,-1
529,657,-287,-1
539,674,-380,-1
509,700,-361,-1
457,752,-359,-1
484,834,-393,-1
466,822,-409,-1
533,919,-442,-1
481,793,-326,-1
537,757,-370,-1
628,885,-317,-1
653,640,-303,-1
667,555,-326,-1
632,511,-414,-1
452,563,-284,-1
541,607,-446,-1
515,587,-484,-1
673,766,-509,-1
592,858,-482,-1
439,758,-351,-1
417,869,-251,-1
403,796,-322,-1
612,1058,-447,-1
448,780,-325,-1
548,610,-583,-1
528,560,-498,-1
473,622,-547,-1
551,559,-534,-1
505,603,-463,-1
503,271,-410,-1
500,512,-513,-1
450,744,-727,-1
490,741,-545,-1
516,711,-544,-1
573,698,-748,-1
532,846,-527,-1
389,777,-475,-1
477,904,-546,-1
531,718,-478,-1
680,533,-575,-1
579,446,-515,-1
449,491,-385,-1
485,567,-333,-1
456,629,-419,-1
614,819,-479,-1
511,862,-417,-1
397,874,-351,-1
360,784,-277,-1
418,751,-290,-1
446,712,-342,-1
598,737,-495,-1
581,628,-408,-1
573,618,-422,-1
584,597,-380,-1
650,659,-371,-1
530,608,-358,-1
499,617,-405,-1
408,563,-355,-1
584,765,-554,-1
588,822,-420,-1
565,724,-519,-1
590,760,-440,-1
527,646,-394,-1
544,726,-353,-1
554,683,-408,-1
601,748,-407,-1
718,874,-405,-1
615,694,-398,-1
568,598,-373,-1
462,571,-234,-1
476,510,-219,-1
506,580,-255,-1
529,848,-403,-1
559,903,-396,-1
591,849,-376,-1
543,842,-400,-1
339,794,-377,-1
365,809,-395,-1
578,862,-547,-1
531,829,-532,-1
516,793,-403,-1
452,729,-427,-1
413,654,-350,-1
424,526,-238,-1
423,463,-230,-1
484,570,-296,-1
553,842,-412,-1
569,751,-454,-1
610,738,-372,-1
519,665,-432,-1
490,895,-401,-1
406,790,-516,-1
375,1107,-609,-1
349,879,-228,-1
422,764,-186,-1
549,760,-84,-1
470,729,-217,-1
469,684,-166,-1
494,696,-236,-1
466,785,-147,-1
374,734,-184,-1
359,804,-196,-1
364,1002,-255,-1
1476,1453,-1528,-1
-291,997,-125,-1
-546,101,300,-1
628,912,-186,-1
-71,816,-371,-1
108,494,-221,-1
649,1239,-945,-1
236,481,-163,-1
478,729,-618,-1
155,896,-284,-1
217,556,-261,-1
522,1009,-714,-1
163,659,-284,-1
137,885,-234,-1
263,950,-476,-1
44,788,-306,-1
366,1020,-634,-1
103,963,-424,-1
319,1003,-280,-1
357,717,-280,-1
396,707,-199,-1
282,759,-249,-1
435,698,-440,-1
405,790,-307,-1
312,841,-107,-1
503,1019,-251,-1
243,154,-349,-1
582,367,-830,-1
364,1744,92,-1
573,-16,-912,-1
209,1258,-180,-1
336,744,-529,-1
327,863,-528,-1
475,795,-536,-1
521,1217,-602,-1
370,467,-480,-1
356,641,-283,-1
347,525,-224,-1
326,656,-304,-1
351,642,-310,-1
410,418,-539,-1
574,1217,-667,-1
576,633,-477,-1
518,742,-460,-1
517,749,-560,-1
439,869,-347,-1
369,778,-384,-1
465,843,-471,-1
509,762,-400,-1
543,598,-393,-1
436,698,-359,-1
395,553,-365,-1
422,526,-406,-1
457,692,-415,-1
580,534,-458,-1
585,912,-576,-1
446,749,-496,-1
208,636,-278,-1
270,724,-438,-1
384,823,-773,-1
352,977,-603,-1
464,689,-670,-1
489,674,-753,-1
472,786,-626,-1
566,539,-621,-1
371,616,-380,-1
436,228,-225,-1
471,540,-156,-1
563,217,-466,-1
628,831,-462,-1
679,567,-827,-1
543,632,-384,-1
643,552,-634,-1
496,852,-493,-1
666,653,-851,-1
445,793,-511,-1
560,906,-558,-1
578,773,-479,-1
600,599,-508,-1
468,630,-364,-1
502,473,-252,-1
462,561,-232,-1
482,824,-290,-1
448,851,-155,-1
496,689,-387,-1
565,652,-328,-1
590,662,-577,-1
449,898,-531,-1
578,549,-598,-1
608,984,-578,-1
556,550,-593,-1
631,609,-408,-1
545,540,-627,-1
439,720,-485,-1
438,509,-460,-1
598,597,-441,-1
615,425,-407,-1
668,490,-453,-1
721,539,-567,-1
572,630,-604,-1
543,802,-586,-1
434,632,-576,-1
494,876,-520,-1
457,767,-433,-1
563,583,-455,-1
580,707,-511,-1
508,415,-515,-1
467,740,-470,-1
428,401,-535,-1
513,769,-500,-1
572,604,-522,-1
622,901,-552,-1
395,663,-420,-1
254,800,-420,-1
291,814,-509,-1
142,811,-242,-1
467,815,-607,-1
470,667,-477,-1
501,665,-603,-1
514,536,-422,-1
507,686,-374,-1
450,547,-363,-1
426,567,-316,-1
527,473,-445,-1
519,576,-465,-1
547,753,-502,-1
523,610,-586,-1
485,822,-568,-1
418,507,-644,-1
443,867,-700,-1
511,723,-847,-1
550,892,-470,-1
709,773,-543,-1
592,720,-491,-1
557,475,-413,-1
414,631,-293,-1
426,388,-364,-1
409,467,-225,-1
448,676,-301,-1
463,773,-399,-1
431,835,-600,-1
529,893,-789,-1
396,915,-514,-1
320,725,-579,-1
304,833,-521,-1
645,675,-701,-1
396,719,-548,-1
489,638,-482,-1
402,707,-424,-1
343,519,-388,-1
413,508,-435,-1
409,504,-462,-1
555,509,-524,-1
566,632,-529,-1
578,595,-596,-1
583,473,-651,-1
532,607,-554,-1
460,712,-570,-1
559,661,-805,-1
520,879,-692,-1
658,688,-592,-1
506,910,-378,-1
426,348,-417,-1
433,725,-242,-1
391,241,-395,-1
568,851,-223,-1
540,321,-497,-1
626,828,-727,-1
454,544,-615,-1
374,1021,-547,-1
471,665,-893,-1
245,848,-506,-1
382,664,-830,-1
358,739,-685,-1
338,709,-516,-1
213,584,-479,-1
301,457,-627,-1
363,818,-515,-1
374,179,-523,-1
507,805,-551,-1
476,510,-851,-1
479,659,-586,-1
403,735,-525,-1
414,648,-692,-1
428,815,-564,-1
287,661,-657,-1
355,955,-484,-1
521,536,-339,-1
468,666,-468,-1
397,723,-594,-1
494,534,-333,-1
467,767,-568,-1
445,468,-462,-1
426,905,-398,-1
218,771,-241,-1
303,1012,-517,-1
138,801,-230,-1
289,956,-682,-1
184,895,-259,-1
454,837,-665,-1
384,883,-558,-1
463,567,-583,-1
418,991,-521,-1
295,500,-378,-1
368,600,-266,-1
380,551,-231,-1
387,414,-342,-1
313,807,-354,-1
538,1384,-878,-1
248,979,-332,-1
291,846,-309,-1
226,885,-327,-1
248,826,-414,-1
236,1144,-229,-1
470,831,-263,-1
498,729,-159,-1
483,512,-120,-1
487,807,-7,-1
371,434,-142,-1
501,1106,-316,-1
489,874,-349,-1
334,779,-61,-1
389,1062,-300,-1
197,800,-154,-1
65,1028,-25,-1
340,1040,-403,-1
107,831,15,-1
608,1128,-658,-1
345,1039,-412,-1
396,768,-433,-1
283,919,-42,-1
202,422,-91,-1
344,661,-31,-1
508,649,-304,-1
468,558,-397,-1
510,787,-606,-1
518,931,-532,-1
526,1078,-436,-1
392,695,-359,-1
488,914,-297,-1
339,750,-393,-1
509,1119,-343,-1
523,1084,-324,-1
539,503,-336,-1
381,549,-133,-1
484,593,-66,-1
417,651,-214,-1
494,517,-481,-1
408,1213,-356,-1
439,715,-484,-1
340,1251,-145,-1
278,510,-483,-1
309,1191,-323,-1
196,673,-498,-1
214,1079,-407,-1
393,860,-752,-1
321,839,-512,-1
288,787,-308,-1
455,656,-341,-1
333,507,-304,-1
380,571,-279,-1
428,710,-320,-1
442,518,-403,-1
400,789,-369,-1
371,669,-499,-1
343,840,-664,-1
319,1066,-692,-1
323,950,-718,-1
335,1022,-645,-1
343,811,-513,-1
540,899,-430,-1
460,856,-236,-1
338,437,-221,-1
412,871,-124,-1
450,335,-129,-1
693,667,-7,-1
570,583,-378,-1
390,969,-338,-1
252,851,-278,-1
263,929,-255,-1
341,731,-474,-1
398,960,-520,-1
418,850,-583,-1
381,922,-636,-1
402,1003,-567,-1
323,657,-403,-1
362,743,-347,-1
363,659,-219,-1
390,630,-315,-1
387,707,-350,-1
362,667,-357,-1
358,546,-427,-1
343,714,-555,-1
470,984,-870,-1
358,834,-548,-1
413,763,-632,-1
358,849,-420,-1
341,886,-466,-1
378,713,-365,-1
571,860,-502,-1
422,509,-399,-1
421,693,-293,-1
409,626,-326,-1
360,667,-269,-1
504,802,-604,-1
391,918,-339,-1
357,661,-296,-1
338,1100,-431,-1
233,741,-366,-1
202,984,-376,-1
189,832,-477,-1
487,991,-661,-1
171,762,-564,-1
338,685,-466,-1
354,849,-460,-1
321,643,-330,-1
460,752,-275,-1
454,616,-205,-1
363,517,-306,-1
379,681,-333,-1
326,666,-438,-1
343,757,-515,-1
417,1042,-930,-1
518,872,-574,-1
410,766,-339,-1
539,752,-502,-1
469,1068,-385,-1
498,809,-403,-1
525,697,-451,-1
406,910,-311,-1
292,643,-251,-1
296,624,-207,-1
323,531,-264,-1
353,696,-261,-1
396,922,-245,-1
280,1235,-570,-1
328,923,-396,-1
308,1070,-139,-1
290,781,-366,-1
303,892,-189,-1
352,814,-384,-1
510,803,-544,-1
419,918,-390,-1
412,545,-448,-1
419,1114,-292,-1
331,501,-295,-1
373,540,-265,-1
522,765,-137,-1
317,537,-329,-1
351,693,-341,-1
484,1208,-918,-1
373,986,-369,-1
420,683,-342,-1
490,1017,-386,-1
391,840,-320,-1
389,926,-258,-1
494,748,-257,-1
415,615,-322,-1
339,807,-275,-1
312,732,-241,-1
361,639,-234,-1
359,714,-241,-1
402,857,-252,-1
315,944,-188,-1
365,1007,-561,-1
261,946,-172,-1
313,936,-450,-1
170,985,-213,-1
178,906,-340,-1
392,995,-555,-1
397,822,-611,-1
446,652,-521,-1
422,698,-330,-1
446,426,-121,-1
475,521,-114,-1
470,813,-268,-1
350,634,-271,-1
386,768,-848,-1
421,1164,-358,-1
358,794,-344,-1
397,883,-452,-1
307,806,-461,-1
264,1177,-495,-1
124,803,-356,-1
365,1121,-182,-1
139,470,-298,-1
426,915,-164,-1
139,528,74,-1
276,550,-39,-1
722,1549,-94,-1
162,79,-159,-1
648,972,-36,-1
378,487,-407,-1
359,976,-226,-1
570,1245,-433,-1
161,578,-360,-1
344,964,-874,-1
340,1133,-699,-1
501,673,-482,-1
411,853,-542,-1
293,857,-429,-1
252,658,-367,-1
150,614,-374,-1
266,640,-425,-1
456,665,-456,-1
307,867,-522,-1
783,990,-1199,-1
-94,765,164,-1
465,567,-440,-1
213,1060,-580,-1
441,1125,-678,-1
318,485,-239,-1
435,1510,-312,-1
236,112,-569,-1
263,944,-276,-1
358,617,-354,-1
549,640,-270,-1
481,692,-231,-1
360,608,-272,-1
274,1026,-355,-1
163,747,-474,-1
40,1519,-663,-1
312,599,-554,-1
414,1155,-403,-1
519,779,-638,-1
443,865,-326,-1
332,715,-298,-1
343,568,-260,-1
325,577,-161,-1
382,441,-175,-1
452,566,-219,-1
478,698,-409,-1
544,1142,-1177,-1
520,959,-428,-1
260,330,-237,-1
519,1254,-694,-1
113,627,-145,-1
327,885,-311,-1
480,1121,-344,-1
496,809,-189,-1
544,659,-412,-1
467,698,-184,-1
479,609,-262,-1
481,656,-389,-1
529,978,-384,-1
289,667,-153,-1
181,961,-338,-1
249,1283,-271,-1
120,656,-252,-1
146,1140,-93,-1
245,957,-408,-1
171,802,-145,-1
426,914,-610,-1
440,828,-573,-1
363,852,-465,-1
430,479,-288,-1
444,753,-109,-1
381,417,-98,-1
259,628,-154,-1
480,1261,-903,-1
190,1183,-350,-1
283,793,-304,-1
179,983,-215,-1
154,1023,-311,-1
84,979,-164,-1
72,1040,-191,-1
185,1000,-171,-1
345,845,44,-1
479,892,-246,-1
840,584,-145,-1
66,862,-182,-1
504,676,-302,-1
408,742,-278,-1
387,833,-257,-1
387,919,-175,-1
212,1011,-112,-1
180,945,-69,-1
154,1004,-125,-1
198,1015,-173,-1
225,972,-219,-1
370,890,-343,-1
588,825,-367,-1
279,990,-358,-1
314,1002,-253,-1
288,688,-151,-1
356,629,-76,-1
352,546,-55,-1
307,746,-127,-1
506,1152,-765,-1
277,996,-342,-1
421,926,-266,-1
387,909,-307,-1
256,790,-125,-1
371,1056,-366,-1
192,1006,-142,-1
314,1018,-240,-1
358,838,-139,-1
313,631,-139,-1
370,892,-172,-1
372,802,-216,-1
397,760,-270,-1
485,805,-364,-1
347,949,-109,-1
313,844,-288,-1
248,902,-140,-1
244,1131,-272,-1
208,859,-148,-1
236,965,-120,-1
304,1003,-209,-1
391,827,-198,-1
334,841,-224,-1
350,820,-212,-1
404,751,-228,-1
399,770,-199,-1
468,816,-315,-1
398,788,-293,-1
352,866,-344,-1
282,942,-341,-1
231,1002,-326,-1
224,1006,-310,-1
295,950,-223,-1
271,893,-143,-1
299,1089,-185,-1
364,1012,-77,-1
555,845,-140,-1
381,721,-28,-1
444,702,-107,-1
394,637,-91,-1
396,645,-85,-1
440,672,-204,-1
430,1061,-417,-1
409,1082,-250,-1
221,1016,-68,-1
200,931,-214,-1
153,1065,-105,-1
144,900,-197,-1
178,1034,-144,-1
280,1030,-387,-1
308,963,-460,-1
256,950,-321,-1
254,859,-229,-1
255,737,-117,-1
321,620,-47,-1
350,682,12,-1
308,657,-89,-1
295,767,-229,-1
347,946,-403,-1
300,1232,-861,-1
241,937,-350,-1
216,766,-263,-1
288,1167,-447,-1
243,892,-313,-1
472,1038,-323,-1
401,863,-209,-1
304,688,-164,-1
318,744,-137,-1
335,664,-168,-1
344,723,-141,-1
401,748,-206,-1
419,1120,-516,-1
264,1016,-379,-1
167,983,-169,-1
175,984,-287,-1
104,878,-196,-1
169,1055,-297,-1
243,958,-283,-1
458,922,-389,-1
221,885,-287,-1
322,873,-176,-1
287,630,-102,-1
373,701,-51,-1
352,628,-117,-1
421,918,-662,-1
308,1078,-316,-1
335,843,-321,-1
285,924,-308,-1
237,941,-239,-1
165,916,-133,-1
262,1036,-265,-1
164,992,-17,-1
318,1059,-144,-1
430,720,-66,-1
445,884,-123,-1
467,742,-205,-1
388,741,-127,-1
440,890,-232,-1
328,731,-152,-1
355,979,-86,-1
323,973,-145,-1
232,901,-75,-1
327,1021,-205,-1
258,895,-92,-1
227,957,-93,-1
299,997,-145,-1
372,895,-193,-1
410,895,-201,-1
549,821,-160,-1
200,874,-65,-1
321,711,-109,-1
477,935,-347,-1
349,800,-217,-1
394,867,-217,-1
382,886,-168,-1
345,982,-198,-1
316,894,-184,-1
300,959,-129,-1
352,916,-205,-1
252,939,-12,-1
287,1113,-111,-1
393,885,-17,-1
513,696,-51,-1
448,767,-65,-1
494,732,-115,-1
452,704,-120,-1
452,855,-150,-1
400,869,17,-1
392,982,-142,-1
274,933,-119,-1
143,1059,-59,-1
180,940,-167,-1
145,1027,-28,-1
192,1039,-177,-1
232,972,-111,-1
293,962,-156,-1
357,909,-131,-1
339,841,-127,-1
346,752,-127,-1
319,759,-108,-1
392,774,-369,-1
335,966,-336,-1
296,950,-203,-1
265,1010,-143,-1
283,968,-141,-1
272,915,-60,-1
243,914,-15,-1
230,1023,-6,-1
213,980,-20,-1
281,1017,0,-1
394,875,-47,-1
367,817,-47,-1
345,844,-53,-1
334,718,-73,-1
307,772,-34,-1
464,831,-318,-1
284,1164,-127,-1
340,991,-55,-1
162,968,92,-1
109,1011,41,-1
89,977,64,-1
114,918,39,-1
201,1105,-141,-1
263,913,-109,-1
350,995,-155,-1
326,972,-170,-1
293,832,-94,-1
306,798,-1,-1
301,634,-23,-1
282,667,-11,-1
429,1254,-417,-1
200,948,-167,-1
323,1007,-55,-1
265,917,-74,-1
184,917,2,-1
233,1015,-47,-1
225,954,10,-1
258,1046,43,-1
353,978,22,-1
411,801,60,-1
411,780,23,-1
391,760,-17,-1
347,832,24,-1
359,780,-25,-1
397,864,-97,-1
382,1000,-134,-1
254,1017,0,-1
223,1072,-38,-1
99,986,-54,-1
162,981,-37,-1
343,1177,-133,-1
312,890,-268,-1
375,957,-329,-1
393,986,-209,-1
342,653,-110,-1
426,715,81,-1
483,567,146,-1
237,498,-28,-1
300,797,-47,-1
374,990,88,-1
229,772,-129,-1
444,1464,-697,-1
210,922,7,-1
261,975,-91,-1
237,970,-150,-1
200,1126,-10,-1
297,1085,-58,-1
492,972,-110,-1
361,775,-109,-1
280,903,-94,-1
116,819,30,-1
197,721,73,-1
314,481,43,-1
349,756,98,-1
276,1107,42,-1
101,952,-17,-1
54,918,-154,-1
101,1436,-587,-1
213,980,-366,-1
210,842,-371,-1
393,1462,-433,-1
181,654,-443,-1
245,827,-121,-1
307,808,-81,-1
275,586,-40,-1
321,774,44,-1
264,661,-25,-1
218,839,-54,-1
282,929,-198,-1
145,882,-204,-1
395,1428,-803,-1
132,880,-198,-1
289,981,-238,-1
301,1057,-240,-1
276,930,-111,-1
412,984,-158,-1
570,874,-277,-1
366,793,-205,-1
299,752,-202,-1
287,756,-85,-1
267,661,-59,-1
330,845,-32,-1
362,896,51,-1
241,879,48,-1
161,1021,-5,-1
143,942,-119,-1
71,1123,-231,-1
138,963,-304,-1
209,1123,-355,-1
302,1030,-520,-1
287,855,-417,-1
316,1113,-188,-1
212,668,-193,-1
270,757,-42,-1
299,749,93,-1
268,705,93,-1
256,998,17,-1
199,835,-93,-1
227,971,-163,-1
210,860,-237,-1
278,1161,-550,-1
193,1137,-244,-1
225,1055,-195,-1
411,1349,-304,-1
445,907,-166,-1
651,990,30,-1
269,732,78,-1
293,597,108,-1
212,534,158,-1
167,592,201,-1
97,847,313,-1
157,1096,497,-1
108,820,512,-1
132,795,431,-1
199,1034,455,-1
141,922,332,-1
84,1133,353,-1
303,1210,271,-1
125,855,204,-1
189,952,216,-1
194,852,325,-1
137,660,450,-1
240,679,411,-1
227,664,448,-1
312,803,542,-1
307,773,607,-1
316,808,624,-1
254,723,575,-1
253,851,581,-1
133,646,480,-1
237,948,533,-1
274,1016,615,-1
317,888,656,-1
283,556,491,-1
255,591,429,-1
300,757,500,-1
339,737,436,-1
322,678,347,-1
384,745,398,-1
399,802,492,-1
216,725,600,-1
162,812,706,-1
119,845,712,-1
64,815,706,-1
201,1097,785,-1
326,846,786,-1
204,662,484,-1
256,807,482,-1
242,804,485,-1
236,767,381,-1
292,852,350,-1
229,689,262,-1
245,749,271,-1
292,727,301,-1
350,777,375,-1
409,918,519,-1
311,1005,663,-1
174,722,562,-1
230,1027,576,-1
226,1079,675,-1
349,917,766,-1
255,521,639,-1
138,440,511,-1
119,441,597,-1
201,504,629,-1
199,473,551,-1
149,480,523,-1
258,696,382,-1
86,1309,621,-1
81,1090,404,-1
76,818,185,-1
224,1418,480,-1
159,789,350,-1
241,1051,292,-1
190,1001,442,-1
157,848,436,-1
196,765,393,-1
110,622,398,-1
232,700,345,-1
192,689,302,-1
301,920,394,-1
350,1109,508,-1
288,822,385,-1
180,772,281,-1
328,1313,474,-1
281,1241,576,-1
268,704,389,-1
260,494,404,-1
190,582,446,-1
416,830,390,-1
372,649,354,-1
377,648,310,-1
402,741,301,-1
305,816,440,-1
216,961,476,-1
-14,940,410,-1
51,1176,449,-1
170,1258,471,-1
48,876,326,-1
210,894,318,-1
299,841,237,-1
297,829,218,-1
276,808,255,-1
203,787,235,-1
232,791,180,-1
254,809,174,-1
355,906,192,-1
354,972,249,-1
245,1071,270,-1
159,1167,342,-1
122,1064,338,-1
148,1216,379,-1
123,795,420,-1
45,499,336,-1
24,471,324,-1
453,1006,502,-1
448,677,630,-1
434,724,433,-1
322,657,323,-1
311,845,389,-1
194,974,372,-1
168,1068,424,-1
148,858,335,-1
155,933,458,-1
139,1191,457,-1
150,813,357,-1
209,1091,297,-1
315,752,427,-1
298,709,268,-1
386,965,395,-1
273,645,325,-1
278,733,377,-1
375,854,424,-1
400,814,463,-1
357,970,563,-1
173,769,578,-1
268,715,536,-1
288,850,519,-1
222,868,555,-1
387,848,482,-1
627,784,584,-1
672,939,638,-1
498,637,574,-1
521,475,481,-1
505,330,354,-1
488,370,215,-1
402,351,156,-1
326,405,255,-1
293,524,411,-1
339,736,549,-1
431,902,614,-1
485,1169,615,-1
531,1451,676,-1
483,1425,438,-1
417,1428,296,-1
382,1505,439,-1
219,1115,225,-1
118,837,151,-1
131,724,116,-1
181,688,86,-1
264,739,97,-1
380,853,92,-1
420,925,118,-1
502,1003,138,-1
478,953,164,-1
418,1084,139,-1
358,1240,122,-1
357,1367,220,-1
367,1387,343,-1
244,1112,353,-1
107,976,395,-1
-20,828,375,-1
-109,783,267,-1
-245,679,157,-1
-399,686,109,-1
-502,748,154,-1
-603,737,188,-1
-736,771,155,-1
-836,849,176,-1
-991,759,67,-1
-1029,692,-3,-1
-872,404,82,-1
-851,342,118,-1
-669,292,194,-1
-535,132,250,-1
-500,158,180,-1
-497,269,157,-1
-603,270,156,-1
-665,337,220,-1
-739,431,290,-1
-922,416,277,-1
-976,500,343,-1
-1034,620,397,-1
-1177,564,413,-1
-1171,579,341,-1
-883,610,305,-1
-764,646,191,-1
-688,679,246,-1
-619,546,283,-1
-597,337,269,-1
-564,260,282,-1
-591,273,289,-1
-645,292,356,-1
-771,335,338,-1
-838,439,406,-1
-920,520,414,-1
-1075,572,380,-1
-1349,596,251,-1
-1278,808,176,-1
-1157,558,323,-1
-1008,446,167,-1
-761,324,113,-1
-602,242,137,-1
-560,238,186,-1
-556,361,208,-1
-603,407,263,-1
-637,497,294,-1
-717,549,302,-1
-822,679,307,-1
-860,594,405,-1
-1026,551,381,-1
-1055,629,378,-1
-921,732,467,-1
-732,779,392,-1
-444,640,401,-1
-245,481,352,-1
-163,373,143,-1
-193,306,122,-1
-241,521,130,-1
-328,645,194,-1
-447,748,241,-1
-491,896,227,-1
-360,1098,105,-1
-271,1049,104,-1
-19,1524,20,-1
256,1501,155,-1
431,1505,107,-1
458,1429,124,-1
485,1298,210,-1
456,1056,369,-1
307,764,338,-1
250,583,290,-1
256,460,249,-1
358,406,207,-1
510,411,202,-1
691,401,221,-1
937,393,187,-1
1206,299,9,-1
1478,207,44,-1
1502,292,236,-1
1708,414,308,-1
1428,353,291,-1
1000,159,197,-1
753,103,190,-1
666,102,204,-1
648,100,186,-1
612,164,261,-1
628,283,379,-1
704,350,416,-1
1005,398,395,-1
1122,321,362,-1
1560,347,308,-1
1568,301,330,-1
1365,206,252,-1
1290,189,281,-1
1173,104,295,-1
946,61,269,-1
852,42,250,-1
835,18,216,-1
802,-18,170,-1
805,-13,151,-1
777,36,176,-1
853,67,219,-1
956,41,233,-1
1064,12,193,-1
1113,15,285,-1
1036,58,433,-1
1166,109,576,-1
1167,95,645,-1
943,-15,536,-1
688,-44,462,-1
561,-46,446,-1
553,43,416,-1
583,183,472,-1
559,338,587,-1
535,426,675,-1
814,376,617,-1
980,330,553,-1
1189,461,506,-1
1434,518,567,-1
1332,413,464,-1
1365,423,401,-1
1118,273,381,-1
952,193,371,-1
786,109,364,-1
710,29,300,-1
733,-9,243,-1
799,-44,221,-1
871,-69,195,-1
991,-33,189,-1
1089,-42,185,-1
1148,-77,86,-1
1265,-32,117,-1
1196,77,258,-1
1336,227,405,-1
1328,239,512,-1
1028,70,408,-1
771,-44,267,-1
725,-52,272,-1
777,10,253,-1
796,142,340,-1
749,290,440,-1
795,438,573,-1
1022,449,527,-1
1095,343,565,-1
1081,277,461,-1
1478,340,444,-1
1600,120,347,-1
1375,17,347,-1
1252,58,413,-1
1126,76,419,-1
971,-11,365,-1
1011,-102,293,-1
972,-176,226,-1
897,-223,172,-1
836,-207,168,-1
811,-130,166,-1
798,-37,167,-1
746,-12,204,-1
914,115,233,-1
790,305,482,-1
878,344,683,-1
1031,214,785,-1
1067,153,723,-1
945,113,651,-1
800,42,648,-1
640,83,543,-1
502,287,583,-1
375,513,707,-1
364,624,740,-1
666,606,717,-1
756,560,640,-1
763,614,511,-1
1118,882,559,-1
1359,950,449,-1
1240,907,306,-1
1145,822,175,-1
962,621,108,-1
792,588,22,-1
747,684,145,-1
683,695,40,-1
559,763,58,-1
476,872,181,-1
472,612,354,-1
490,441,397,-1
554,191,229,-1
1108,796,900,-1
1142,292,1004,-1
702,750,791,-1
201,481,670,-1
385,349,709,-1
312,361,661,-1
395,302,742,-1
312,327,740,-1
157,262,772,-1
114,186,670,-1
275,374,646,-1
682,897,845,-1
261,426,896,-1
436,411,798,-1
263,574,987,-1
429,569,967,-1
230,405,942,-1
228,510,906,-1
238,334,814,-1
252,523,756,-1
198,555,664,-1
289,421,781,-1
298,397,851,-1
305,501,937,-1
321,492,877,-1
289,396,848,-1
370,592,801,-1
394,660,900,-1
349,472,893,-1
478,318,845,-1
454,335,713,-1
483,435,585,-1
350,314,551,-1
628,543,635,-1
324,349,629,-1
502,584,765,-1
353,506,828,-1
264,436,884,-1
513,636,907,-1
173,396,912,-1
337,625,805,-1
450,817,900,-1
237,438,757,-1
440,681,746,-1
529,726,733,-1
346,386,546,-1
460,602,547,-1
480,602,529,-1
429,538,540,-1
378,609,680,-1
437,582,732,-1
318,616,650,-1
387,660,746,-1
248,589,702,-1
455,707,762,-1
394,557,882,-1
505,393,786,-1
597,529,589,-1
405,564,420,-1
594,733,362,-1
517,583,377,-1
516,431,582,-1
438,502,690,-1
306,671,711,-1
313,630,955,-1
256,553,914,-1
114,688,894,-1
152,646,916,-1
261,815,803,-1
235,575,711,-1
142,519,792,-1
669,926,645,-1
197,309,600,-1
621,580,584,-1
226,333,499,-1
503,712,513,-1
361,589,563,-1
404,731,519,-1
321,896,518,-1
382,1156,657,-1
164,460,718,-1
335,758,643,-1
340,788,789,-1
183,516,726,-1
426,726,745,-1
228,443,711,-1
468,560,697,-1
519,472,652,-1
467,287,517,-1
514,374,692,-1
467,466,641,-1
505,563,588,-1
427,590,633,-1
312,832,785,-1
247,733,915,-1
258,534,849,-1
446,822,917,-1
520,882,719,-1
441,506,557,-1
402,226,655,-1
653,554,572,-1
499,265,541,-1
590,330,471,-1
529,363,425,-1
673,615,480,-1
616,693,478,-1
544,695,480,-1
584,772,590,-1
489,754,425,-1
432,737,598,-1
420,928,543,-1
371,858,539,-1
458,688,514,-1
422,598,559,-1
315,568,642,-1
532,612,505,-1
444,552,314,-1
579,539,433,-1
534,694,337,-1
306,743,322,-1
284,978,564,-1
207,1078,467,-1
242,987,231,-1
376,1121,221,-1
378,1066,205,-1
466,868,138,-1
463,782,231,-1
472,736,266,-1
523,847,284,-1
520,819,166,-1
383,574,230,-1
565,587,276,-1
611,605,269,-1
398,666,92,-1
582,1253,89,-1
501,1111,157,-1
463,841,33,-1
503,840,87,-1
426,1015,237,-1
371,1024,310,-1
460,709,451,-1
475,533,559,-1
554,693,338,-1
469,637,260,-1
539,656,251,-1
491,567,171,-1
468,659,290,-1
501,973,247,-1
356,1170,287,-1
242,872,393,-1
271,786,388,-1
341,991,413,-1
319,1151,215,-1
362,894,203,-1
491,844,339,-1
421,849,204,-1
479,770,124,-1
520,748,234,-1
446,565,265,-1
510,553,261,-1
514,793,220,-1
444,942,125,-1
464,1097,115,-1
441,993,106,-1
448,846,128,-1
471,772,149,-1
486,1016,135,-1
362,962,350,-1
421,552,481,-1
532,589,451,-1
478,600,344,-1
511,602,353,-1
489,719,292,-1
461,803,285,-1
413,916,309,-1
281,897,434,-1
255,881,518,-1
228,757,538,-1
340,1076,248,-1
299,986,318,-1
277,958,234,-1
395,950,238,-1
469,925,186,-1
492,788,347,-1
378,560,178,-1
636,637,414,-1
567,629,244,-1
497,592,291,-1
552,700,211,-1
420,735,191,-1
557,1021,109,-1
399,1161,-165,-1
568,1229,129,-1
476,634,205,-1
529,810,302,-1
400,863,241,-1
517,838,376,-1
605,775,480,-1
325,441,291,-1
633,757,491,-1
489,653,191,-1
466,562,251,-1
621,867,355,-1
368,834,193,-1
295,870,336,-1
222,1027,109,-1
221,1279,-13,-1
346,1090,166,-1
287,906,225,-1
361,1043,236,-1
440,969,88,-1
214,620,245,-1
624,790,488,-1
288,671,79,-1
442,634,367,-1
592,768,220,-1
248,628,198,-1
462,907,160,-1
430,869,91,-1
477,1141,-158,-1
527,1067,-8,-1
445,750,-49,-1
617,1272,198,-1
113,839,272,-1
521,796,527,-1
609,666,349,-1
404,519,366,-1
661,716,301,-1
542,616,195,-1
425,579,139,-1
738,873,272,-1
401,750,79,-1
433,1012,269,-1
321,1002,242,-1
293,854,120,-1
433,1103,211,-1
228,1092,11,-1
374,1062,122,-1
441,914,141,-1
404,688,233,-1
655,862,180,-1
392,735,60,-1
513,636,209,-1
529,636,260,-1
419,611,26,-1
489,860,61,-1
575,1112,66,-1
294,717,-128,-1
275,740,113,-1
231,700,206,-1
172,819,412,-1
1511,1699,487,-1
-185,201,-435,-1
407,854,640,-1
701,1081,389,-1
204,344,205,-1
555,669,397,-1
681,1091,152,-1
395,480,-32,-1
1033,1493,668,-1
335,492,-284,-1
-18,775,-73,-1
45,1111,241,-1
69,873,574,-1
134,694,419,-1
204,1225,225,-1
313,905,233,-1
414,869,261,-1
423,804,288,-1
268,599,170,-1
278,1108,666,-1
610,295,286,-1
69,551,183,-1
981,888,536,-1
298,803,5,-1
709,861,302,-1
478,799,28,-1
406,889,340,-1
403,725,297,-1
349,1325,537,-1
495,970,370,-1
495,701,511,-1
676,642,391,-1
374,532,374,-1
646,531,497,-1
478,569,294,-1
521,643,444,-1
393,701,354,-1
379,1035,447,-1
211,838,529,-1
277,895,517,-1
76,834,538,-1
184,962,495,-1
142,896,420,-1
115,993,420,-1
213,1066,317,-1
226,843,402,-1
333,785,440,-1
295,649,382,-1
372,728,388,-1
406,758,295,-1
260,723,260,-1
382,964,347,-1
277,824,253,-1
302,853,176,-1
447,983,170,-1
407,902,162,-1
414,747,109,-1
424,1175,235,-1
343,842,452,-1
415,657,668,-1
488,694,458,-1
450,597,417,-1
548,718,226,-1
551,724,244,-1
516,708,116,-1
557,869,297,-1
366,962,124,-1
361,1189,339,-1
282,866,387,-1
232,979,412,-1
241,951,315,-1
223,932,310,-1
354,996,384,-1
370,1117,187,-1
334,751,109,-1
434,713,427,-1
409,653,292,-1
369,738,167,-1
552,954,309,-1
279,746,195,-1
419,838,342,-1
293,849,325,-1
338,839,238,-1
436,955,238,-1
256,823,207,-1
298,948,352,-1
230,921,335,-1
341,1090,440,-1
426,766,481,-1
397,651,419,-1
477,627,465,-1
503,707,327,-1
418,578,309,-1
623,777,311,-1
434,740,167,-1
468,824,372,-1
491,828,391,-1
429,776,140,-1
572,918,218,-1
529,1020,73,-1
580,847,255,-1
452,667,179,-1
568,718,265,-1
729,1054,-37,-1
718,666,10,-1
677,573,229,-1
625,724,135,-1
651,668,150,-1
694,626,210,-1
715,485,158,-1
686,464,75,-1
746,615,46,-1
719,968,-32,-1
779,689,156,-1
710,557,37,-1
715,511,-27,-1
864,799,131,-1
608,1008,203,-1
575,767,-3,-1
894,548,63,-1
594,418,-70,-1
745,387,217,-1
773,290,-78,-1
771,467,-65,-1
890,515,-115,-1
825,489,-68,-1
778,700,29,-1
696,857,-92,-1
787,794,-108,-1
771,642,-229,-1
803,734,-199,-1
814,756,-31,-1
595,693,-28,-1
718,586,-186,-1
784,529,0,-1
736,575,119,-1
756,747,-59,-1
629,427,35,-1
760,542,-25,-1
908,534,60,-1
666,852,-129,-1
902,834,115,-1
621,515,-62,-1
648,618,103,-1
880,654,152,-1
741,481,95,-1
827,670,456,-1
693,624,96,-1
781,413,332,-1
532,362,95,-1
733,321,418,-1
897,431,212,-1
797,376,110,-1
860,332,99,-1
822,540,189,-1
680,618,398,-1
549,735,312,-1
718,826,306,-1
730,841,133,-1
680,894,65,-1
870,813,120,-1
699,831,45,-1
528,436,207,-1
826,559,325,-1
760,570,85,-1
812,434,100,-1
746,280,137,-1
864,342,84,-1
785,469,78,-1
847,462,146,-1
788,658,121,-1
744,774,125,-1
805,1015,54,-1
762,716,66,-1
750,583,-9,-1
932,841,292,-1
609,574,269,-1
699,513,190,-1
806,524,142,-1
643,374,203,-1
844,300,251,-1
789,187,188,-1
808,248,141,-1
831,360,215,-1
690,513,275,-1
664,720,311,-1
624,857,245,-1
1076,962,146,-1
638,843,-45,-1
785,561,93,-1
866,777,64,-1
754,738,-3,-1
742,678,10,-1
769,562,111,-1
615,235,214,-1
764,237,273,-1
776,505,137,-1
798,396,134,-1
784,343,112,-1
772,511,184,-1
671,741,161,-1
815,1055,360,-1
929,991,32,-1
680,672,128,-1
612,558,228,-1
562,620,223,-1
677,789,317,-1
648,760,289,-1
768,632,286,-1
700,411,167,-1
765,498,299,-1
661,554,244,-1
643,474,197,-1
713,438,347,-1
704,487,127,-1
688,693,332,-1
567,756,246,-1
643,721,303,-1
679,743,153,-1
686,884,175,-1
670,871,146,-1
759,886,161,-1
586,787,101,-1
610,401,353,-1
706,350,290,-1
745,372,135,-1
835,606,131,-1
822,480,141,-1
781,412,198,-1
775,551,277,-1
690,613,221,-1
704,574,285,-1
679,612,231,-1
672,821,292,-1
696,805,213,-1
745,794,186,-1
712,812,191,-1
605,731,132,-1
630,726,208,-1
620,888,218,-1
610,854,266,-1
699,481,359,-1
698,360,221,-1
763,475,254,-1
715,552,142,-1
772,610,226,-1
627,607,170,-1
733,659,401,-1
634,513,273,-1
683,762,259,-1
610,498,277,-1
638,780,157,-1
665,875,227,-1
569,872,188,-1
644,797,209,-1
518,800,224,-1
689,845,147,-1
655,949,179,-1
657,674,207,-1
545,543,119,-1
768,495,85,-1
693,550,124,-1
655,531,142,-1
685,690,134,-1
682,709,112,-1
648,738,182,-1
