AccX [mg],AccY,AccZ,Ground Truth
80,744,-141,0
-19,666,-107,0
-64,690,-26,0
-42,636,31,0
-45,828,182,0
130,516,513,0
266,767,432,0
220,848,831,0
-180,993,861,0
-432,1263,482,0
-395,1159,317,0
-200,1039,244,0
-53,934,178,0
45,783,131,0
58,854,130,0
58,854,130,0
58,854,130,0
28,763,300,0
26,672,452,0
-129,910,571,0
-238,829,456,0
-268,818,486,0
-225,892,577,0
-204,845,593,0
-156,996,607,0
-157,1002,757,0
-101,895,901,0
-115,1206,807,0
-112,1068,654,0
-160,844,486,0
-166,790,342,0
-259,745,356,0
-354,806,333,0
-322,584,622,0
-322,584,622,0
-339,520,727,0
-399,583,676,0
-446,603,682,0
-446,641,701,0
-536,705,668,0
-517,516,656,0
-480,458,718,0
-418,795,674,0
-397,885,638,0
-396,851,580,0
-376,1477,238,0
-162,946,305,0
-88,751,220,0
120,701,420,0
205,757,316,0
285,1111,102,0
156,947,-142,0
-224,1107,-82,0
-224,1107,-82,0
-257,871,232,0
-118,286,692,0
-39,553,1079,0
-279,371,1035,0
-416,676,841,0
-441,547,861,0
-554,259,1009,0
-439,726,487,0
-265,1198,577,0
-26,866,1046,0
223,1367,944,0
169,966,671,0
229,413,706,0
173,190,864,0
-30,137,938,0
-197,56,926,0
-352,35,834,0
-485,279,686,0
-485,279,686,0
-556,155,704,0
-691,97,493,0
-708,442,164,0
-743,657,-55,0
-609,1059,-407,0
-486,1216,-605,0
-445,1430,-508,0
-335,1290,-575,0
-176,1073,-637,0
-146,1030,-693,0
23,699,-433,0
195,970,-421,0
209,892,-353,0
-437,758,-589,0
-232,647,-245,0
-92,513,-96,0
6,357,282,0
160,899,518,0
160,899,518,0
-48,988,663,0
-46,1079,496,0
-137,1205,298,0
-130,1166,236,0
-147,1535,-31,0
-33,1373,-17,0
-79,990,150,0
-119,1149,32,0
-135,996,34,0
-121,854,99,0
-69,875,120,0
-44,777,157,0
-11,870,160,0
-22,848,117,0
48,802,271,0
127,922,520,0
252,1123,527,0
-14,1155,442,0
-14,1155,442,0
-407,941,-655,0
-77,396,-243,0
-83,679,295,0
-39,883,117,0
115,1161,-156,0
63,998,-167,0
13,984,-159,0
-71,1043,-195,0
-78,992,-110,0
-60,943,-85,0
-18,884,-76,0
20,767,-86,0
59,786,-80,0
44,824,-137,0
34,947,-162,0
83,1111,-243,0
153,1196,-320,0
288,1078,-546,0
288,1078,-546,0
326,1108,-645,0
258,1069,-695,0
250,872,-674,0
231,730,-513,0
144,701,-588,0
261,521,-490,0
251,581,-485,0
263,567,-446,0
221,543,-434,0
156,591,-422,0
124,792,-379,0
141,892,-426,0
92,934,-460,0
28,934,-405,0
78,1072,-469,0
207,1125,-537,0
356,1006,-444,0
466,771,-382,0
466,771,-382,0
466,771,-382,0
386,680,-212,0
373,659,-207,0
394,602,-195,0
332,627,-194,0
218,703,-216,0
103,718,-221,0
24,792,-251,0
3,874,-302,0
27,941,-298,0
65,935,-248,0
97,954,-234,0
139,998,-260,0
185,1030,-330,0
238,999,-324,0
254,1013,-311,0
233,1011,-331,0
344,1245,-467,0
527,1145,-440,0
542,817,-268,0
383,779,-281,0
318,785,-373,0
353,740,-394,0
309,679,-325,0
224,609,-269,0
176,665,-293,0
172,716,-303,0
185,804,-255,0
127,831,-259,0
45,874,-315,0
11,928,-340,0
27,1017,-449,0
95,996,-577,0
219,997,-707,0
305,948,-688,0
381,809,-761,0
298,677,-790,0
333,572,-738,0
387,504,-610,0
358,439,-543,0
343,448,-550,0
294,599,-413,0
211,575,-507,0
118,848,-433,0
196,1204,-77,0
329,1373,32,0
486,1351,-13,0
334,1374,359,0
37,1126,542,0
-187,1328,391,0
-424,1217,138,0
-549,958,79,0
-748,790,70,0
-842,590,57,0
-993,422,148,0
-1120,409,86,0
-1026,181,263,0
-761,212,330,0
-553,30,371,0
-439,-24,277,0
-452,-64,306,0
-568,-78,319,0
-687,25,404,0
-820,83,645,0
-1095,6,778,0
-1161,192,959,0
-898,-16,1004,0
-893,-34,953,0
-745,-65,760,0
-702,-47,583,0
-648,26,412,0
-648,-21,312,0
-678,-40,371,0
-747,31,454,0
-818,36,589,0
-912,75,728,0
-1002,114,776,0
-1066,47,806,0
-1150,110,800,0
-1193,222,688,0
-1153,288,579,0
-1086,268,393,0
-995,285,326,0
-824,349,413,0
-683,142,364,0
-639,77,374,0
-697,127,385,0
-784,159,401,0
-876,229,486,0
-969,210,551,0
-1043,132,527,0
-1128,137,521,0
-1154,123,569,0
-1095,98,651,0
-1121,126,763,0
-988,157,751,0
-793,143,622,0
-657,198,548,0
-653,137,522,0
-660,59,528,0
-687,16,541,0
-691,-150,500,0
-775,-99,480,0
-820,-123,446,0
-765,-275,448,0
-736,-281,512,0
-805,-280,534,0
-893,-225,559,0
-966,-259,631,0
-998,-270,646,0
-998,-343,617,0
-997,-252,528,0
-1073,-145,346,0
-1046,-184,263,0
-986,-124,267,0
-887,-111,181,0
-823,-78,87,0
-802,-21,35,0
-761,26,79,0
-669,130,152,0
-658,206,207,0
-593,350,287,0
-589,372,400,0
-505,609,594,0
-363,758,711,0
-189,792,797,0
26,737,734,0
261,702,745,0
411,819,693,0
601,520,493,0
781,299,377,0
1090,315,381,0
1361,385,323,0
1569,402,132,0
1571,495,30,0
1332,544,81,0
1154,505,88,0
1068,585,50,0
983,650,17,0
904,595,43,0
832,486,116,0
828,502,182,0
881,547,277,0
1145,504,270,0
1028,527,314,0
1132,610,394,0
1104,637,386,0
994,528,298,0
938,462,254,0
1092,427,216,0
1213,362,161,0
1196,348,100,0
1101,277,-27,0
1008,396,-41,0
862,499,-198,0
748,460,-267,0
621,451,-331,0
497,98,-309,0
750,266,-313,0
1047,776,-187,0
1236,1007,-13,0
1263,1047,68,0
1127,1016,202,0
964,460,301,0
755,331,355,0
573,356,277,0
588,314,81,0
589,173,-59,0
595,313,-116,0
489,426,-20,0
460,826,-94,0
533,517,-94,0
637,685,-28,0
650,726,165,0
615,916,182,0
589,829,72,0
591,843,272,0
545,782,247,0
675,656,-35,0
635,1346,-289,0
638,1085,-349,0
666,568,-512,0
507,468,-536,0
312,800,-300,0
400,667,-441,0
349,800,-514,0
288,571,-602,0
304,590,-647,0
294,621,-624,0
341,570,-575,0
458,518,-537,0
501,559,-508,0
572,562,-544,0
618,555,-608,0
668,645,-700,0
658,909,-793,0
662,755,-803,0
735,663,-790,0
744,203,-544,0
631,189,-604,0
298,226,-730,0
189,74,-895,0
211,631,-854,0
193,544,-919,0
298,-93,-676,0
243,177,-623,0
160,462,-646,0
327,858,-527,0
570,710,-232,0
696,448,-67,0
812,604,-91,0
783,972,-322,0
896,37,-213,0
940,83,-239,0
820,558,-406,0
1127,-183,-421,0
1678,625,-472,0
1233,184,-594,0
684,-198,-940,0
751,54,-727,0
978,771,-1084,0
555,-478,205,0
734,430,199,0
1176,848,417,0
1330,589,314,0
1512,687,34,0
1433,489,173,0
1055,495,156,0
744,1070,34,0
593,1038,-68,0
362,831,-33,0
644,1027,179,0
556,1431,-48,0
607,870,1,0
490,754,333,0
561,831,650,0
763,784,892,0
825,363,924,0
584,-119,896,0
252,299,1088,0
139,482,960,0
155,607,677,0
364,552,588,0
655,776,145,0
851,157,-132,0
341,112,1,0
-182,450,376,0
-355,413,706,0
-554,-114,884,0
-331,-661,1672,0
-689,-699,1293,0
-1164,-463,-148,0
-1293,-840,-243,0
-669,-1794,256,0
-158,-652,-84,0
-347,334,-33,0
-296,56,60,0
-103,25,12,0
-122,767,-23,0
-463,1417,188,0
-520,1309,417,0
-137,1330,867,0
-112,1606,561,0
-198,1737,497,0
-84,1373,218,0
72,1075,213,0
221,1069,161,0
313,1194,2,0
283,1148,-53,0
319,750,-101,0
435,701,-139,0
318,825,-10,0
231,461,-26,0
221,549,-92,0
122,435,-60,0
37,440,-277,0
-25,932,-543,0
22,893,-581,0
150,963,-619,0
231,853,-600,0
324,758,-730,0
322,879,-806,0
331,899,-883,0
184,1295,-1197,0
93,1064,-916,0
15,980,-686,0
-87,554,-596,0
-144,352,-451,0
-31,523,-447,0
182,791,-402,0
203,541,-296,0
193,429,-225,0
245,959,-336,0
188,1215,-287,0
185,892,-215,0
241,1063,-143,0
249,1349,-114,0
278,1172,-67,0
378,1184,-151,0
411,1180,-262,0
372,1192,-269,0
372,1135,-54,0
480,605,15,0
509,762,-2,0
238,723,-10,0
311,110,90,0
314,361,364,0
143,898,259,0
126,246,291,0
281,107,404,0
392,314,474,0
531,541,744,0
558,73,677,0
831,907,929,0
842,821,1110,0
762,936,1085,0
880,960,1161,0
795,625,904,0
589,230,693,0
471,561,812,0
454,809,771,0
567,1224,697,0
734,744,729,0
675,660,734,0
608,652,770,0
510,531,731,0
459,405,689,0
434,304,668,0
431,144,736,0
470,190,913,0
497,80,966,0
530,-49,1032,0
482,14,1089,0
471,-104,1034,0
420,-117,908,0
362,-64,807,0
359,-43,818,0
325,-85,759,0
279,-89,786,0
254,-125,829,0
221,-167,839,0
181,-193,869,0
134,-216,902,0
104,-226,928,0
71,-231,933,0
65,-196,1035,0
72,-193,1119,0
59,-206,1148,0
25,-159,1226,0
73,-58,1316,0
104,-49,1239,0
59,-98,1067,0
-39,60,957,0
-58,199,966,0
-5,38,922,0
-9,71,908,0
-74,138,921,0
-104,125,947,0
-121,284,870,0
-171,647,840,0
-141,575,836,0
-129,384,852,0
-139,519,886,0
-152,613,885,0
-116,626,899,0
-73,543,875,0
-67,464,834,0
-26,532,765,0
125,502,589,0
196,282,371,0
257,169,248,0
434,189,199,0
657,253,214,0
843,331,254,0
973,358,224,0
1251,393,168,0
1559,457,147,0
1738,726,192,0
1683,931,323,0
1449,892,243,0
1177,607,68,0
1094,426,93,0
1069,371,127,0
1049,378,130,0
968,549,158,0
838,704,145,0
771,745,151,0
737,651,137,0
907,601,104,0
1088,549,101,0
1163,452,73,0
1192,396,73,0
1200,359,68,0
1212,363,62,0
1182,350,62,0
1087,298,36,0
992,242,28,0
975,388,65,0
1079,732,237,0
930,574,382,0
736,533,355,0
606,460,353,0
483,486,414,0
386,607,458,0
406,509,346,0
506,461,247,0
518,383,198,0
483,359,184,0
451,322,186,0
479,315,197,0
560,340,212,0
708,394,221,0
917,412,262,0
1075,406,317,0
1225,426,320,0
1338,407,295,0
1439,449,320,0
1364,481,326,0
1424,553,345,0
1215,656,380,0
947,630,360,0
700,510,294,0
749,486,250,0
1001,451,282,0
1172,312,215,0
1262,223,165,0
1143,219,121,0
960,292,97,0
789,362,91,0
702,412,77,0
702,442,32,0
778,396,-2,0
863,367,-9,0
927,371,37,0
1022,386,107,0
1121,411,122,0
1003,429,185,0
871,427,319,0
764,400,384,0
764,346,318,0
791,317,284,0
698,262,308,0
675,299,334,0
681,276,348,0
716,433,429,0
682,581,288,0
640,767,14,0
516,881,-349,0
421,1386,-571,0
448,1255,-592,0
544,920,-520,0
586,697,-608,0
621,606,-785,0
612,552,-805,0
572,451,-751,0
471,454,-671,0
466,406,-711,0
455,377,-768,0
430,360,-742,0
366,385,-758,0
299,373,-723,0
235,375,-706,0
153,410,-739,0
36,477,-755,0
-10,558,-774,0
44,634,-766,0
98,671,-778,0
140,716,-817,0
105,702,-810,0
86,628,-931,0
16,596,-935,0
-39,512,-909,0
-84,485,-828,0
1,505,-704,0
89,509,-695,0
88,535,-690,0
-48,429,-725,0
-179,337,-778,0
-284,418,-756,0
-313,629,-660,0
-255,493,-595,0
-240,347,-591,0
-267,188,-731,0
-208,424,-816,0
-273,649,-770,0
-265,488,-838,0
-307,430,-858,0
-261,471,-881,0
-159,548,-1035,0
-37,665,-1074,0
-32,668,-938,0
-19,634,-721,0
-14,789,-587,0
59,804,-356,0
50,699,-143,0
52,631,-46,0
27,675,4,0
78,778,80,0
197,822,189,0
321,925,213,0
442,887,170,0
594,759,115,0
772,614,117,0
1050,588,159,0
1313,637,194,0
1273,661,297,0
1153,551,366,0
1011,504,305,0
1021,596,116,0
1024,323,179,0
887,98,250,0
816,220,216,0
737,261,139,0
650,279,12,0
570,381,-45,0
525,424,19,0
519,430,91,0
483,486,225,0
488,393,315,0
631,377,346,0
849,350,410,0
1191,317,366,0
1578,499,391,0
1468,591,385,0
956,515,297,0
859,402,194,0
939,378,168,0
888,375,147,0
781,348,160,0
699,344,168,0
697,397,130,0
738,445,74,0
801,474,61,0
923,623,89,0
1042,578,101,0
1105,694,135,0
1123,832,156,0
1007,748,175,0
893,704,146,0
731,656,149,0
612,581,211,0
542,521,260,0
560,483,251,0
593,436,206,0
526,397,185,0
426,459,221,0
367,578,274,0
351,653,267,0
330,705,282,0
332,784,331,0
347,842,304,0
368,885,289,0
371,891,313,0
394,981,325,0
432,993,313,0
466,986,292,0
527,1156,271,0
584,1143,239,0
519,887,226,0
434,840,198,0
447,833,182,0
422,801,147,0
372,748,147,0
322,666,162,0
293,714,193,0
320,780,240,0
340,796,247,0
351,787,268,0
367,833,293,0
416,923,324,0
487,983,379,0
499,869,407,0
584,962,371,0
554,798,339,0
447,581,345,0
477,496,341,0
620,408,290,0
693,353,201,0
683,334,184,0
684,345,181,0
755,380,160,0
849,410,158,0
850,461,188,0
833,454,204,0
914,444,185,0
1049,463,196,0
1162,478,217,0
1087,436,218,0
1049,408,201,0
1200,604,293,0
1104,689,297,0
850,532,236,0
937,556,295,0
1042,457,306,0
960,303,175,0
818,208,112,0
727,256,119,0
716,361,120,0
749,411,66,0
792,375,20,0
867,326,16,0
1012,301,40,0
1161,307,70,0
1131,308,100,0
1216,363,85,0
1053,377,120,0
857,402,249,0
680,373,343,0
720,361,316,0
843,312,284,0
815,219,246,0
749,193,276,0
713,258,295,0
708,305,272,0
681,367,272,0
644,394,290,0
666,399,284,0
786,411,302,0
953,426,332,0
1074,438,349,0
1163,419,320,0
1281,509,349,0
1204,529,351,0
977,447,304,0
858,382,219,0
893,392,188,0
860,407,173,0
771,369,132,0
743,336,93,0
756,340,62,0
789,339,53,0
806,299,77,0
798,147,-43,0
878,-234,-29,0
988,454,-183,0
963,977,-249,0
946,932,60,0
998,1053,-226,0
873,978,-484,0
1043,-228,122,0
1101,-281,179,0
856,1125,-928,0
741,1458,-617,0
225,300,317,0
133,-336,540,0
211,253,197,0
396,704,-280,0
572,527,-498,0
722,568,303,0
1066,113,756,0
1157,204,486,0
1302,511,298,0
1251,733,159,0
1025,581,3,0
1167,610,-16,0
1159,718,100,0
903,502,108,0
840,524,71,0
858,507,36,0
805,456,45,0
786,397,35,0
835,363,26,0
885,372,66,0
895,424,181,0
942,443,264,0
1060,390,261,0
1116,287,193,0
1141,170,181,0
1060,159,227,0
988,184,200,0
984,256,144,0
767,304,116,0
602,357,121,0
677,509,180,0
803,556,163,0
805,397,118,0
762,254,164,0
746,219,173,0
784,273,166,0
802,341,218,0
781,403,319,0
788,468,420,0
899,522,465,0
1022,490,424,0
990,451,383,0
1127,507,333,0
1197,680,358,0
1120,630,217,0
1074,486,100,0
1086,351,108,0
974,285,114,0
890,305,101,0
838,357,62,0
804,382,27,0
759,370,14,0
695,328,18,0
685,307,35,0
764,316,65,0
901,350,106,0
997,340,159,0
1108,339,211,0
1195,340,219,0
954,304,246,0
806,342,300,0
919,430,287,0
1040,390,214,0
917,251,146,0
759,244,155,0
703,282,154,0
709,372,119,0
727,439,111,0
675,439,144,0
719,421,196,0
838,456,251,0
979,512,304,0
1112,529,330,0
1426,638,400,0
1249,552,417,0
1005,315,287,0
966,294,248,0
969,350,281,0
894,383,260,0
790,371,194,0
730,312,130,0
688,295,78,0
683,301,47,0
730,330,52,0
839,339,66,0
955,305,45,0
1063,268,20,0
1050,299,45,0
1230,395,56,0
1102,440,88,0
815,445,181,0
720,463,311,0
836,409,339,0
854,143,224,0
784,4,210,0
746,66,322,0
756,177,338,0
776,304,288,0
829,406,316,0
922,437,317,0
1055,452,305,0
1088,453,308,0
960,402,271,0
1121,526,307,0
1167,673,371,0
1062,587,210,0
1076,560,114,0
1068,429,88,0
1012,315,99,0
945,308,67,0
912,358,38,0
895,397,13,0
871,389,-4,0
835,327,-9,0
811,298,6,0
857,293,36,0
863,290,65,0
837,261,86,0
985,340,115,0
986,275,99,0
932,303,111,0
907,330,137,0
1091,404,381,0
1040,201,375,0
951,357,292,0
808,412,271,0
754,465,211,0
762,466,257,0
772,452,327,0
718,315,371,0
822,304,322,0
978,294,128,0
1066,315,55,0
1021,306,82,0
1157,431,163,0
1271,557,377,0
1130,451,404,0
997,372,279,0
1064,415,232,0
1056,389,218,0
911,333,176,0
803,296,143,0
741,288,114,0
717,298,78,0
727,311,54,0
746,293,36,0
842,297,34,0
978,299,35,0
1044,305,43,0
1038,365,91,0
1195,413,84,0
1106,375,102,0
830,348,175,0
900,438,296,0
989,446,293,0
867,237,169,0
715,141,148,0
681,199,242,0
707,317,266,0
768,535,233,0
801,881,276,0
797,1066,358,0
710,1233,420,0
601,1306,397,0
564,1259,398,0
450,1292,380,0
435,1629,383,0
438,1341,324,0
260,1266,265,0
136,1162,172,0
26,953,123,0
-47,628,74,0
-143,467,34,0
-217,335,64,0
-311,315,40,0
-453,244,107,0
-570,207,244,0
-695,269,332,0
-818,261,423,0
-979,424,435,0
-1159,431,423,0
-1103,374,617,0
-993,494,520,0
-791,581,442,0
-585,466,415,0
-518,298,412,0
-559,296,417,0
-652,271,429,0
-759,212,345,0
-818,280,366,0
-842,237,461,0
-864,213,458,0
-897,378,516,0
-925,431,578,0
-948,381,564,0
-1023,333,537,0
-1186,449,472,0
-1156,446,396,0
-995,425,403,0
-929,339,277,0
-898,364,156,0
-775,330,149,0
-712,319,160,0
-711,285,177,0
-756,278,202,0
-799,335,250,0
-825,377,345,0
-898,322,400,0
-979,341,409,0
-1038,398,436,0
-1076,425,482,0
-1057,440,542,0
-1068,392,554,0
-1006,426,599,0
-783,495,580,0
-626,508,533,0
-547,499,533,0
-521,463,524,0
-563,368,503,0
-643,283,475,0
-681,204,464,0
-724,215,478,0
-735,240,493,0
-748,233,503,0
-796,232,503,0
-899,252,518,0
-987,324,560,0
-1107,370,538,0
-1189,490,510,0
-1077,497,425,0
-903,569,443,0
-842,414,354,0
-839,437,235,0
-758,439,202,0
-721,417,220,0
-759,344,243,0
-794,299,279,0
-812,331,313,0
-833,365,346,0
-836,373,373,0
-852,351,422,0
-931,326,490,0
-1009,437,587,0
-1022,504,651,0
-1029,449,602,0
-950,387,551,0
-867,418,549,0
-697,482,530,0
-567,439,517,0
-561,469,525,0
-532,479,545,0
-557,439,580,0
-625,321,578,0
-657,254,572,0
-689,243,553,0
-722,234,521,0
-743,253,533,0
-776,237,540,0
-813,241,559,0
-897,261,569,0
-973,274,591,0
-1016,244,592,0
-1136,351,567,0
-1102,430,475,0
-906,580,469,0
-846,466,355,0
-852,496,281,0
-776,447,248,0
-736,399,265,0
-742,309,283,0
-742,263,289,0
-769,297,307,0
-772,311,351,0
-809,364,403,0
-875,325,418,0
-955,336,407,0
-940,359,443,0
-881,417,515,0
-817,517,594,0
-671,429,609,0
-481,227,460,0
-137,120,327,0
167,245,277,0
436,383,305,0
678,556,317,0
809,811,363,0
872,633,282,0
1162,575,162,0
1421,496,101,0
1613,558,73,0
1566,826,125,0
1368,863,141,0
1228,740,145,0
1178,583,218,0
1145,534,235,0
1220,584,256,0
1069,632,291,0
953,644,303,0
867,553,288,0
931,484,234,0
1075,440,226,0
973,339,167,0
816,314,110,0
736,374,85,0
760,467,38,0
803,448,-33,0
842,419,-84,0
911,401,-55,0
1007,384,-22,0
973,365,-13,0
897,307,27,0
1075,375,84,0
1159,416,160,0
1108,408,267,0
954,409,440,0
804,325,463,0
781,230,377,0
830,199,318,0
833,227,264,0
817,276,280,0
789,320,291,0
754,339,237,0
707,351,188,0
699,418,184,0
705,459,213,0
728,435,219,0
817,427,223,0
932,399,253,0
1035,408,261,0
1102,462,284,0
1217,533,316,0
1206,578,396,0
1144,541,355,0
948,325,260,0
961,261,261,0
966,342,283,0
824,372,196,0
686,410,109,0
686,605,40,0
891,895,-42,0
1072,1126,133,0
1039,1843,386,0
1029,1738,340,0
853,1614,412,0
632,1212,351,0
470,837,334,0
220,289,230,0
13,77,125,0
-43,-61,76,0
-65,-174,65,0
-2,-178,103,0
113,-44,158,0
287,50,180,0
534,153,251,0
832,319,182,0
1282,1170,294,0
1332,788,282,0
1610,894,312,0
1669,746,219,0
1766,665,184,0
1781,911,279,0
1485,999,203,0
1250,799,149,0
1117,721,189,0
1081,573,163,0
1062,593,163,0
904,627,213,0
850,615,309,0
826,587,278,0
1037,551,242,0
1182,439,192,0
1042,434,97,0
895,401,77,0
838,560,81,0
798,588,21,0
737,475,-56,0
738,545,-59,0
774,575,-2,0
804,509,57,0
882,471,86,0
934,395,116,0
977,339,121,0
988,333,166,0
997,336,254,0
951,350,328,0
967,381,364,0
1043,385,353,0
984,308,291,0
867,227,253,0
800,248,250,0
778,282,223,0
762,357,186,0
755,437,186,0
725,475,205,0
716,504,227,0
787,493,226,0
938,472,239,0
1048,442,256,0
1181,445,348,0
1244,518,346,0
983,385,275,0
925,342,206,0
1009,389,191,0
912,414,119,0
782,446,-17,0
738,528,-141,0
712,497,-263,0
683,444,-256,0
638,468,-210,0
664,559,-137,0
775,666,-119,0
851,687,-79,0
933,581,-31,0
966,516,51,0
980,494,115,0
1020,649,297,0
1105,533,505,0
938,430,-14,0
937,439,102,0
961,666,291,0
708,951,63,0
442,510,-289,0
382,161,-424,0
458,317,-89,0
458,508,29,0
557,561,5,0
661,778,221,0
606,825,312,0
626,812,321,0
650,972,301,0
674,1037,267,0
727,1139,258,0
712,1200,241,0
648,1055,214,0
498,700,212,0
429,717,244,0
420,736,279,0
411,712,256,0
374,733,198,0
315,707,163,0
268,702,150,0
248,774,145,0
235,879,195,0
206,858,278,0
210,867,350,0
261,878,369,0
377,841,375,0
496,762,415,0
591,724,380,0
618,647,318,0
633,536,309,0
718,506,323,0
816,425,314,0
956,378,279,0
1134,335,227,0
1087,303,174,0
955,294,159,0
852,333,150,0
786,380,130,0
736,445,117,0
715,481,127,0
724,493,164,0
799,479,218,0
909,451,271,0
987,396,271,0
1053,408,271,0
1292,570,330,0
1332,718,364,0
1314,802,366,0
1165,791,346,0
1166,964,332,0
1119,1154,283,0
971,1051,235,0
729,1115,165,0
504,1009,66,0
307,933,30,0
88,660,-76,0
-52,573,-126,0
-203,447,-73,0
-335,313,66,0
-451,366,195,0
-581,296,396,0
-679,360,468,0
-745,322,548,0
-861,309,555,0
-979,453,554,0
-861,504,473,0
-657,511,378,0
-541,459,360,0
-613,667,386,0
-715,614,384,0
-761,458,446,0
-768,182,521,0
-795,161,466,0
-757,67,481,0
-716,39,427,0
-727,11,496,0
-810,162,415,0
-887,90,407,0
-914,-5,429,0
-967,63,475,0
-1114,176,429,0
-1148,286,325,0
-1002,371,247,0
-800,225,282,0
-745,502,246,0
-609,369,112,0
-341,548,148,0
-139,455,163,0
-12,704,241,0
43,902,255,0
71,1153,403,0
159,795,521,0
214,821,760,0
362,594,855,0
584,571,880,0
762,491,809,0
935,365,675,0
1164,312,536,0
1314,277,421,0
1205,340,351,0
1149,462,303,0
1178,506,240,0
1093,400,107,0
905,440,92,0
768,446,135,0
697,469,106,0
659,446,110,0
635,427,130,0
640,444,199,0
667,446,246,0
750,495,315,0
882,529,363,0
986,508,400,0
998,518,426,0
1131,605,479,0
1083,542,479,0
956,505,430,0
819,463,343,0
879,454,265,0
927,433,170,0
838,397,80,0
794,408,34,0
784,386,-3,0
815,399,-17,0
851,373,-12,0
872,374,26,0
894,365,77,0
976,362,131,0
1018,335,162,0
1032,324,197,0
1005,330,275,0
1175,363,301,0
1069,288,317,0
847,264,372,0
750,332,402,0
877,365,368,0
955,281,304,0
853,275,236,0
767,292,226,0
718,340,209,0
686,363,185,0
650,377,186,0
640,401,214,0
657,423,235,0
688,426,261,0
768,441,290,0
939,487,306,0
995,460,300,0
892,472,293,0
1322,706,331,0
1300,614,276,0
983,475,204,0
895,463,233,0
812,411,139,0
797,389,115,0
776,381,36,0
799,381,-10,0
856,359,-31,0
879,333,-9,0
897,325,55,0
936,335,91,0
999,330,142,0
1053,343,176,0
1010,325,261,0
1060,314,306,0
1066,278,282,0
935,313,318,0
874,342,388,0
921,351,311,0
994,323,257,0
888,283,200,0
769,278,190,0
708,311,181,0
688,335,160,0
666,301,172,0
656,347,228,0
639,323,260,0
664,401,291,0
736,436,324,0
853,451,337,0
970,605,337,0
1034,460,357,0
1267,547,418,0
1212,588,384,0
989,482,252,0
749,492,172,0
881,504,161,0
956,428,105,0
926,293,63,0
925,288,46,0
930,305,23,0
913,289,5,0
922,327,-24,0
929,380,-14,0
924,408,71,0
875,341,175,0
902,337,207,0
948,348,232,0
1006,259,277,0
1091,255,286,0
1044,258,373,0
940,320,392,0
818,316,355,0
854,298,324,0
950,290,300,0
934,288,228,0
875,261,174,0
807,277,187,0
738,324,174,0
671,342,163,0
630,361,215,0
614,365,249,0
643,401,270,0
729,384,331,0
796,362,372,0
878,365,379,0
965,325,373,0
1150,363,311,0
1354,437,328,0
1285,412,376,0
1035,329,312,0
924,368,205,0
993,414,184,0
964,397,129,0
889,335,59,0
815,292,33,0
777,305,27,0
775,298,12,0
771,325,9,0
797,346,0,0
816,345,7,0
838,328,71,0
826,325,164,0
872,320,182,0
975,259,164,0
1118,235,257,0
1355,314,253,0
1273,390,304,0
1165,424,376,0
936,383,266,0
997,446,224,0
979,288,174,0
847,236,133,0
760,271,84,0
726,185,38,0
616,-1,107,0
635,171,135,0
643,197,91,0
688,377,209,0
709,331,299,0
742,378,266,0
824,485,293,0
902,451,323,0
981,461,309,0
1066,485,283,0
1239,550,299,0
1175,518,289,0
1039,478,202,0
904,409,181,0
958,423,175,0
915,440,97,0
845,371,41,0
808,364,-5,0
777,359,-3,0
753,334,19,0
739,315,39,0
745,340,57,0
768,346,85,0
838,337,95,0
1038,325,94,0
1171,308,111,0
1179,224,156,0
1260,294,193,0
1184,298,221,0
1038,343,268,0
889,410,299,0
847,283,260,0
873,214,229,0
849,148,191,0
777,133,145,0
748,173,142,0
724,230,134,0
722,244,144,0
739,292,169,0
776,330,192,0
870,429,241,0
982,486,235,0
1038,509,234,0
1034,554,279,0
1122,613,284,0
1160,649,323,0
1022,565,329,0
824,500,316,0
893,472,271,0
963,465,176,0
923,449,100,0
827,379,-13,0
810,366,15,0
822,330,-45,0
879,311,-54,0
927,317,-18,0
949,396,-11,0
1013,184,66,0
1090,183,118,0
1187,203,120,0
1318,230,202,0
1154,226,274,0
954,279,395,0
780,263,408,0
841,111,384,0
925,88,343,0
872,31,234,0
807,285,139,0
747,314,207,0
712,201,157,0
691,289,129,0
681,350,195,0
675,329,239,0
739,422,271,0
911,464,308,0
1062,469,313,0
1178,495,323,0
1283,556,350,0
1178,522,360,0
1029,476,339,0
827,452,346,0
855,445,314,0
893,427,242,0
841,366,140,0
784,331,84,0
768,353,58,0
769,361,26,0
784,340,3,0
833,347,25,0
898,397,13,0
946,340,90,0
968,321,116,0
1033,362,134,0
1121,251,269,0
1084,246,257,0
1122,290,260,0
1130,258,320,0
858,175,278,0
759,291,319,0
903,335,313,0
1027,227,242,0
889,160,199,0
750,236,185,0
698,278,226,0
653,224,220,0
651,192,256,0
638,200,273,0
665,299,301,0
721,308,309,0
857,334,319,0
977,379,333,0
1038,374,326,0
1295,487,354,0
1289,581,394,0
1182,515,287,0
885,437,179,0
870,450,153,0
937,486,137,0
874,312,101,0
860,240,97,0
873,311,110,0
860,299,91,0
862,315,70,0
846,304,80,0
828,339,114,0
835,341,177,0
908,352,155,0
1002,301,206,0
1023,203,281,0
948,158,306,0
1053,210,325,0
1065,251,265,0
822,254,199,0
852,402,269,0
986,460,297,0
975,320,221,0
828,219,181,0
731,266,197,0
703,337,190,0
702,349,200,0
686,335,227,0
735,366,257,0
820,385,315,0
898,413,347,0
962,444,374,0
941,428,366,0
1066,470,352,0
1210,564,427,0
1169,487,359,0
977,343,256,0
961,395,256,0
987,396,194,0
891,319,146,0
838,375,80,0
844,339,9,0
866,328,-2,0
855,329,8,0
820,275,53,0
838,382,128,0
879,365,186,0
884,309,206,0
912,255,223,0
921,241,299,0
1134,230,205,0
1151,236,277,0
854,228,250,0
841,338,300,0
947,501,325,0
896,290,220,0
757,230,198,0
696,270,223,0
702,316,228,0
731,362,215,0
753,331,230,0
820,345,243,0
942,426,287,0
1020,370,282,0
1041,427,291,0
927,436,332,0
1038,485,368,0
1168,603,467,0
1024,460,313,0
1022,503,186,0
1105,439,252,0
1024,360,204,0
883,317,114,0
812,301,81,0
811,294,82,0
802,257,63,0
791,225,95,0
811,225,79,0
892,302,116,0
913,224,140,0
904,258,203,0
1166,307,183,0
1173,360,212,0
866,225,301,0
772,325,338,0
867,339,395,0
899,224,358,0
822,197,304,0
770,246,265,0
745,353,260,0
749,336,243,0
748,322,291,0
769,384,306,0
893,526,390,0
1032,559,428,0
1063,513,460,0
1082,480,428,0
1352,621,536,0
1220,567,411,0
1159,531,399,0
1301,606,504,0
1242,520,468,0
1069,502,308,0
980,419,181,0
899,426,123,0
853,398,36,0
849,444,10,0
726,319,-14,0
607,405,-123,0
494,361,-46,0
428,315,126,0
438,380,183,0
689,575,254,0
772,531,289,0
752,586,408,0
998,569,434,0
1290,564,331,0
1285,406,361,0
1150,396,311,0
1159,365,280,0
1146,449,207,0
1020,546,205,0
865,602,291,0
790,752,338,0
838,776,429,0
911,734,427,0
974,674,396,0
1312,700,408,0
1289,566,290,0
1173,501,217,0
1140,487,166,0
1263,537,109,0
1280,461,29,0
1277,389,-32,0
1213,283,-49,0
1131,185,-47,0
1049,172,-57,0
912,185,-47,0
804,195,-15,0
699,134,2,0
685,302,22,0
653,310,85,0
809,401,178,0
869,396,264,0
828,559,414,0
880,548,458,0
1220,544,437,0
1442,538,362,0
1240,446,258,0
981,459,146,0
884,406,133,0
849,429,81,0
778,447,65,0
657,464,60,0
632,535,135,0
765,656,185,0
962,667,239,0
976,568,249,0
912,581,292,0
1222,780,319,0
1258,624,266,0
995,433,154,0
1067,502,159,0
1167,529,87,0
1161,418,25,0
1094,290,-27,0
1073,242,-58,0
1037,250,-56,0
979,232,-31,0
895,234,3,0
831,259,26,0
816,437,85,0
758,255,183,0
709,391,243,0
905,214,320,0
1059,147,407,0
1024,103,442,0
1226,349,459,0
1416,425,409,0
1243,336,197,0
917,366,52,0
788,399,-16,0
761,496,-66,0
711,484,-35,0
627,382,26,0
697,412,94,0
843,514,183,0
961,595,222,0
928,627,338,0
989,669,406,0
1353,838,515,0
1182,496,393,0
1143,405,364,0
1286,458,346,0
1293,423,282,0
1117,307,199,0
881,249,143,0
730,253,122,0
701,268,96,0
699,250,55,0
732,228,55,0
770,229,83,0
853,279,106,0
882,343,139,0
898,316,191,0
1121,441,220,0
1077,402,310,0
1127,328,417,0
1302,432,488,0
1192,289,347,0
894,204,233,0
788,277,245,0
780,342,238,0
763,389,226,0
723,435,272,0
713,466,331,0
779,492,376,0
887,442,394,0
1027,374,406,0
1063,274,436,0
1246,314,449,0
1344,282,461,0
1237,203,353,0
1092,224,277,0
1095,261,163,0
995,222,121,0
825,256,100,0
638,265,88,0
491,256,81,0
425,254,81,0
479,354,69,0
613,418,61,0
747,465,67,0
840,456,91,0
874,415,158,0
911,356,205,0
972,363,240,0
1004,389,273,0
1092,397,263,0
1152,411,275,0
941,314,290,0
770,346,353,0
867,385,337,0
1025,271,304,0
925,147,258,0
782,183,245,0
724,208,230,0
716,268,195,0
713,280,214,0
710,291,245,0
729,315,265,0
789,345,265,0
873,350,283,0
979,348,292,0
1038,340,291,0
1209,445,294,0
1226,468,331,0
1080,402,304,0
834,303,223,0
858,445,257,0
884,344,277,0
776,353,159,0
753,384,107,0
790,396,108,0
848,373,75,0
909,350,66,0
933,346,81,0
893,311,93,0
890,337,107,0
917,357,152,0
958,395,204,0
1081,410,246,0
1171,382,296,0
950,230,320,0
811,348,398,0
768,358,372,0
898,340,328,0
963,289,269,0
866,261,208,0
763,308,169,0
708,330,158,0
699,343,145,0
678,333,152,0
661,334,177,0
686,358,210,0
739,398,258,0
831,416,285,0
949,425,320,0
1031,437,336,0
1172,485,348,0
1284,574,401,0
1212,512,367,0
1011,441,310,0
833,397,238,0
879,454,219,0
839,416,137,0
766,337,62,0
762,340,49,0
779,349,25,0
839,350,13,0
893,341,1,0
915,337,17,0
942,307,49,0
1053,302,67,0
1127,295,102,0
1170,303,133,0
1185,332,176,0
911,260,260,0
742,253,331,0
787,280,345,0
914,222,301,0
871,177,245,0
772,212,235,0
718,231,219,0
712,270,187,0
709,292,190,0
704,310,203,0
784,348,225,0
910,376,234,0
1027,413,255,0
1070,458,289,0
1005,435,301,0
1194,597,350,0
1240,595,384,0
1035,447,290,0
901,451,231,0
923,444,254,0
947,405,157,0
911,311,96,0
853,284,78,0
820,292,32,0
837,325,9,0
846,333,1,0
829,311,19,0
861,317,54,0
938,308,70,0
1014,334,130,0
1056,323,195,0
1208,364,221,0
1042,249,298,0
810,267,370,0
865,392,380,0
961,334,314,0
882,255,257,0
745,274,217,0
702,219,178,0
704,422,164,0
703,420,155,0
656,423,192,0
668,355,247,0
789,431,298,0
979,499,323,0
1137,550,383,0
1195,527,369,0
1263,625,418,0
1030,469,380,0
872,405,268,0
932,439,245,0
956,414,189,0
856,389,112,0
793,383,49,0
796,330,19,0
852,318,13,0
875,313,16,0
887,309,37,0
919,302,67,0
993,301,88,0
1076,307,124,0
1058,308,200,0
1134,338,254,0
985,248,313,0
765,235,349,0
746,305,406,0
886,355,383,0
904,315,312,0
767,287,232,0
695,329,198,0
686,348,158,0
724,414,145,0
700,395,173,0
713,409,208,0
798,419,250,0
917,459,290,0
1049,478,336,0
1102,463,323,0
1296,569,356,0
1182,508,375,0
982,471,341,0
867,455,294,0
903,464,249,0
941,407,190,0
866,343,110,0
826,318,67,0
803,306,39,0
808,320,34,0
811,301,21,0
827,300,30,0
877,284,50,0
964,297,67,0
1006,288,103,0
1185,360,144,0
1159,300,203,0
1056,306,301,0
881,300,349,0
803,309,389,0
861,330,400,0
843,253,348,0
759,244,301,0
708,252,269,0
717,265,244,0
728,311,240,0
691,339,249,0
676,372,283,0
741,401,299,0
895,425,317,0
1016,429,322,0
1093,484,326,0
1318,590,377,0
1217,510,357,0
954,411,299,0
839,435,261,0
900,446,234,0
885,388,167,0
820,354,101,0
799,327,64,0
798,350,37,0
835,336,44,0
863,319,61,0
881,344,79,0
919,329,127,0
991,318,142,0
1083,297,182,0
1081,279,227,0
1204,316,242,0
1077,242,269,0
857,272,312,0
748,302,323,0
826,331,314,0
868,290,264,0
757,269,215,0
689,284,185,0
676,325,163,0
697,350,155,0
692,380,171,0
679,373,214,0
726,405,254,0
847,437,289,0
990,467,327,0
1082,477,334,0
1193,518,330,0
1329,597,381,0
1165,537,365,0
919,456,308,0
883,468,261,0
964,421,233,0
965,371,174,0
863,331,98,0
806,325,55,0
790,301,27,0
802,304,36,0
788,292,41,0
799,284,48,0
850,304,78,0
954,297,91,0
1044,286,139,0
1246,338,183,0
1204,297,251,0
983,297,353,0
778,321,401,0
752,361,361,0
845,362,362,0
829,304,320,0
728,290,245,0
694,310,217,0
699,331,210,0
697,365,223,0
653,380,246,0
661,392,285,0
774,424,327,0
982,465,349,0
1082,453,351,0
1288,529,336,0
1286,512,351,0
1094,471,296,0
884,431,258,0
888,453,213,0
902,390,171,0
804,314,117,0
754,326,72,0
749,326,46,0
774,316,46,0
803,308,56,0
858,325,70,0
902,314,103,0
970,307,138,0
1060,320,164,0
1061,330,210,0
1208,336,222,0
1113,277,216,0
807,278,250,0
756,353,289,0
879,347,261,0
921,267,210,0
787,259,181,0
704,285,172,0
677,324,169,0
673,355,174,0
672,341,207,0
667,354,252,0
753,409,292,0
903,447,314,0
1055,442,333,0
1088,450,330,0
1087,473,326,0
1187,557,362,0
1112,519,328,0
904,418,241,0
887,449,207,0
951,433,164,0
937,398,120,0
849,349,62,0
810,316,22,0
831,320,15,0
858,317,26,0
843,299,42,0
840,301,69,0
893,329,107,0
963,308,132,0
1068,290,241,0
1220,278,249,0
1093,224,282,0
848,244,305,0
760,327,331,0
842,335,295,0
885,280,235,0
783,266,196,0
716,290,175,0
705,335,177,0
706,366,175,0
704,351,208,0
707,360,254,0
752,381,294,0
859,414,316,0
989,415,328,0
1057,420,334,0
1040,436,328,0
1179,530,356,0
1150,513,364,0
947,400,265,0
805,400,169,0
967,461,177,0
1028,383,123,0
948,301,50,0
886,276,43,0
866,289,50,0
871,311,52,0
852,292,49,0
828,297,73,0
817,303,102,0
885,287,112,0
1018,344,139,0
1078,280,204,0
1217,312,209,0
1064,305,216,0
887,342,240,0
740,388,253,0
813,410,245,0
931,348,221,0
875,217,157,0
788,220,114,0
731,284,100,0
708,380,105,0
687,394,167,0
682,346,220,0
754,365,234,0
884,410,276,0
1021,426,285,0
1098,442,299,0
1041,404,301,0
1136,513,310,0
1134,541,308,0
981,430,200,0
879,416,127,0
957,515,129,0
995,385,69,0
956,238,77,0
915,185,89,0
891,231,79,0
866,288,43,0
817,318,22,0
762,328,52,0
787,345,100,0
853,336,139,0
965,325,171,0
1004,332,220,0
1106,356,214,0
1117,438,171,0
840,299,233,0
776,333,308,0
950,337,262,0
1031,182,212,0
854,176,180,0
753,183,199,0
745,209,245,0
741,218,271,0
734,249,294,0
721,266,315,0
748,227,324,0
845,214,333,0
1015,197,337,0
1146,235,339,0
1187,298,306,0
1403,372,306,0
1417,528,332,0
1182,381,257,0
883,199,259,0
723,271,267,0
739,307,273,0
756,202,248,0
814,179,238,0
874,185,229,0
914,242,159,0
907,287,114,0
891,294,72,0
875,346,92,0
944,376,156,0
985,333,215,0
977,411,304,0
1077,272,241,0
1048,168,280,0
699,164,302,0
665,168,274,0
899,227,316,0
975,150,321,0
821,207,235,0
725,302,206,0
720,373,226,0
759,371,256,0
741,304,313,0
723,317,419,0
835,348,505,0
997,339,522,0
1159,405,494,0
1123,352,404,0
1272,404,411,0
1193,397,409,0
1033,327,320,0
931,368,258,0
1002,332,239,0
1075,413,219,0
1049,381,180,0
985,444,156,0
883,570,134,0
817,580,200,0
697,697,318,0
628,841,428,0
599,986,558,0
575,993,596,0
501,977,595,0
345,926,650,0
147,798,591,0
-94,683,572,0
-297,598,558,0
-339,493,461,0
-347,458,409,0
-334,532,387,0
-376,438,419,0
-468,384,444,0
-545,300,420,0
-589,215,437,0
-652,187,454,0
-706,149,438,0
-769,194,425,0
-855,44,408,0
-961,139,468,0
-1061,69,446,0
-1130,138,434,0
-1227,190,424,0
-1210,291,323,0
-1036,389,314,0
-932,221,262,0
-938,297,148,0
-870,374,141,0
-820,231,212,0
-831,136,248,0
-860,114,242,0
-872,103,216,0
-877,133,295,0
-908,169,325,0
-977,180,349,0
-1013,251,368,0
-1042,200,414,0
-1088,223,499,0
-1186,184,525,0
-1144,190,593,0
-1021,231,514,0
-810,209,367,0
-651,281,364,0
-584,243,405,0
-581,68,506,0
-782,25,268,0
-833,-44,331,0
-850,-25,507,0
-827,20,493,0
-767,1,486,0
-766,-35,476,0
-875,13,466,0
-981,39,500,0
-1077,-68,585,0
-1214,-108,531,0
-1306,-57,444,0
-1303,-33,317,0
-1090,228,364,0
-905,60,209,0
-854,160,133,0
-739,180,171,0
-670,140,164,0
-668,159,166,0
-702,184,219,0
-793,171,234,0
-819,258,352,0
-842,291,423,0
-764,336,355,0
-600,543,240,0
-512,575,208,0
-297,428,126,0
-31,610,281,0
234,944,352,0
440,731,347,0
704,810,264,0
914,860,305,0
1221,670,332,0
1414,599,231,0
1431,527,116,0
1345,543,60,0
1191,643,62,0
1013,703,57,0
836,622,26,0
801,547,43,0
913,486,63,0
1020,451,84,0
1056,478,137,0
935,490,176,0
1032,617,230,0
1025,684,300,0
969,545,223,0
899,461,114,0
982,554,146,0
1014,460,116,0
981,370,42,0
955,280,37,0
965,261,48,0
968,296,34,0
942,298,11,0
929,291,5,0
923,297,21,0
926,305,20,0
871,296,54,0
926,311,89,0
984,406,145,0
890,377,159,0
842,423,268,0
912,508,347,0
968,453,257,0
877,300,154,0
778,231,162,0
747,273,176,0
744,350,159,0
731,440,190,0
688,450,212,0
798,459,222,0
993,478,271,0
1192,483,304,0
1157,408,287,0
1268,487,305,0
1181,536,358,0
1062,448,265,0
850,374,173,0
862,423,142,0
876,445,151,0
829,392,73,0
789,301,17,0
785,284,9,0
781,300,24,0
765,350,53,0
740,370,111,0
805,359,125,0
891,350,139,0
1003,311,156,0
1070,289,189,0
1208,305,175,0
1135,379,172,0
897,365,199,0
729,428,247,0
827,526,257,0
904,411,226,0
821,220,158,0
711,168,140,0
693,246,160,0
708,339,137,0
712,425,162,0
716,402,221,0
801,389,233,0
941,410,272,0
1059,441,303,0
1062,445,308,0
1199,469,287,0
1205,556,329,0
1053,505,268,0
824,411,169,0
896,466,133,0
931,474,153,0
876,410,89,0
834,317,47,0
820,287,40,0
820,286,25,0
833,311,18,0
818,328,46,0
838,330,58,0
918,323,59,0
1058,304,56,0
1112,303,106,0
1210,351,135,0
1038,343,197,0
907,386,306,0
822,385,321,0
868,355,298,0
866,257,250,0
721,184,199,0
675,235,190,0
687,292,174,0
690,361,198,0
689,382,216,0
750,410,252,0
902,465,296,0
1058,507,339,0
1135,494,346,0
1435,572,333,0
1281,605,349,0
976,428,205,0
967,339,124,0
1006,319,101,0
941,282,85,0
846,334,89,0
741,369,63,0
689,470,-38,0
686,494,-109,0
710,558,-136,0
753,633,-110,0
851,741,-37,0
973,356,-335,0
1104,443,-165,0
1130,329,63,0
1132,331,246,0
959,758,333,0
844,609,661,0
679,365,560,0
774,457,317,0
852,616,326,0
514,894,316,0
278,657,6,0
273,521,-223,0
398,376,-82,0
547,448,153,0
715,280,400,0
810,422,558,0
917,792,482,0
918,981,418,0
792,874,390,0
723,854,311,0
669,987,283,0
605,831,247,0
584,685,173,0
571,605,142,0
567,572,153,0
544,494,135,0
519,396,109,0
569,385,109,0
689,393,124,0
827,437,139,0
974,418,142,0
1152,361,134,0
1266,330,102,0
1160,380,135,0
1261,433,159,0
1203,474,98,0
795,344,91,0
798,379,229,0
890,325,200,0
774,128,83,0
618,106,142,0
588,199,187,0
630,260,185,0
731,302,218,0
812,304,274,0
931,318,329,0
1119,352,385,0
1247,357,394,0
1128,270,367,0
1015,251,310,0
1095,437,312,0
948,535,280,0
992,537,169,0
1111,560,133,0
1089,428,75,0
928,278,42,0
802,213,53,0
784,234,37,0
815,288,8,0
842,334,2,0
901,335,11,0
1006,310,34,0
1100,294,62,0
1123,291,97,0
1170,352,144,0
884,401,306,0
723,371,400,0
869,357,323,0
972,308,251,0
857,182,251,0
711,228,283,0
651,263,213,0
660,292,167,0
668,359,204,0
700,385,247,0
785,439,279,0
898,545,315,0
1104,564,302,0
1107,538,261,0
1030,513,209,0
1080,599,240,0
1050,549,192,0
1139,347,64,0
1162,226,-3,0
949,243,-83,0
676,441,-112,0
599,525,-86,0
641,454,-101,0
689,361,-116,0
719,363,-118,0
777,377,-134,0
886,316,-158,0
1019,328,-144,0
1089,361,-151,0
1145,426,-165,0
1140,442,-209,0
956,480,-196,0
879,524,-155,0
905,496,-138,0
868,402,-109,0
715,352,-67,0
632,339,-70,0
631,353,-100,0
649,372,-129,0
661,393,-103,0
668,444,-45,0
740,539,0,0
863,588,9,0
1047,605,26,0
1058,657,10,0
949,689,-30,0
1100,735,-21,0
1108,681,26,0
952,479,53,0
910,290,8,0
983,271,38,0
912,181,91,0
775,211,73,0
739,284,53,0
748,365,34,0
780,390,13,0
822,390,24,0
893,380,66,0
1030,329,80,0
1151,294,97,0
1088,309,188,0
1132,321,203,0
1080,367,186,0
807,322,215,0
800,357,286,0
898,350,237,0
804,249,143,0
648,207,136,0
608,257,159,0
637,303,131,0
646,342,121,0
696,403,186,0
799,447,221,0
936,472,254,0
1109,503,306,0
1109,470,328,0
977,371,276,0
1150,502,309,0
1103,621,354,0
1049,507,184,0
1104,480,101,0
1111,368,99,0
962,251,113,0
860,260,105,0
819,310,62,0
820,347,8,0
786,345,-21,0
725,307,-25,0
733,291,-11,0
819,297,-1,0
970,338,15,0
1013,333,82,0
1179,364,93,0
1174,417,142,0
933,422,245,0
910,440,305,0
974,462,263,0
922,291,169,0
746,131,135,0
680,148,157,0
688,240,168,0
741,461,159,0
717,468,178,0
705,396,209,0
787,403,250,0
946,425,277,0
1071,439,273,0
1007,401,249,0
1178,504,259,0
1194,621,299,0
989,515,177,0
917,408,71,0
981,423,106,0
920,324,96,0
850,291,60,0
815,298,41,0
790,322,12,0
779,328,-24,0
814,407,-54,0
842,597,-56,0
857,678,-77,0
909,637,-78,0
936,545,-101,0
867,646,-76,0
919,523,-45,0
864,591,179,0
692,455,284,0
709,451,285,0
785,527,324,0
814,450,345,0
717,312,307,0
621,328,262,0
608,474,240,0
604,355,181,0
613,369,142,0
642,576,121,0
670,721,107,0
794,705,200,0
973,1227,427,0
992,962,367,0
1022,589,323,0
1063,551,95,0
1068,596,10,0
978,265,-120,0
939,275,-55,0
897,94,52,0
871,58,121,0
876,174,119,0
832,427,54,0
738,575,77,0
626,579,135,0
555,514,219,0
553,296,227,0
637,157,219,0
861,135,215,0
1185,180,110,0
1782,446,-145,0
1582,753,-119,0
1010,653,83,0
972,629,184,0
866,417,10,0
780,310,-105,0
711,301,-111,0
646,256,-50,0
621,268,2,0
628,332,36,0
671,399,108,0
773,422,182,0
935,517,248,0
1114,571,318,0
1159,518,346,0
1226,414,321,0
1260,555,398,0
1076,413,368,0
876,290,259,0
872,417,263,0
903,421,249,0
827,349,162,0
776,319,91,0
798,328,66,0
848,346,28,0
873,344,13,0
848,307,7,0
908,301,4,0
990,322,-7,0
1083,374,2,0
1072,407,91,0
1144,389,131,0
1030,405,227,0
845,413,368,0
684,330,386,0
755,372,389,0
844,327,399,0
798,207,349,0
726,180,296,0
688,246,268,0
702,325,241,0
691,400,243,0
661,421,255,0
728,419,232,0
854,415,240,0
1026,386,249,0
1052,381,258,0
1104,413,246,0
1267,579,319,0
1190,646,349,0
922,455,232,0
884,381,134,0
936,369,143,0
852,344,157,0
777,316,123,0
756,312,79,0
797,331,36,0
827,327,16,0
868,308,0,0
910,303,10,0
939,309,15,0
1040,339,28,0
1094,361,81,0
1040,307,194,0
1117,351,222,0
810,327,287,0
734,360,385,0
881,444,378,0
961,332,253,0
848,216,210,0
710,246,239,0
684,280,216,0
678,337,188,0
684,383,189,0
684,413,211,0
713,417,266,0
821,408,311,0
966,363,305,0
993,325,305,0
1042,362,312,0
1174,506,323,0
1093,534,289,0
871,447,219,0
866,436,146,0
994,497,161,0
910,429,124,0
791,317,73,0
761,316,75,0
771,330,81,0
803,346,75,0
839,324,78,0
892,312,84,0
973,303,89,0
1073,310,97,0
1059,328,139,0
1132,339,139,0
1137,360,154,0
880,314,198,0
682,345,241,0
793,414,275,0
901,381,272,0
795,251,208,0
707,203,200,0
701,267,218,0
720,322,216,0
705,342,225,0
696,347,250,0
766,368,284,0
918,412,315,0
1014,423,325,0
986,376,306,0
1205,468,297,0
1249,621,375,0
1008,523,249,0
817,430,159,0
888,442,177,0
930,439,152,0
881,382,95,0
838,326,69,0
817,321,53,0
826,325,40,0
841,335,81,0
855,372,174,0
917,373,228,0
985,322,195,0
1027,277,202,0
1020,254,248,0
1096,273,205,0
1056,287,185,0
847,320,216,0
753,369,221,0
879,410,178,0
975,342,160,0
846,240,161,0
716,244,164,0
682,298,166,0
704,323,160,0
727,331,179,0
711,332,253,0
720,374,323,0
803,455,405,0
976,507,484,0
1081,443,454,0
1207,416,401,0
1274,487,374,0
1136,523,321,0
875,459,197,0
901,496,129,0
939,502,109,0
878,407,60,0
824,348,21,0
811,320,0,0
814,306,-24,0
818,315,16,0
800,333,106,0
818,326,144,0
899,349,174,0
1006,361,203,0
1045,331,242,0
1154,290,224,0
1217,326,232,0
950,324,307,0
786,339,328,0
877,380,259,0
954,292,201,0
839,200,182,0
704,207,164,0
652,266,135,0
658,354,152,0
660,411,176,0
663,408,189,0
721,424,238,0
871,459,293,0
1030,468,305,0
1113,446,292,0
1233,449,289,0
1237,512,336,0
1091,494,251,0
878,450,178,0
884,471,162,0
871,511,167,0
833,453,116,0
813,358,70,0
797,288,63,0
796,268,59,0
819,300,61,0
826,337,86,0
860,334,117,0
916,309,123,0
1027,288,141,0
1041,272,178,0
1097,293,203,0
1212,347,196,0
1029,322,198,0
837,329,242,0
786,364,242,0
860,349,237,0
863,273,205,0
749,204,162,0
700,232,159,0
706,268,151,0
690,305,129,0
670,346,152,0
706,400,199,0
798,428,228,0
911,439,262,0
1044,454,303,0
1103,444,317,0
1214,454,294,0
1299,619,382,0
1019,561,321,0
872,443,195,0
965,495,216,0
1017,428,201,0
904,338,121,0
829,274,88,0
834,287,79,0
858,323,48,0
852,313,38,0
857,282,36,0
899,300,46,0
975,301,61,0
987,312,100,0
1040,320,140,0
1197,371,144,0
1025,337,191,0
854,345,289,0
865,344,269,0
953,316,210,0
908,211,168,0
778,188,159,0
717,237,159,0
713,318,126,0
730,401,121,0
704,448,157,0
725,428,183,0
885,422,212,0
1032,394,224,0
1125,409,259,0
1041,429,288,0
1138,535,338,0
1169,656,439,0
958,512,325,0
846,396,225,0
885,382,212,0
904,380,194,0
858,373,166,0
806,288,117,0
825,290,58,0
871,314,32,0
918,324,40,0
968,317,53,0
1044,317,63,0
1128,329,92,0
1078,348,161,0
954,330,208,0
1060,339,231,0
837,299,258,0
672,233,341,0
806,314,376,0
956,298,260,0
859,217,195,0
721,230,207,0
715,284,188,0
744,355,157,0
772,448,151,0
745,455,179,0
798,417,195,0
966,408,219,0
1077,435,260,0
991,480,309,0
859,474,285,0
1034,589,307,0
1100,687,356,0
1119,590,176,0
1140,529,113,0
1049,372,137,0
923,248,131,0
878,236,106,0
903,296,85,0
937,349,54,0
972,339,26,0
986,296,16,0
986,251,25,0
1023,275,39,0
965,320,90,0
954,316,110,0
995,386,142,0
711,314,193,0
691,332,238,0
844,431,268,0
933,379,220,0
852,229,173,0
784,205,176,0
792,262,202,0
815,365,195,0
796,414,188,0
788,433,202,0
838,428,239,0
962,415,240,0
1126,451,262,0
1108,424,252,0
1193,518,296,0
1165,593,362,0
1074,468,248,0
1016,344,146,0
1003,354,141,0
950,371,135,0
841,323,79,0
785,293,37,0
788,317,15,0
817,336,-11,0
829,303,-37,0
859,278,-44,0
917,286,-15,0
999,307,-1,0
997,327,58,0
909,306,135,0
1065,351,165,0
1042,415,205,0
810,362,258,0
860,494,411,0
890,523,394,0
787,325,261,0
740,170,215,0
719,59,284,0
718,408,254,0
730,539,252,0
667,478,249,0
695,423,239,0
867,164,312,0
1104,298,326,0
1188,475,250,0
1359,776,143,0
1306,694,126,0
1164,414,193,0
980,222,132,0
984,233,71,0
882,284,18,0
740,351,23,0
713,389,45,0
719,382,24,0
711,361,51,0
659,353,116,0
652,371,198,0
702,349,234,0
805,296,183,0
999,292,191,0
1134,336,233,0
1320,359,192,0
1347,389,171,0
1086,389,140,0
885,456,167,0
952,534,141,0
955,400,37,0
812,245,-6,0
703,252,40,0
656,324,53,0
638,392,41,0
641,402,87,0
626,425,171,0
655,451,269,0
836,519,372,0
1064,512,399,0
1123,437,391,0
1099,381,361,0
1233,513,389,0
1001,389,243,0
988,368,155,0
1036,387,156,0
916,360,134,0
789,300,72,0
745,294,30,0
758,322,16,0
765,322,11,0
776,331,33,0
825,355,92,0
938,325,101,0
1125,312,113,0
1109,261,168,0
1038,227,205,0
1183,348,204,0
924,315,181,0
816,328,220,0
909,471,296,0
929,400,232,0
769,189,139,0
665,200,143,0
666,265,175,0
699,363,151,0
693,396,154,0
671,398,194,0
767,410,253,0
980,463,298,0
1118,462,316,0
1102,393,289,0
1316,470,319,0
1291,526,360,0
1128,443,258,0
915,363,201,0
919,396,207,0
897,399,187,0
802,332,99,0
757,296,49,0
736,313,32,0
764,322,4,0
779,310,-22,0
743,288,-17,0
719,276,10,0
730,313,59,0
687,290,106,0
631,265,152,0
673,265,171,0
614,199,182,0
559,106,209,0
877,80,134,0
1500,272,-42,0
1998,582,-37,0
1560,575,302,0
920,616,589,0
758,352,447,0
705,398,154,0
748,203,179,0
727,284,277,0
723,461,411,0
755,537,509,0
814,608,545,0
1152,762,567,0
1787,483,482,0
1985,370,115,0
1769,463,42,0
1412,238,121,0
1097,316,122,0
1001,450,74,0
995,412,-20,0
978,373,-150,0
1036,308,-191,0
973,170,-162,0
797,66,-121,0
628,111,-53,0
493,241,29,0
615,397,137,0
581,413,285,0
660,417,413,0
1025,402,484,0
1432,345,406,0
1452,207,339,0
1178,268,386,0
1078,255,272,0
1145,350,246,0
1180,565,219,0
1049,650,255,0
926,717,319,0
945,811,311,0
929,686,255,0
1182,728,235,0
1196,669,253,0
1205,452,146,0
1334,420,124,0
1321,387,92,0
1219,356,95,0
1140,369,93,0
1065,354,37,0
987,321,-14,0
907,282,-18,0
802,260,1,0
723,239,14,0
697,224,17,0
648,209,33,0
651,263,97,0
911,402,173,0
937,391,201,0
1049,356,283,0
1391,533,369,0
1390,515,279,0
1026,308,200,0
825,246,175,0
833,257,148,0
875,377,169,0
868,449,235,0
828,528,214,0
882,530,260,0
976,621,328,0
960,601,345,0
1171,581,302,0
1235,632,369,0
1148,443,209,0
1232,397,145,0
1168,372,173,0
1007,331,134,0
896,322,94,0
823,299,52,0
799,286,24,0
816,289,19,0
850,288,25,0
903,269,35,0
955,272,59,0
908,260,122,0
882,306,185,0
1060,415,244,0
906,321,242,0
940,268,261,0
1050,399,308,0
1009,402,267,0
839,339,227,0
748,320,196,0
781,336,212,0
857,369,238,0
867,382,226,0
882,435,253,0
939,566,331,0
1018,648,354,0
925,549,293,0
1199,570,250,0
1267,649,348,0
1225,491,206,0
1213,474,237,0
1107,384,200,0
933,318,138,0
829,290,113,0
785,287,84,0
792,285,50,0
848,273,19,0
866,259,7,0
869,254,10,0
858,273,47,0
802,348,140,0
1082,429,179,0
1065,398,221,0
1038,310,300,0
1078,348,395,0
1056,354,321,0
840,255,242,0
644,253,211,0
627,271,167,0
729,340,168,0
840,412,188,0
855,472,199,0
952,556,277,0
1065,670,370,0
1021,621,394,0
1050,499,252,0
1303,688,354,0
1116,577,245,0
1168,576,186,0
1221,511,210,0
1108,387,185,0
964,304,138,0
903,294,117,0
895,315,87,0
899,308,58,0
894,281,33,0
888,275,16,0
817,247,18,0
710,245,71,0
803,305,115,0
1014,447,160,0
938,372,259,0
1135,440,432,0
1232,404,407,0
985,200,255,0
714,134,241,0
658,235,210,0
718,349,175,0
793,449,200,0
861,502,259,0
901,495,268,0
988,536,324,0
1052,638,373,0
1031,577,297,0
1438,708,323,0
1270,617,297,0
1205,412,209,0
1168,421,254,0
1001,371,200,0
855,346,148,0
804,354,117,0
844,372,139,0
932,345,124,0
933,276,84,0
896,219,86,0
901,237,119,0
863,265,111,0
756,239,94,0
1003,318,76,0
933,320,83,0
958,366,147,0
1104,504,284,0
1090,550,342,0
822,323,265,0
638,222,181,0
636,221,222,0
733,295,300,0
797,362,313,0
851,452,375,0
976,552,519,0
1156,594,552,0
1143,530,456,0
1327,544,419,0
1207,543,443,0
1107,424,252,0
1303,504,230,0
1266,565,197,0
1004,360,105,0
808,250,71,0
734,241,43,0
733,257,-2,0
750,264,-23,0
809,311,-3,0
958,345,58,0
1109,385,108,0
1115,408,193,0
1118,372,232,0
1025,330,254,0
923,275,273,0
1124,320,285,0
1228,287,213,0
1067,179,128,0
779,172,170,0
613,263,206,0
513,382,176,0
496,438,159,0
553,400,185,0
639,412,231,0
713,359,300,0
884,369,326,0
1129,423,336,0
1242,437,331,0
1075,410,288,0
1155,450,262,0
1119,591,327,0
954,529,203,0
1024,583,146,0
1020,515,144,0
886,320,69,0
760,206,56,0
729,200,82,0
755,257,65,0
833,327,29,0
953,337,43,0
1052,293,59,0
1110,244,51,0
1046,277,86,0
1029,327,105,0
1059,466,135,0
802,402,226,0
891,418,322,0
1050,418,319,0
931,228,174,0
688,65,157,0
594,160,198,0
595,276,156,0
626,425,182,0
671,475,208,0
827,464,218,0
1052,464,247,0
1247,448,275,0
1243,444,317,0
1308,470,358,0
1286,488,375,0
1077,334,237,0
1036,263,39,0
1070,307,9,0
952,413,19,0
790,379,-151,0
651,445,-282,0
615,527,-283,0
567,485,-292,0
532,372,-206,0
583,428,-68,0
712,724,40,0
942,497,102,0
978,616,168,0
975,814,218,0
890,927,62,0
824,1003,-252,0
933,607,-322,0
1088,775,-184,0
897,751,-173,0
522,336,-318,0
333,249,-274,0
576,-43,31,0
91,1056,-516,0
368,-18,76,0
365,249,233,0
607,650,256,0
713,1009,240,0
756,1015,260,0
736,1168,375,0
649,1160,441,0
574,1185,480,0
581,1044,444,0
515,782,364,0
468,730,299,0
461,742,307,0
418,558,303,0
349,441,250,0
281,343,189,0
259,312,148,0
322,376,125,0
484,460,126,0
766,657,75,0
1207,611,-24,0
1500,490,34,0
1548,412,139,0
1569,351,137,0
1302,412,137,0
966,468,204,0
799,427,150,0
852,327,92,0
793,142,67,0
652,73,34,0
597,75,36,0
621,230,48,0
666,301,99,0
718,351,151,0
775,384,241,0
899,396,364,0
1091,332,316,0
1201,307,261,0
1217,327,293,0
1254,476,320,0
1165,552,300,0
1067,489,203,0
876,421,130,0
973,413,94,0
1037,399,73,0
977,309,36,0
880,231,13,0
801,245,3,0
758,276,-7,0
739,313,4,0
763,335,35,0
779,322,54,0
901,314,66,0
1062,293,73,0
1153,319,125,0
1219,338,161,0
1173,361,141,0
991,380,192,0
892,359,221,0
929,313,186,0
933,239,134,0
777,158,150,0
669,180,166,0
634,220,144,0
650,283,140,0
686,338,178,0
715,329,192,0
773,371,218,0
899,424,245,0
1148,451,248,0
1248,389,239,0
1272,389,238,0
1205,505,288,0
1186,545,236,0
980,463,129,0
944,414,72,0
982,362,77,0
931,340,61,0
813,270,37,0
713,265,15,0
674,289,6,0
689,307,1,0
748,321,1,0
869,311,-5,0
1019,291,18,0
1199,282,49,0
1251,271,88,0
1255,340,111,0
1145,441,165,0
956,465,226,0
869,421,230,0
896,371,211,0
802,221,158,0
628,147,198,0
565,180,230,0
581,257,249,0
612,279,263,0
618,270,298,0
620,290,327,0
745,347,340,0
935,398,321,0
1078,397,315,0
1103,388,292,0
1204,461,264,0
1182,531,271,0
1129,530,237,0
857,416,168,0
999,380,137,0
1059,379,122,0
1011,307,86,0
867,261,88,0
714,286,78,0
620,329,64,0
597,367,57,0
632,381,42,0
746,448,42,0
905,887,-4,0
1090,1033,4,0
1219,1086,404,0
1130,981,554,0
1023,643,572,0
964,462,580,0
884,276,505,0
798,321,394,0
653,309,375,0
463,199,364,0
347,172,388,0
307,122,437,0
296,166,532,0
310,272,709,0
251,241,801,0
179,215,842,0
147,238,961,0
152,247,1028,0
167,334,1070,0
111,458,1077,0
128,744,1175,0
185,941,1156,0
131,709,875,0
54,723,875,0
38,538,816,0
20,381,697,0
27,473,790,0
-35,374,681,0
-66,329,619,0
-53,389,741,0
-50,352,832,0
-51,314,1025,0
-80,303,1099,0
-64,414,1188,0
-66,423,1157,0
-20,444,1242,0
36,406,1228,0
116,243,1056,0
69,225,803,0
23,219,597,0
142,252,714,0
167,157,774,0
102,98,715,0
110,62,914,0
63,-30,925,0
103,-20,1086,0
83,-165,1105,0
120,-84,1177,0
103,15,1158,0
40,-8,1143,0
-29,41,1220,0
-85,5,1210,0
-75,91,1292,0
-39,79,1190,0
-118,85,1055,0
-163,63,953,0
-109,120,935,0
-102,59,857,0
-116,-13,765,0
-154,-43,709,0
-162,-100,711,0
-158,-140,781,0
-133,-192,889,0
-134,-230,963,0
-120,-291,1062,0
-147,-269,1121,0
-77,-296,1143,0
-23,-225,1196,0
-9,-127,1286,0
97,-116,1260,0
176,-55,1143,0
182,-18,1037,0
242,25,962,0
262,-47,894,0
206,-135,824,0
150,-161,784,0
131,-188,816,0
82,-226,805,0
52,-266,854,0
55,-289,911,0
69,-353,940,0
61,-390,915,0
72,-313,955,0
-63,-201,966,0
-120,13,1081,0
-111,63,1181,0
-42,245,1195,0
-75,267,1067,0
-93,363,1053,0
-66,306,1007,0
-85,171,860,0
-136,163,829,0
-162,158,886,0
-146,135,954,0
-81,122,1027,0
10,159,1111,0
55,96,1150,0
69,90,1067,0
94,221,1057,0
113,285,1062,0
94,314,966,0
167,289,652,0
320,200,332,0
549,290,296,0
734,463,375,0
974,428,367,0
1105,466,360,0
1150,396,314,0
1185,318,254,0
1226,284,184,0
1189,365,166,0
1065,402,198,0
926,383,150,0
981,457,161,0
1047,565,170,0
1099,641,170,0
1057,567,249,0
1169,612,227,0
1089,564,246,0
907,563,306,0
687,514,281,0
798,531,156,0
952,480,121,0
933,379,162,0
862,317,155,0
823,322,122,0
853,357,91,0
887,368,75,0
880,332,78,0
854,306,102,0
852,309,131,0
874,312,128,0
914,322,143,0
970,335,164,0
1058,341,158,0
1321,387,139,0
1181,394,213,0
981,444,289,0
839,400,214,0
891,293,119,0
904,238,92,0
816,237,97,0
715,305,136,0
618,371,196,0
595,381,182,0
612,467,183,0
645,592,141,0
734,648,144,0
863,635,147,0
888,560,115,0
941,529,49,0
1213,605,64,0
1305,674,105,0
1079,388,98,0
850,399,39,0
923,556,19,0
867,477,-8,0
786,330,-25,0
725,296,1,0
696,322,3,0
684,362,15,0
703,420,42,0
726,443,88,0
804,470,188,0
935,417,205,0
1059,398,207,0
1106,375,258,0
1143,389,227,0
1265,384,196,0
1109,383,196,0
952,398,182,0
977,397,141,0
1051,347,72,0
953,257,9,0
783,245,7,0
700,289,17,0
617,362,-12,0
578,409,25,0
621,387,114,0
709,423,207,0
839,465,285,0
1017,438,301,0
1155,360,297,0
1141,348,329,0
1202,432,362,0
1185,507,369,0
1061,457,300,0
850,317,190,0
834,303,141,0
856,337,142,0
856,368,113,0
820,337,65,0
825,334,35,0
821,336,21,0
803,311,-7,0
772,301,-9,0
768,337,52,0
799,371,125,0
898,356,143,0
1009,316,131,0
1130,299,126,0
1194,297,145,0
1205,292,83,0
1099,302,77,0
939,197,118,0
967,241,38,0
1088,74,-146,0
982,-18,-104,0
823,19,-53,0
767,102,-97,0
730,161,-110,0
740,231,-94,0
773,257,-84,0
835,279,-92,0
1019,313,-50,0
1164,351,-39,0
1269,342,17,0
1302,201,8,0
1275,340,-45,0
1140,-22,-112,0
1007,-612,-326,0
894,-373,-533,0
950,-332,-413,0
727,-223,-181,0
622,196,-106,0
655,151,-184,0
673,133,-247,0
730,40,-234,0
827,23,-283,0
1050,103,-273,0
1192,116,-276,0
1299,86,-388,0
1304,-81,-418,0
1389,-151,-402,0
1065,105,-226,0
660,145,-116,0
805,-16,-367,0
1020,-627,-465,0
907,-567,-348,0
777,-193,-255,0
709,88,-232,0
693,90,-172,0
667,163,-76,0
694,159,-11,0
800,203,22,0
982,334,86,0
1134,302,123,0
1205,379,110,0
1074,469,89,0
1148,593,109,0
1210,599,44,0
1117,427,-218,0
1013,626,-360,0
1104,645,-338,0
1049,791,-391,0
936,703,-431,0
746,712,-385,0
551,757,-194,0
546,937,-120,0
626,1006,-116,0
679,1069,-25,0
636,935,173,0
567,904,325,0
526,926,439,0
426,732,569,0
233,205,577,0
53,-83,681,0
67,47,863,0
77,-218,777,0
125,-43,788,0
177,-173,832,0
164,-168,857,0
87,-223,828,0
61,-176,862,0
51,-206,848,0
28,-222,851,0
-22,-253,884,0
-26,-297,935,0
4,-376,996,0
40,-415,1046,0
47,-421,1100,0
-16,-427,1120,0
-73,-334,1136,0
-92,-183,1219,0
-43,-137,1166,0
-108,-71,997,0
-150,0,958,0
-115,-25,902,0
-93,-58,753,0
-118,53,678,0
-160,17,686,0
-194,-45,720,0
-135,-52,856,0
-51,-88,996,0
18,-199,1115,0
91,-219,1159,0
131,-226,1163,0
171,-233,1145,0
255,-243,1073,0
264,-33,867,0
345,117,710,0
455,474,672,0
592,525,752,0
720,383,723,0
869,176,461,0
995,174,234,0
1091,275,162,0
1150,429,175,0
1143,501,158,0
1068,481,106,0
972,474,119,0
893,471,229,0
879,491,285,0
1012,583,265,0
1195,561,311,0
1182,508,303,0
1230,550,286,0
1115,516,381,0
945,455,340,0
911,395,215,0
1065,393,136,0
993,338,133,0
872,365,144,0
790,358,118,0
775,366,56,0
819,384,10,0
863,375,24,0
903,371,66,0
911,322,99,0
1034,284,105,0
1103,266,148,0
1098,246,186,0
1158,258,165,0
1041,301,162,0
979,367,222,0
866,393,234,0
910,386,218,0
980,326,184,0
884,213,142,0
752,174,142,0
697,228,140,0
690,301,115,0
692,385,144,0
678,378,187,0
715,386,220,0
799,402,286,0
945,401,307,0
1123,377,300,0
1189,364,307,0
1245,476,397,0
1246,521,427,0
1057,405,320,0
883,284,187,0
910,286,109,0
957,350,111,0
790,358,124,0
708,351,87,0
734,362,23,0
793,378,-17,0
845,317,-19,0
946,269,-23,0
1041,233,-24,0
1037,282,57,0
1119,371,128,0
1132,417,166,0
1082,380,154,0
979,378,225,0
890,379,304,0
836,261,273,0
952,181,183,0
984,165,146,0
880,155,173,0
759,210,171,0
670,271,158,0
624,329,143,0
621,393,138,0
678,418,147,0
732,391,210,0
814,357,288,0
943,300,286,0
1112,382,232,0
1167,377,258,0
1201,441,338,0
1162,553,400,0
1118,563,348,0
882,510,196,0
1018,694,91,0
1172,695,168,0
1050,760,235,0
863,712,265,0
712,722,226,0
700,870,195,0
721,1086,385,0
798,1282,665,0
842,1691,823,0
995,1609,823,0
843,1167,660,0
592,395,459,0
445,-82,304,0
313,-151,446,0
281,250,646,0
179,163,730,0
-22,282,845,0
-108,167,955,0
-144,-126,803,0
-92,-289,614,0
-34,-386,601,0
36,-321,651,0
92,-381,680,0
95,-469,651,0
43,-545,697,0
-39,-581,832,0
-114,-612,976,0
-141,-647,1053,0
-152,-687,1071,0
-200,-724,991,0
-436,-385,1033,0
-620,-324,1092,0
-703,-297,1031,0
-729,-237,949,0
-557,-198,891,0
-408,-270,790,0
-327,-323,659,0
-298,-235,535,0
-256,-277,425,0
-274,-305,496,0
-385,-345,666,0
-490,-437,876,0
-560,-529,1048,0
-545,-494,1133,0
-370,-497,1141,0
-128,-584,1080,0
-301,-441,1023,0
-461,57,1172,0
-493,232,1203,0
-443,-66,1181,0
-408,-69,1088,0
-362,-91,1022,0
-228,-298,877,0
-117,-308,785,0
-37,-362,669,0
-14,-412,606,0
-47,-417,654,0
-114,-508,722,0
-237,-624,841,0
-329,-649,953,0
-362,-671,1007,0
-420,-672,958,0
-538,-615,924,0
-586,-416,1045,0
-544,-352,1022,0
-536,-300,907,0
-630,-93,842,0
-548,-168,714,0
-378,-385,655,0
-303,-375,625,0
-248,-430,567,0
-244,-527,562,0
-328,-543,599,0
-548,-599,840,0
-829,-734,952,0
-717,-703,935,0
-302,-696,902,0
47,-662,898,0
148,-604,892,0
42,-669,825,0
-127,-422,942,0
-87,-340,944,0
-2,-190,944,0
103,-52,1061,0
117,-153,1025,0
82,-197,937,0
38,-176,927,0
-36,-231,879,0
-61,-216,864,0
-60,-192,922,0
30,-270,881,0
-66,-246,773,0
-241,-109,872,0
-352,-207,897,0
-444,-193,865,0
-381,442,419,0
-450,1308,617,0
-612,1381,869,0
-677,1483,1179,0
-677,1111,960,0
-20,441,716,0
44,444,712,0
-142,348,493,0
-278,332,364,0
-310,466,409,0
-367,648,572,0
-381,588,748,0
-357,522,682,0
-307,748,593,0
-155,843,630,0
-15,652,598,0
217,565,484,0
430,573,378,0
662,803,363,0
964,779,421,0
1145,583,435,0
1066,507,325,0
904,334,263,0
842,262,253,0
823,283,240,0
786,387,234,0
763,543,244,0
805,605,251,0
925,630,283,0
1113,584,305,0
1210,443,238,0
1284,349,250,0
1271,447,364,0
1106,472,355,0
907,551,343,0
861,500,259,0
928,457,225,0
921,375,212,0
783,298,155,0
704,323,124,0
680,373,101,0
727,392,87,0
788,367,73,0
880,333,58,0
992,313,59,0
1123,318,67,0
1141,332,76,0
1139,347,113,0
1213,396,78,0
876,369,136,0
834,435,322,0
911,418,365,0
864,281,232,0
672,114,177,0
623,146,262,0
604,265,308,0
625,318,266,0
659,373,267,0
701,413,295,0
830,447,319,0
1028,450,322,0
1191,423,323,0
1153,413,354,0
1181,424,359,0
1322,544,401,0
1311,491,337,0
990,307,212,0
974,287,150,0
966,240,135,0
866,236,121,0
727,309,73,0
655,390,14,0
681,436,-50,0
716,439,-90,0
746,404,-79,0
798,373,-25,0
893,398,25,0
1016,413,55,0
1166,412,108,0
1169,374,192,0
1272,388,263,0
1099,365,370,0
898,300,453,0
941,209,415,0
1066,199,314,0
1017,121,231,0
835,157,249,0
719,215,293,0
649,253,229,0
615,309,134,0
595,379,122,0
602,431,193,0
665,478,204,0
774,426,208,0
947,429,245,0
1056,374,238,0
1091,387,245,0
1302,506,285,0
1263,566,314,0
1017,440,248,0
935,347,180,0
1074,362,192,0
1034,295,162,0
877,277,94,0
679,292,62,0
648,387,51,0
679,481,16,0
711,444,-41,0
762,427,-57,0
846,498,77,0
1003,567,200,0
1120,471,190,0
1127,336,187,0
1090,265,259,0
995,228,287,0
1006,240,234,0
853,263,170,0
819,305,139,0
989,427,207,0
1063,388,178,0
901,294,151,0
688,272,214,0
604,317,257,0
557,309,260,0
557,327,264,0
610,334,289,0
725,349,332,0
905,374,380,0
1106,397,411,0
1232,453,418,0
1253,446,399,0
1353,444,359,0
1203,387,300,0
963,249,156,0
1111,309,150,0
1108,345,155,0
886,342,126,0
620,312,95,0
479,347,57,0
479,400,15,0
520,434,12,0
545,505,102,0
682,599,201,0
860,621,241,0
1045,483,272,0
1152,379,335,0
1087,271,330,0
1213,306,273,0
993,351,307,0
860,374,319,0
948,427,272,0
999,313,183,0
832,179,151,0
686,181,181,0
623,234,157,0
590,283,125,0
588,338,147,0
633,399,209,0
708,399,279,0
845,441,346,0
1110,444,367,0
1294,437,359,0
1334,454,352,0
1250,522,376,0
1123,517,339,0
844,429,250,0
870,434,212,0
975,405,202,0
941,322,144,0
819,267,97,0
678,273,78,0
638,352,82,0
646,404,72,0
718,407,59,0
869,383,75,0
1044,327,110,0
1247,254,130,0
1269,213,163,0
1200,250,210,0
1159,337,204,0
1003,379,223,0
960,364,247,0
1011,299,226,0
1007,167,153,0
794,26,116,0
647,75,162,0
594,159,177,0
599,235,162,0
631,298,183,0
662,328,235,0
691,365,278,0
795,400,336,0
1028,425,359,0
1245,394,336,0
1221,393,336,0
1250,462,334,0
1175,530,347,0
988,453,253,0
948,403,183,0
985,400,205,0
878,363,182,0
736,324,124,0
650,319,97,0
646,357,93,0
721,380,97,0
839,351,100,0
985,294,118,0
1159,237,129,0
1280,217,141,0
1108,245,178,0
1137,294,176,0
1127,423,172,0
780,349,206,0
800,362,288,0
939,394,301,0
832,177,170,0
616,43,134,0
557,158,200,0
613,254,216,0
685,367,212,0
720,414,262,0
789,428,330,0
949,429,355,0
1117,449,374,0
1116,427,391,0
1242,443,336,0
1341,594,416,0
1082,483,305,0
866,404,205,0
892,438,255,0
894,441,218,0
795,391,142,0
736,324,91,0
737,311,73,0
776,318,47,0
836,302,50,0
907,285,83,0
1016,276,101,0
1100,265,116,0
1082,291,164,0
1019,334,213,0
1182,412,248,0
907,353,326,0
727,289,399,0
850,318,393,0
923,266,273,0
770,176,212,0
659,240,264,0
642,285,237,0
689,336,218,0
734,415,251,0
738,431,272,0
834,429,298,0
1062,460,326,0
1244,505,337,0
1432,559,306,0
1452,677,392,0
1194,521,322,0
936,275,236,0
958,316,232,0
942,330,215,0
798,350,175,0
680,317,128,0
603,304,89,0
591,309,40,0
651,316,32,0
785,355,92,0
966,342,126,0
1174,290,127,0
1247,270,186,0
1256,280,218,0
1058,300,205,0
957,400,262,0
808,394,289,0
831,370,304,0
934,359,295,0
902,258,238,0
791,157,198,0
693,200,203,0
660,237,201,0
643,319,184,0
637,370,215,0
673,391,252,0
760,369,251,0
916,345,253,0
1032,332,259,0
1055,370,285,0
946,390,291,0
1130,504,321,0
1305,618,382,0
1138,486,302,0
917,287,182,0
846,292,146,0
846,322,155,0
797,385,150,0
743,371,102,0
768,369,56,0
848,379,27,0
896,322,29,0
866,242,32,0
829,228,52,0
811,272,62,0
766,310,93,0
1001,296,93,0
1581,443,272,0
1308,412,484,0
1071,303,334,0
590,86,114,0
376,72,159,0
358,209,202,0
468,388,204,0
710,514,161,0
996,528,204,0
1232,620,353,0
1341,666,454,0
1139,523,321,0
1303,504,291,0
1135,490,315,0
1044,365,153,0
1016,423,140,0
990,387,131,0
906,352,141,0
837,342,101,0
825,346,40,0
852,358,7,0
858,323,14,0
895,279,17,0
997,269,44,0
1096,265,70,0
1008,245,104,0
1000,258,126,0
986,338,146,0
854,373,258,0
883,406,386,0
993,404,398,0
918,268,266,0
732,133,223,0
663,187,249,0
686,263,222,0
731,382,233,0
739,456,293,0
788,480,319,0
931,500,387,0
1073,484,413,0
1119,443,385,0
1322,485,355,0
1260,567,388,0
1060,492,281,0
942,361,185,0
1040,380,175,0
1048,367,137,0
940,338,120,0
849,282,87,0
776,272,51,0
723,277,40,0
659,282,66,0
644,298,84,0
684,299,80,0
853,327,79,0
1077,346,127,0
1275,350,162,0
1283,354,201,0
1161,393,314,0
992,391,342,0
907,309,258,0
886,258,206,0
777,204,184,0
693,219,166,0
692,285,162,0
799,359,178,0
878,345,193,0
791,311,188,0
777,338,241,0
865,401,300,0
985,413,305,0
958,372,270,0
917,327,245,0
1067,469,265,0
1124,659,312,0
1125,728,233,0
1072,713,144,0
997,404,114,0
890,164,117,0
853,108,112,0
868,188,131,0
884,356,137,0
894,423,111,0
918,350,66,0
1033,270,42,0
1130,263,66,0
1044,307,143,0
1058,338,158,0
1055,360,124,0
842,315,187,0
892,313,265,0
992,317,249,0
859,217,149,0
660,122,135,0
589,208,178,0
608,288,192,0
646,357,199,0
657,390,241,0
713,404,295,0
888,451,360,0
1141,505,397,0
1232,506,411,0
1304,471,357,0
1258,524,383,0
1132,525,301,0
1001,463,181,0
988,431,176,0
992,369,154,0
878,317,123,0
810,274,93,0
786,285,60,0
784,305,28,0
796,311,16,0
867,306,24,0
953,276,36,0
1113,267,56,0
1099,265,103,0
1199,328,134,0
1081,375,185,0
878,375,279,0
870,383,323,0
953,349,284,0
865,227,192,0
704,186,187,0
655,242,200,0
687,313,183,0
739,363,211,0
734,389,224,0
751,378,277,0
856,414,336,0
1036,454,351,0
1076,455,347,0
1167,465,318,0
1264,584,346,0
1114,592,309,0
1009,464,151,0
1009,424,119,0
990,318,123,0
890,285,101,0
838,276,73,0
814,300,49,0
786,320,28,0
769,307,30,0
815,290,36,0
898,277,57,0
1039,291,88,0
1029,290,143,0
1062,307,171,0
1189,370,182,0
982,369,231,0
891,382,327,0
955,401,334,0
951,311,230,0
772,144,151,0
688,148,161,0
679,225,159,0
709,343,140,0
711,412,156,0
719,409,180,0
834,411,212,0
1026,419,243,0
1187,450,278,0
1049,416,307,0
1024,433,313,0
1095,623,430,0
1025,587,346,0
955,461,215,0
972,444,187,0
932,328,185,0
849,230,129,0
836,231,132,0
876,271,97,0
933,313,60,0
947,304,50,0
938,287,50,0
961,291,72,0
1015,326,92,0
964,336,172,0
1022,294,182,0
1110,370,206,0
879,318,300,0
913,316,390,0
1060,345,346,0
944,214,187,0
731,161,190,0
703,244,197,0
726,317,152,0
731,420,168,0
697,498,236,0
694,513,308,0
809,501,354,0
967,452,412,0
1107,392,471,0
1287,404,491,0
1462,495,516,0
1320,442,454,0
1075,301,304,0
1129,245,155,0
1197,280,88,0
1087,367,84,0
862,353,72,0
591,314,31,0
450,307,0,0
421,323,0,0
444,327,-2,0
536,342,21,0
689,383,50,0
962,483,31,0
1148,700,92,0
1082,759,117,0
1090,568,56,0
921,506,38,0
746,515,49,0
730,698,83,0
798,680,2,0
901,840,165,0
877,489,869,0
607,252,710,0
528,355,111,0
501,542,-230,0
470,458,-201,0
580,503,50,0
792,653,299,0
931,794,459,0
911,981,418,0
790,948,356,0
938,866,273,0
970,1211,-32,0
706,743,-296,0
531,318,-322,0
546,759,-256,0
546,749,-7,0
469,771,219,0
438,243,291,0
487,244,480,0
541,464,382,0
560,596,312,0
623,672,278,0
723,681,246,0
834,560,224,0
888,467,252,0
995,494,219,0
1269,605,155,0
1073,664,182,0
1032,558,238,0
1175,439,166,0
1022,300,16,0
731,221,19,0
638,263,23,0
607,295,-10,0
609,361,8,0
609,379,101,0
639,375,177,0
743,405,241,0
906,454,316,0
1011,515,398,0
1042,473,399,0
1296,599,444,0
1251,624,438,0
986,465,283,0
930,440,179,0
924,401,201,0
869,356,173,0
826,328,145,0
811,320,131,0
794,322,103,0
788,321,76,0
820,305,59,0
927,300,64,0
1173,284,77,0
1367,196,63,0
1272,219,90,0
1208,345,153,0
960,445,217,0
706,459,313,0
762,398,330,0
793,261,227,0
735,143,141,0
632,147,155,0
609,231,197,0
675,326,193,0
750,394,207,0
751,416,238,0
795,408,271,0
915,397,321,0
1025,391,359,0
1039,360,355,0
1188,420,334,0
1208,529,404,0
993,472,321,0
915,424,214,0
1067,460,207,0
1061,383,201,0
904,267,123,0
827,248,106,0
820,270,93,0
817,306,104,0
791,302,115,0
808,292,136,0
871,283,176,0
933,277,174,0
933,278,221,0
964,308,247,0
1112,363,235,0
997,356,218,0
820,362,264,0
1009,393,249,0
904,248,176,0
744,163,141,0
705,223,169,0
706,313,157,0
715,383,170,0
684,391,211,0
721,383,252,0
880,420,308,0
1063,442,330,0
1140,457,356,0
1297,503,384,0
1273,565,442,0
1038,444,317,0
828,352,213,0
923,427,217,0
1002,446,204,0
936,350,125,0
881,256,85,0
871,254,71,0
870,284,48,0
852,294,25,0
846,281,12,0
851,286,17,0
905,288,23,0
981,313,71,0
1000,329,134,0
1171,366,149,0
1057,332,207,0
789,273,284,0
780,317,325,0
928,383,320,0
920,289,238,0
783,247,228,0
710,292,276,0
702,325,243,0
701,352,203,0
711,376,228,0
742,386,272,0
846,417,300,0
1022,462,321,0
1170,468,314,0
1229,459,296,0
1271,544,338,0
1127,539,290,0
874,411,206,0
897,406,163,0
981,462,200,0
948,426,144,0
859,298,85,0
810,258,73,0
806,269,65,0
817,296,47,0
807,288,32,0
806,261,35,0
869,264,49,0
1014,281,56,0
1039,283,98,0
1150,325,114,0
1146,392,178,0
904,361,233,0
825,377,279,0
949,440,328,0
917,305,248,0
751,191,184,0
682,216,209,0
690,281,216,0
719,364,204,0
698,379,229,0
710,372,253,0
817,403,289,0
1009,441,317,0
1088,433,321,0
1195,415,279,0
1292,567,376,0
1149,540,286,0
923,406,171,0
949,379,157,0
996,381,159,0
920,403,84,0
842,364,48,0
777,345,19,0
777,361,7,0
775,316,0,0
788,240,38,0
747,289,-25,0
773,382,62,0
882,456,125,0
937,468,199,0
1132,474,253,0
1139,478,375,0
952,325,423,0
855,233,388,0
994,280,279,0
1008,307,229,0
819,304,221,0
720,287,179,0
691,311,125,0
675,347,95,0
655,372,93,0
622,378,125,0
733,388,178,0
943,406,222,0
1182,449,246,0
1146,427,268,0
1282,484,292,0
1209,601,381,0
982,519,293,0
851,402,184,0
947,439,171,0
917,406,178,0
800,332,138,0
779,310,125,0
779,339,101,0
774,343,84,0
745,327,106,0
792,330,122,0
953,342,134,0
1093,309,136,0
1132,287,176,0
1155,271,172,0
1184,350,170,0
853,320,205,0
750,344,225,0
954,389,202,0
1011,284,156,0
803,169,143,0
658,223,163,0
644,297,163,0
675,369,159,0
717,381,189,0
717,344,225,0
808,344,262,0
968,387,299,0
1108,435,308,0
1057,432,305,0
1187,481,285,0
1222,567,329,0
1037,508,243,0
885,429,144,0
987,494,160,0
955,408,115,0
864,299,50,0
823,283,47,0
817,306,46,0
817,348,34,0
846,337,2,0
937,325,4,0
1007,289,12,0
1053,234,7,0
1032,222,47,0
991,284,119,0
957,317,156,0
1229,400,137,0
975,304,192,0
892,327,315,0
909,395,403,0
854,290,273,0
707,145,173,0
637,207,212,0
650,293,270,0
702,390,226,0
729,419,191,0
760,412,229,0
882,397,253,0
1090,445,284,0
1147,485,308,0
1036,458,272,0
1252,549,312,0
1145,576,335,0
1065,467,161,0
1080,482,155,0
1046,385,140,0
920,302,113,0
832,269,71,0
812,291,50,0
831,326,38,0
846,334,24,0
889,280,18,0
990,230,22,0
1177,157,-7,0
1068,227,33,0
999,338,104,0
1003,451,128,0
842,396,166,0
838,381,256,0
1005,354,275,0
974,228,193,0
777,124,173,0
658,180,207,0
638,266,206,0
656,366,186,0
687,400,208,0
754,429,236,0
933,459,293,0
1147,514,352,0
1132,512,393,0
1071,429,334,0
1231,553,407,0
1117,556,340,0
1077,469,179,0
1130,437,148,0
1128,312,121,0
1003,222,98,0
921,230,84,0
884,296,25,0
871,344,-17,0
851,332,-21,0
824,286,2,0
825,272,15,0
862,273,22,0
905,308,74,0
1004,336,139,0
1082,356,170,0
938,348,255,0
918,382,369,0
1067,453,340,0
1098,308,212,0
896,158,152,0
785,193,150,0
803,277,141,0
831,426,134,0
812,509,139,0
738,455,151,0
790,423,190,0
928,405,223,0
1044,427,237,0
978,447,270,0
1038,496,254,0
1228,655,344,0
1040,594,254,0
1025,482,116,0
1077,483,151,0
1032,349,164,0
931,235,111,0
909,220,97,0
902,248,80,0
886,272,51,0
876,273,47,0
868,257,36,0
894,247,32,0
944,273,44,0
1035,301,71,0
1168,405,97,0
916,408,207,0
859,392,278,0
1003,399,237,0
974,295,140,0
764,137,149,0
676,184,181,0
696,258,166,0
753,381,167,0
780,433,208,0
773,393,246,0
891,421,290,0
1078,496,360,0
1189,514,390,0
1212,457,343,0
1217,488,372,0
1079,485,330,0
908,391,184,0
988,459,182,0
999,456,185,0
921,360,112,0
846,291,67,0
792,262,49,0
762,278,40,0
743,320,55,0
696,424,162,0
848,480,218,0
1011,414,182,0
1066,256,164,0
1101,113,194,0
1218,109,164,0
1061,210,138,0
876,325,169,0
813,388,174,0
883,433,171,0
866,350,185,0
739,266,192,0
692,239,201,0
691,260,207,0
692,288,205,0
701,326,245,0
728,369,302,0
824,421,358,0
989,447,379,0
1156,448,369,0
1148,430,362,0
1269,466,347,0
1272,588,398,0
1033,555,319,0
927,427,181,0
981,419,150,0
962,378,138,0
848,334,115,0
785,305,78,0
787,315,31,0
815,320,3,0
816,290,5,0
839,273,31,0
917,277,49,0
1081,291,54,0
1120,288,111,0
1200,315,216,0
978,431,415,0
901,326,434,0
947,246,287,0
930,180,266,0
785,202,299,0
717,270,259,0
694,314,204,0
676,347,198,0
659,380,212,0
684,363,244,0
749,362,264,0
886,349,273,0
1045,386,306,0
1032,423,315,0
1066,459,264,0
1232,657,322,0
1091,710,296,0
1008,546,126,0
1043,459,100,0
988,297,138,0
864,261,133,0
824,274,112,0
843,332,103,0
861,353,110,0
827,328,131,0
835,304,156,0
924,313,178,0
1034,317,198,0
1047,305,243,0
1022,261,239,0
1173,318,202,0
904,292,206,0
762,315,221,0
865,416,226,0
993,419,172,0
868,262,111,0
736,227,109,0
728,277,128,0
757,371,102,0
768,429,130,0
756,392,184,0
818,403,239,0
977,436,290,0
1095,493,333,0
984,489,375,0
1069,501,360,0
1157,597,402,0
1016,525,292,0
966,443,155,0
1027,435,135,0
1040,369,133,0
957,290,96,0
881,259,65,0
859,267,29,0
855,282,-10,0
826,287,-30,0
824,274,-23,0
876,283,-2,0
975,290,3,0
984,287,50,0
1125,323,106,0
1136,372,167,0
924,398,302,0
878,397,378,0
1001,416,353,0
1016,290,269,0
804,168,254,0
675,204,233,0
659,276,178,0
681,400,146,0
668,454,137,0
652,458,177,0
801,479,211,0
1039,499,240,0
1164,453,267,0
1164,364,242,0
1341,438,265,0
1210,567,333,0
932,459,224,0
926,432,138,0
1002,410,146,0
918,325,127,0
825,247,87,0
777,259,66,0
768,283,41,0
755,281,31,0
733,270,48,0
764,276,62,0
849,288,52,0
961,293,55,0
1014,317,112,0
1240,370,126,0
1186,389,146,0
1020,426,238,0
864,439,292,0
887,396,257,0
947,277,202,0
841,164,169,0
728,183,166,0
690,260,167,0
710,378,179,0
712,386,213,0
707,351,242,0
766,340,286,0
874,367,320,0
1004,396,357,0
979,452,345,0
1088,439,314,0
1224,550,347,0
1132,558,296,0
902,449,188,0
931,417,123,0
997,387,125,0
929,300,77,0
860,260,62,0
826,279,49,0
814,316,29,0
807,332,18,0
840,322,20,0
884,302,40,0
982,287,57,0
1069,286,85,0
1026,288,140,0
1140,329,169,0
1072,366,192,0
811,367,265,0
743,407,338,0
869,420,314,0
974,297,198,0
872,203,158,0
766,244,203,0
733,301,219,0
721,385,188,0
705,410,200,0
717,381,246,0
787,384,288,0
944,420,330,0
1084,422,360,0
1043,353,342,0
903,329,301,0
1012,374,231,0
1195,544,251,0
910,597,260,0
743,450,103,0
882,454,26,0
979,354,28,0
937,229,35,0
874,186,10,0
896,202,-24,0
882,253,-32,0
806,263,-24,0
737,247,-7,0
680,246,-18,0
735,311,-60,0
765,545,-94,0
856,621,-79,0
967,560,-186,0
977,523,-113,0
925,620,24,0
917,516,-67,0
1113,475,-99,0
1069,400,-82,0
963,345,-67,0
913,376,-61,0
854,332,-92,0
798,278,-124,0
778,290,-159,0
751,271,-237,0
767,330,-225,0
836,382,-112,0
946,477,2,0
998,544,55,0
986,464,43,0
1028,381,27,0
1149,484,179,0
1095,468,94,0
1223,299,-308,0
1221,229,-368,0
986,149,-207,0
892,181,-141,0
864,231,-68,0
757,269,-51,0
698,328,-70,0
670,299,-109,0
643,232,-132,0
682,227,-61,0
757,305,-36,0
908,328,-38,0
1073,304,-76,0
1176,369,-71,0
1142,420,80,0
1146,333,-29,0
1279,232,-94,0
1175,98,-104,0
1020,505,22,0
835,391,46,0
692,269,-30,0
541,249,-77,0
444,207,-39,0
464,158,-40,0
543,190,-36,0
738,166,-74,0
1076,397,-120,0
1331,408,-45,0
1528,464,18,0
1465,399,-42,0
1146,-4,-268,0
1063,-98,-319,0
904,74,-324,0
771,108,-260,0
774,218,-179,0
756,446,-106,0
861,713,111,0
971,305,242,0
1036,108,83,0
1084,223,27,0
998,200,-70,0
822,230,-73,0
603,282,-18,0
494,260,-17,0
675,-81,-84,0
1612,-155,-552,0
1527,479,-133,0
1739,-403,-158,0
1378,-293,-512,0
771,-56,-330,0
711,-12,49,0
654,264,122,0
566,365,90,0
561,406,158,0
600,516,291,0
726,567,353,0
1064,550,382,0
1836,553,444,0
1927,-10,170,0
1657,-140,-173,0
1456,50,33,0
1251,392,151,0
1162,655,116,0
937,436,1,0
734,279,-92,0
629,233,-142,0
556,171,-103,0
555,102,-56,0
604,112,-29,0
676,178,1,0
817,300,-5,0
1029,524,-12,0
1157,603,102,0
1241,653,313,0
1292,582,415,0
1287,493,317,0
1092,321,208,0
944,165,222,0
871,146,292,0
811,241,317,0
757,378,325,0
685,450,333,0
676,461,342,0
813,473,368,0
1061,468,418,0
1207,388,394,0
1168,299,332,0
1347,401,366,0
1357,496,393,0
1073,417,295,0
986,371,234,0
1011,390,212,0
884,309,174,0
634,252,88,0
499,296,21,0
570,420,-26,0
707,478,-40,0
810,443,-19,0
908,366,37,0
1033,321,76,0
1140,336,95,0
1028,337,143,0
1139,375,201,0
1074,476,310,0
907,431,446,0
953,409,528,0
1054,302,427,0
911,120,293,0
718,121,282,0
635,198,291,0
638,316,261,0
643,417,242,0
655,480,287,0
759,485,308,0
934,464,297,0
1070,407,321,0
1150,377,364,0
1311,366,322,0
1375,435,312,0
1153,415,282,0
953,377,177,0
979,395,100,0
988,445,95,0
789,394,77,0
569,281,34,0
485,261,19,0
518,264,8,0
623,273,-3,0
815,305,34,0
1073,294,67,0
1202,263,99,0
1274,285,141,0
1243,332,123,0
1035,421,189,0
872,480,293,0
884,395,284,0
936,248,159,0
833,147,117,0
726,154,182,0
679,266,164,0
667,348,136,0
671,387,147,0
649,365,172,0
708,356,229,0
834,371,258,0
997,369,249,0
1083,362,233,0
994,396,245,0
1109,467,245,0
1229,705,344,0
1067,727,286,0
980,579,90,0
1033,456,44,0
965,220,89,0
848,136,108,0
817,170,100,0
856,325,76,0
898,418,46,0
889,404,20,0
905,336,6,0
961,302,27,0
1045,296,50,0
999,293,96,0
1087,338,100,0
1058,393,129,0
836,365,206,0
875,389,290,0
981,365,261,0
910,203,145,0
735,90,131,0
677,158,148,0
696,249,122,0
723,366,130,0
705,437,161,0
713,435,186,0
847,455,227,0
1044,455,262,0
1121,424,281,0
1178,401,274,0
1283,546,349,0
1145,596,350,0
901,462,198,0
896,416,144,0
977,399,168,0
942,354,116,0
882,300,84,0
846,295,67,0
823,306,34,0
808,307,11,0
827,298,10,0
901,304,22,0
974,304,35,0
1040,303,60,0
1020,331,136,0
1178,360,155,0
1131,361,175,0
913,344,284,0
850,324,359,0
932,307,280,0
937,181,170,0
773,136,146,0
686,223,149,0
682,317,128,0
695,401,130,0
685,439,138,0
679,403,130,0
806,412,156,0
992,450,221,0
1139,502,287,0
1147,496,313,0
1326,563,352,0
1259,595,424,0
993,395,320,0
902,313,228,0
991,331,221,0
988,347,202,0
876,332,141,0
799,300,118,0
773,324,85,0
783,347,36,0
782,317,17,0
810,287,21,0
873,282,37,0
952,290,51,0
996,306,98,0
1031,302,134,0
1206,356,127,0
1057,341,161,0
820,336,246,0
853,404,284,0
954,386,261,0
895,249,205,0
747,154,179,0
693,204,213,0
700,281,215,0
713,437,197,0
682,413,220,0
711,397,232,0
864,413,251,0
1086,434,266,0
1165,426,273,0
1318,474,298,0
1333,548,369,0
1185,467,295,0
902,310,186,0
857,327,153,0
888,409,172,0
860,435,132,0
797,327,50,0
783,278,11,0
807,274,4,0
831,289,-5,0
833,290,-9,0
833,318,27,0
851,359,86,0
903,350,112,0
986,339,159,0
1166,340,177,0
1218,349,177,0
984,271,240,0
864,367,348,0
851,337,255,0
937,292,181,0
929,252,197,0
864,296,201,0
793,293,178,0
739,313,151,0
721,347,147,0
674,356,145,0
687,368,163,0
797,380,182,0
923,398,196,0
1019,425,229,0
1018,437,254,0
1163,480,265,0
1292,613,386,0
1167,551,371,0
969,329,253,0
1017,265,200,0
1051,259,219,0
939,260,186,0
807,274,148,0
743,309,119,0
754,348,71,0
764,336,27,0
752,264,15,0
802,298,33,0
976,482,5,0
1152,688,76,0
1255,661,111,0
1229,679,118,0
1030,627,170,0
833,588,220,0
714,467,274,0
729,409,338,0
761,485,359,0
656,378,480,0
531,404,293,0
449,521,208,0
401,493,190,0
379,574,310,0
395,530,471,0
382,769,450,0
423,863,370,0
488,907,377,0
564,1059,457,0
505,925,400,0
880,1062,58,0
1054,1123,49,0
783,748,-24,0
466,688,-269,0
243,780,-286,0
268,817,-155,0
287,620,-118,0
374,520,-112,0
486,659,-105,0
487,831,46,0
405,889,74,0
375,760,98,0
346,738,66,0
387,801,-14,0
451,859,-84,0
630,790,26,0
667,924,106,0
782,864,255,0
884,679,300,0
773,822,100,0
676,737,130,0
656,460,174,0
703,387,175,0
835,372,201,0
886,327,219,0
890,310,180,0
850,314,112,0
771,344,66,0
688,391,55,0
658,439,55,0
691,464,62,0
866,491,71,0
1040,457,65,0
1166,440,51,0
1470,614,167,0
1254,555,179,0
894,441,147,0
822,410,125,0
985,493,125,0
1003,436,90,0
935,429,65,0
933,448,60,0
973,472,72,0
1014,386,55,0
1008,282,71,0
948,209,45,0
837,224,106,0
827,252,162,0
809,325,171,0
806,360,175,0
854,373,217,0
1160,404,167,0
1227,416,108,0
892,351,88,0
826,379,128,0
1065,474,68,0
1068,396,-62,0
897,272,-29,0
815,268,27,0
744,309,1,0
739,374,21,0
726,415,65,0
711,418,96,0
782,443,175,0
893,553,272,0
977,658,346,0
1193,683,350,0
1368,753,409,0
1192,476,270,0
1057,252,134,0
1077,251,143,0
1075,307,176,0
992,382,167,0
953,376,108,0
904,345,36,0
858,315,-11,0
803,253,-14,0
771,226,-21,0
801,258,-25,0
804,279,-3,0
780,278,63,0
1015,332,90,0
1211,423,128,0
1013,307,142,0
841,305,257,0
890,398,284,0
986,391,251,0
927,329,194,0
855,328,196,0
844,362,229,0
845,392,202,0
809,416,211,0
762,424,238,0
814,477,280,0
934,553,336,0
1020,604,361,0
1040,532,301,0
1298,622,327,0
1277,600,308,0
1065,450,204,0
1018,444,156,0
1112,468,144,0
1091,411,99,0
1021,283,43,0
960,247,19,0
932,255,0,0
877,250,-16,0
838,250,-28,0
830,268,-17,0
831,278,12,0
816,263,35,0
866,265,68,0
1041,364,113,0
954,328,169,0
781,292,231,0
859,392,284,0
1052,485,329,0
1048,391,288,0
909,301,238,0
842,304,248,0
860,360,271,0
840,429,261,0
769,454,263,0
799,492,290,0
925,543,335,0
1053,575,363,0
1146,505,306,0
1358,637,411,0
1167,471,270,0
1007,376,179,0
1112,422,200,0
1149,427,190,0
1011,299,96,0
885,243,33,0
863,283,23,0
849,301,3,0
811,258,-14,0
788,223,-15,0
802,263,11,0
786,273,28,0
760,271,51,0
791,331,121,0
1027,390,177,0
1157,398,213,0
929,280,225,0
902,329,317,0
1048,498,388,0
1060,450,344,0
944,341,275,0
864,300,293,0
845,333,331,0
802,396,305,0
746,457,312,0
732,513,326,0
842,579,359,0
1008,608,368,0
1126,562,314,0
1432,626,311,0
1403,563,263,0
1154,338,129,0
1166,351,178,0
1184,393,151,0
1139,421,113,0
1035,352,57,0
898,277,9,0
789,239,-13,0
696,221,-33,0
648,212,-55,0
658,226,-54,0
685,235,-53,0
704,270,-26,0
752,336,60,0
1129,445,108,0
1253,515,209,0
990,421,358,0
1075,459,427,0
1163,546,367,0
1064,256,283,0
862,156,267,0
759,174,286,0
758,325,310,0
763,508,282,0
761,585,282,0
774,556,292,0
880,536,314,0
1089,530,340,0
1083,417,272,0
1244,437,231,0
1202,529,277,0
1041,461,142,0
1033,478,104,0
1009,493,105,0
903,409,86,0
823,321,40,0
783,274,13,0
770,247,2,0
760,237,-5,0
711,230,-2,0
691,233,0,0
699,239,5,0
694,233,19,0
566,225,89,0
843,212,120,0
1866,467,74,0
1563,763,476,0
1429,697,917,0
1117,60,524,0
696,-232,153,0
682,-69,178,0
731,248,266,0
775,459,314,0
828,584,364,0
955,652,472,0
1084,775,566,0
1069,831,517,0
1042,552,345,0
1356,593,419,0
1305,392,294,0
1456,451,223,0
1376,439,231,0
1191,422,197,0
1049,338,112,0
994,340,24,0
1017,367,-31,0
1083,328,-47,0
1063,257,-36,0
959,176,-4,0
852,174,32,0
705,211,115,0
803,282,257,0
793,231,381,0
775,146,394,0
905,172,438,0
1050,220,462,0
1092,231,358,0
1064,256,231,0
1141,341,153,0
1243,502,243,0
1258,703,237,0
1156,778,226,0
1136,850,367,0
1095,886,422,0
925,788,375,0
877,638,333,0
1168,817,341,0
1180,655,269,0
1338,557,260,0
1399,489,209,0
1336,349,162,0
1185,278,115,0
1096,295,62,0
1063,319,2,0
1048,309,-24,0
967,256,-26,0
902,199,-18,0
833,189,8,0
730,212,76,0
803,246,165,0
913,313,290,0
841,299,473,0
982,232,517,0
1144,220,442,0
1087,159,287,0
972,157,259,0
956,342,179,0
1045,478,87,0
1149,652,94,0
1052,692,143,0
968,689,198,0
1060,720,282,0
1041,805,282,0
944,661,233,0
1177,734,266,0
1062,616,236,0
1118,551,223,0
1213,609,205,0
1227,530,154,0
1183,371,99,0
1125,287,67,0
1088,252,39,0
1048,231,4,0
965,212,-17,0
879,209,-19,0
809,247,-7,0
746,257,-1,0
663,269,38,0
725,314,122,0
816,390,217,0
781,376,320,0
979,367,368,0
1218,484,406,0
1151,377,335,0
935,291,256,0
880,267,234,0
971,343,292,0
976,500,407,0
830,623,539,0
751,721,560,0
943,675,490,0
1193,620,401,0
1102,425,341,0
1325,410,321,0
1307,382,354,0
1242,389,193,0
1270,431,77,0
1116,462,61,0
910,386,53,0
790,292,16,0
745,267,-3,0
754,272,26,0
767,297,85,0
785,288,110,0
804,250,119,0
821,215,149,0
808,229,204,0
824,278,232,0
1083,376,291,0
1077,331,336,0
1106,261,335,0
1201,345,381,0
1135,370,370,0
875,261,284,0
700,230,167,0
726,298,125,0
819,398,217,0
856,532,216,0
884,504,208,0
1011,613,300,0
1108,711,382,0
984,587,346,0
1180,530,350,0
1315,598,584,0
1265,287,430,0
1208,258,311,0
1061,460,362,0
1006,746,294,0
873,538,202,0
827,464,77,0
901,558,-202,0
985,491,-395,0
1019,205,-309,0
926,62,-112,0
786,58,15,0
645,166,105,0
707,293,258,0
879,427,348,0
847,338,335,0
968,313,472,0
1135,347,605,0
1138,259,497,0
1051,254,400,0
998,291,357,0
968,409,279,0
877,557,281,0
761,624,318,0
841,672,295,0
1038,705,287,0
1093,686,268,0
988,560,269,0
1265,654,272,0
1189,619,184,0
1202,537,177,0
1414,532,208,0
1454,442,223,0
1305,242,165,0
1127,180,94,0
970,203,59,0
827,236,57,0
686,257,38,0
610,225,2,0
611,213,-17,0
626,207,-7,0
650,280,64,0
898,364,126,0
1068,408,162,0
1054,390,275,0
1201,409,386,0
1355,456,383,0
1240,372,298,0
962,250,260,0
827,217,238,0
829,285,246,0
855,352,267,0
800,432,260,0
760,539,329,0
847,700,416,0
993,791,429,0
1060,620,327,0
1366,639,349,0
1336,543,345,0
1230,350,147,0
1362,356,173,0
1355,416,189,0
1248,379,138,0
1137,304,96,0
1047,256,31,0
956,223,-26,0
840,196,-33,0
744,201,48,0
678,245,78,0
574,264,56,0
473,296,105,0
469,361,219,0
735,446,262,0
957,433,264,0
958,380,337,0
1239,509,366,0
1473,707,372,0
1229,453,214,0
895,213,99,0
858,183,151,0
909,293,126,0
897,442,159,0
799,581,184,0
713,602,245,0
775,652,324,0
949,752,378,0
1018,641,359,0
1260,508,321,0
1418,528,350,0
1279,455,259,0
1183,393,197,0
1257,423,168,0
1245,388,128,0
1109,314,96,0
1006,254,61,0
915,251,14,0
845,237,-25,0
754,223,-34,0
665,211,-38,0
628,206,-48,0
617,214,-30,0
819,341,71,0
1191,534,119,0
1031,509,245,0
1158,538,418,0
1397,794,412,0
1179,523,167,0
937,113,102,0
829,86,170,0
840,135,231,0
858,348,231,0
756,596,195,0
700,637,201,0
858,703,257,0
1045,630,298,0
1142,485,221,0
1457,673,299,0
1136,551,171,0
1180,387,25,0
1405,518,85,0
1295,392,44,0
1058,151,-16,0
906,180,8,0
841,235,6,0
802,249,-11,0
729,249,-18,0
761,251,5,0
888,274,28,0
1010,344,55,0
1137,386,102,0
1163,343,88,0
1121,361,135,0
1173,384,206,0
1281,419,218,0
1293,341,157,0
1113,283,161,0
867,247,248,0
641,190,263,0
494,209,205,0
466,240,216,0
537,417,203,0
636,437,202,0
742,362,246,0
836,359,256,0
960,395,262,0
968,435,308,0
1121,454,294,0
1258,584,332,0
1014,467,259,0
952,329,152,0
973,378,171,0
867,339,188,0
742,291,152,0
709,301,121,0
763,323,111,0
827,318,105,0
866,288,121,0
921,268,139,0
1047,272,139,0
1116,295,113,0
1033,320,154,0
1119,345,151,0
1114,388,140,0
820,350,153,0
705,367,212,0
840,401,226,0
861,335,184,0
728,198,131,0
665,241,153,0
694,333,189,0
728,403,231,0
714,421,298,0
769,447,396,0
874,443,424,0
969,446,400,0
1039,453,413,0
1238,445,301,0
1410,622,326,0
1145,536,207,0
944,375,119,0
1053,341,193,0
1087,359,139,0
1020,360,97,0
939,307,71,0
855,275,51,0
796,269,42,0
746,260,37,0
725,248,37,0
764,245,48,0
811,257,79,0
854,298,162,0
937,315,217,0
1146,363,209,0
1124,327,207,0
1025,348,288,0
1105,456,351,0
1069,435,263,0
830,300,141,0
715,263,103,0
751,284,118,0
806,390,90,0
788,448,104,0
771,497,153,0
826,519,197,0
879,576,256,0
945,609,308,0
1382,753,347,0
1439,760,355,0
1075,333,91,0
1146,268,170,0
1170,256,230,0
1070,304,174,0
1012,323,146,0
966,332,100,0
919,314,27,0
863,290,-14,0
824,256,-35,0
866,264,-53,0
931,259,-45,0
881,244,-5,0
1010,267,0,0
1117,363,67,0
918,343,237,0
936,397,388,0
1008,486,402,0
873,250,282,0
719,149,253,0
676,239,287,0
750,346,277,0
830,498,282,0
844,555,310,0
913,528,325,0
1078,552,338,0
1138,587,348,0
1011,455,245,0
1340,631,318,0
1177,570,249,0
1092,469,146,0
1131,519,155,0
1023,477,140,0
872,344,107,0
806,281,83,0
827,292,59,0
864,278,40,0
869,234,28,0
895,222,31,0
912,238,40,0
866,262,66,0
764,244,116,0
1037,345,116,0
1092,430,207,0
993,367,291,0
1012,427,419,0
1032,437,351,0
828,235,199,0
671,196,150,0
674,260,199,0
738,371,208,0
788,430,186,0
844,453,196,0
926,472,253,0
1039,522,294,0
1026,523,323,0
1035,435,260,0
1324,609,388,0
1164,602,413,0
1160,614,432,0
1272,800,519,0
1308,731,494,0
1203,846,424,0
1107,1147,343,0
1014,1494,243,0
914,1499,259,0
722,1631,262,0
592,1610,305,0
425,1177,135,0
141,640,75,0
66,539,-9,0
96,144,38,0
-74,-161,254,0
-95,-268,453,0
-48,-476,424,0
-99,-399,315,0
-257,417,937,0
-623,343,159,0
-706,519,389,0
-818,626,505,0
-844,713,503,0
-814,502,668,0
-793,400,702,0
-808,420,675,0
-866,554,659,0
-882,524,729,0
-1055,504,609,0
-1056,383,589,0
-902,163,556,0
-869,15,458,0
-739,102,529,0
-548,3,530,0
-536,-323,361,0
-588,-283,193,0
-638,-368,86,0
-810,-396,164,0
-1009,-123,327,0
-1235,19,469,0
-1422,263,544,0
-1429,287,637,0
-1349,174,656,0
-1290,244,633,0
-931,150,618,0
-799,219,298,0
-654,311,462,0
-762,83,504,0
-798,39,460,0
-808,17,372,0
-810,23,406,0
-734,-126,507,0
-637,-294,595,0
-750,-149,562,0
-748,-175,618,0
-916,-155,612,0
-810,-264,716,0
-967,-241,600,0
-1174,-157,349,0
-1033,-226,444,0
-977,-223,417,0
-940,-175,408,0
-786,-170,415,0
-663,-102,351,0
-614,-27,382,0
-724,70,431,0
-944,150,523,0
-1102,81,590,0
-1164,57,518,0
-1200,-27,300,0
-1038,-39,166,0
-911,-98,169,0
-924,159,435,0
-705,340,412,0
-328,296,538,0
-318,261,929,0
-513,128,454,0
-502,58,718,0
-591,-491,419,0
-714,-273,421,0
-973,-202,373,0
-1114,-234,455,0
-1269,55,532,0
-1438,-4,523,0
-1357,407,695,0
-1214,109,724,0
-1182,274,620,0
-869,84,725,0
-874,109,423,0
-944,21,322,0
-857,109,380,0
-732,11,410,0
-629,-107,384,0
-629,-8,350,0
-714,76,344,0
-810,140,449,0
-942,139,540,0
-1032,113,606,0
-1147,113,627,0
-1155,208,602,0
-1102,227,672,0
-1028,196,685,0
-897,148,482,0
-735,262,512,0
-626,295,546,0
-633,207,527,0
-672,71,432,0
-689,-47,395,0
-730,-81,435,0
-751,-25,516,0
-830,-72,538,0
-928,-99,606,0
-1019,-124,602,0
-1068,-95,598,0
-1096,-99,595,0
-1171,-96,517,0
-1130,-161,431,0
-1034,-50,363,0
-960,-59,264,0
-861,-66,242,0
-769,0,305,0
-750,60,297,0
-757,74,290,0
-799,64,303,0
-902,93,337,0
-965,83,394,0
-1021,119,446,0
-1077,102,508,0
-1118,192,539,0
-1090,155,550,0
-1123,65,591,0
-1023,73,505,0
-903,163,422,0
-737,110,467,0
-666,140,479,0
-632,110,456,0
-660,-16,379,0
-741,-94,396,0
-790,-72,463,0
-820,-78,507,0
-894,-45,561,0
-969,-74,607,0
-1057,-106,622,0
-1116,-108,488,0
-1178,-179,362,0
-1047,-77,337,0
-1008,-112,257,0
-914,-83,243,0
-803,15,268,0
-735,8,251,0
-734,-18,220,0
-792,-6,265,0
-882,50,319,0
-982,80,373,0
-1110,83,420,0
-1166,105,499,0
-1201,123,500,0
-1160,103,533,0
-1148,118,512,0
-989,228,432,0
-820,164,378,0
-720,183,399,0
-715,150,433,0
-688,53,374,0
-691,-32,335,0
-743,-50,385,0
-829,-66,424,0
-914,-66,465,0
-967,-38,547,0
-1025,-38,567,0
-1085,-40,596,0
-1092,-58,620,0
-1206,-117,492,0
-1180,-150,376,0
-1016,-129,260,0
-929,-171,174,0
-864,-11,164,0
-809,87,223,0
-764,77,288,0
-752,25,265,0
-776,40,268,0
-855,36,319,0
-968,10,395,0
-1123,17,441,0
-1263,41,469,0
-1312,27,529,0
-1284,-8,624,0
-1287,-10,545,0
-1080,121,313,0
-835,190,216,0
-780,226,230,0
-820,202,279,0
-841,240,418,0
-818,175,470,0
-771,33,394,0
-737,-53,323,0
-739,-72,346,0
-725,-78,403,0
-754,-43,445,0
-807,-16,486,0
-899,-57,541,0
-990,-129,579,0
-1089,-203,583,0
-1157,-228,587,0
-1236,-245,365,0
-1153,-247,264,0
-990,-234,240,0
-935,-206,114,0
-875,-83,81,0
-783,-24,209,0
-784,78,267,0
-780,48,307,0
-837,-15,348,0
-888,24,457,0
-1050,-68,512,0
-1157,-80,557,0
-1123,-182,554,0
-1108,-44,575,0
-1009,-67,730,0
-984,-268,753,0
-856,-129,580,0
-709,-38,541,0
-610,-97,561,0
-616,-159,638,0
-596,-122,605,0
-640,-322,452,0
-726,-184,369,0
-729,-158,463,0
-731,-280,606,0
-818,-322,658,0
-1010,-273,624,0
-1111,-311,609,0
-1191,-352,642,0
-1215,-138,613,0
-1161,-180,440,0
-1020,-164,371,0
-954,-205,222,0
-856,-183,241,0
-752,-133,306,0
-702,-164,320,0
-668,-74,362,0
-658,-107,447,0
-786,-129,505,0
-1016,50,554,0
-1140,-49,674,0
-1168,-192,603,0
-1127,-101,513,0
-959,-267,476,0
-968,-302,399,0
-774,-317,590,0
-619,-279,693,0
-648,-81,647,0
-755,-6,676,0
-831,-36,705,0
-921,-127,621,0
-955,-290,547,0
-916,-318,517,0
-791,-419,533,0
-617,-497,585,0
-543,-546,468,0
-500,-691,508,0
-388,-577,790,0
-510,-312,940,0
-899,-441,415,0
-1023,-129,460,0
-942,34,620,0
-809,-463,676,0
-679,-227,702,0
-552,-110,586,0
-490,-124,520,0
-509,-33,558,0
-581,-125,668,0
-650,-276,748,0
-679,-365,656,0
-605,-253,565,0
-547,-169,516,0
-494,-292,358,0
-276,-189,318,0
5,117,449,0
218,396,470,0
352,893,235,0
579,1150,17,0
825,1237,252,0
927,1113,283,0
1130,781,328,0
1390,671,378,0
1653,778,455,0
1600,780,417,0
1334,713,370,0
1165,742,473,0
1076,760,465,0
1058,689,388,0
1159,796,429,0
1122,737,402,0
1093,539,330,0
1161,488,332,0
1207,442,282,0
1160,348,202,0
1042,324,149,0
974,324,78,0
928,324,26,0
891,264,-4,0
872,227,-24,0
855,245,-47,0
819,241,-50,0
764,285,11,0
763,380,120,0
948,458,222,0
935,408,296,0
782,232,296,0
945,242,318,0
1193,443,488,0
1141,258,487,0
939,233,381,0
855,373,298,0
825,544,256,0
789,565,259,0
756,492,198,0
876,527,181,0
1015,609,211,0
1039,565,217,0
906,418,298,0
1160,558,419,0
1101,561,357,0
1027,594,142,0
1150,675,142,0
1138,535,115,0
993,371,76,0
911,256,77,0
892,227,118,0
898,226,81,0
894,217,57,0
896,224,37,0
861,266,-36,0
823,300,-80,0
829,337,-7,0
1069,415,112,0
942,427,278,0
693,347,453,0
701,309,445,0
955,379,343,0
1086,274,336,0
956,245,391,0
834,349,369,0
783,297,331,0
795,256,303,0
708,238,154,0
631,428,107,0
780,761,177,0
1002,879,173,0
1068,818,131,0
1226,724,136,0
1322,631,145,0
1104,558,69,0
970,533,38,0
974,596,26,0
932,464,19,0
859,354,42,0
853,277,56,0
885,242,161,0
845,175,94,0
790,215,1,0
781,273,40,0
846,320,54,0
927,364,62,0
928,389,178,0
973,395,345,0
1196,381,303,0
991,261,224,0
698,305,345,0
839,535,390,0
1048,568,283,0
904,379,221,0
718,312,193,0
677,293,167,0
680,344,107,0
681,415,89,0
657,429,98,0
769,558,151,0
931,641,202,0
1021,714,266,0
