AccX [mg],AccY,AccZ,Ground Truth
972,212,139,0
962,168,152,0
930,244,173,0
770,266,172,0
610,301,116,0
552,384,138,0
607,492,140,0
650,559,122,0
777,461,89,0
927,505,129,0
1038,565,181,0
1195,584,170,0
1311,700,223,0
1085,632,198,0
913,568,90,0
913,568,90,0
913,568,90,0
835,557,78,0
760,398,45,0
744,359,26,0
769,363,-7,0
803,356,-30,0
840,344,-35,0
845,317,-42,0
849,324,-46,0
876,341,-59,0
897,396,-24,0
1169,492,-5,0
1220,543,26,0
942,474,157,0
777,444,258,0
844,481,210,0
890,368,147,0
799,336,169,0
722,467,209,0
722,467,209,0
699,544,118,0
646,520,139,0
613,481,160,0
685,483,175,0
831,513,200,0
968,548,212,0
980,537,202,0
1141,634,193,0
1164,785,222,0
963,672,93,0
861,531,44,0
971,530,57,0
969,477,17,0
890,396,17,0
855,372,18,0
857,391,-8,0
859,391,-22,0
826,386,-6,0
789,345,25,0
789,345,25,0
823,357,28,0
826,369,70,0
894,410,115,0
1065,478,114,0
1049,471,121,0
873,481,217,0
845,524,236,0
897,530,173,0
932,492,124,0
827,412,93,0
733,417,107,0
704,433,94,0
700,459,56,0
694,486,79,0
741,513,121,0
782,543,167,0
891,601,216,0
993,603,220,0
1222,660,258,0
1222,660,258,0
1040,601,167,0
836,486,115,0
870,508,95,0
955,469,50,0
906,375,24,0
847,364,5,0
810,361,-19,0
800,321,-50,0
804,291,-64,0
772,272,-59,0
795,312,-43,0
860,373,-35,0
881,434,3,0
936,453,80,0
1260,531,63,0
1125,502,82,0
818,409,195,0
866,504,209,0
820,439,86,0
820,439,86,0
697,419,94,0
664,453,105,0
679,491,83,0
669,506,73,0
687,514,127,0
784,573,177,0
855,609,221,0
1005,633,233,0
1081,551,179,0
1187,571,178,0
1132,645,173,0
989,598,104,0
863,508,40,0
887,499,13,0
934,463,-8,0
880,380,-28,0
840,311,-35,0
813,296,-50,0
798,296,-34,0
798,296,-34,0
744,334,15,0
761,374,48,0
775,385,58,0
796,420,101,0
983,449,115,0
1298,543,35,0
1125,574,97,0
868,523,208,0
907,551,141,0
936,503,38,0
846,369,45,0
763,378,57,0
734,405,43,0
719,438,31,0
697,446,53,0
682,473,120,0
736,500,158,0
856,587,210,0
1136,652,230,0
1136,652,230,0
1292,657,216,0
1145,613,164,0
958,492,77,0
929,444,44,0
1002,367,16,0
917,281,10,0
825,351,-7,0
771,380,-47,0
758,351,-73,0
752,318,-84,0
730,293,-65,0
782,320,-45,0
841,358,-37,0
862,383,-7,0
976,435,56,0
1198,536,73,0
1056,515,135,0
886,559,168,0
886,559,168,0
886,559,168,0
895,542,171,0
773,466,133,0
727,433,117,0
720,449,115,0
696,462,103,0
661,471,126,0
715,496,159,0
832,536,192,0
967,575,211,0
1037,554,205,0
1098,484,157,0
1195,605,192,0
1086,631,139,0
874,494,37,0
865,503,35,0
935,509,31,0
898,447,-12,0
836,356,-27,0
798,314,-29,0
808,301,-43,0
811,291,-42,0
772,301,-15,0
817,360,25,0
880,410,44,0
852,403,74,0
915,391,97,0
1183,485,71,0
1084,482,90,0
845,433,182,0
854,494,185,0
896,525,110,0
840,429,90,0
692,380,93,0
656,378,65,0
702,425,49,0
727,463,45,0
739,513,88,0
806,547,137,0
856,575,181,0
950,615,225,0
1042,609,242,0
1248,562,200,0
1209,607,229,0
993,548,136,0
896,494,79,0
950,526,76,0
968,355,21,0
840,229,19,0
768,317,0,0
777,374,-27,0
790,337,-49,0
768,322,-38,0
763,325,-11,0
801,357,5,0
810,384,15,0
818,397,69,0
1061,437,82,0
1287,545,51,0
1013,492,99,0
804,456,202,0
877,565,164,0
919,519,84,0
810,373,66,0
709,384,91,0
695,437,71,0
722,505,48,0
701,492,78,0
659,488,134,0
731,532,174,0
868,589,199,0
986,619,211,0
976,532,188,0
1237,504,99,0
1233,798,217,0
1064,819,190,0
914,544,8,0
1021,431,2,0
1016,274,-18,0
879,100,-16,0
798,186,-15,0
742,307,-48,0
730,346,-95,0
693,339,-105,0
749,380,-64,0
785,402,-50,0
815,409,-15,0
904,456,72,0
1003,471,139,0
1209,348,50,0
1035,257,102,0
863,373,195,0
967,727,184,0
860,843,40,0
674,617,34,0
537,523,77,0
464,828,24,0
476,677,6,0
513,639,23,0
629,522,4,0
850,464,26,0
1021,458,87,0
1113,430,112,0
1303,500,93,0
1198,562,128,0
1027,572,106,0
809,510,73,0
748,506,35,0
762,529,20,0
711,478,12,0
699,399,-1,0
711,366,-6,0
753,345,-11,0
777,376,14,0
797,418,26,0
870,462,14,0
948,468,6,0
978,448,24,0
1003,452,76,0
1245,469,37,0
1075,466,77,0
775,397,119,0
798,486,136,0
887,454,104,0
837,324,80,0
709,312,93,0
691,319,80,0
700,329,57,0
716,322,42,0
693,344,70,0
748,445,108,0
858,534,153,0
978,578,190,0
1027,564,202,0
1068,552,178,0
1190,660,207,0
1120,711,168,0
903,570,87,0
800,509,57,0
917,505,-10,0
819,402,-19,0
771,350,-32,0
779,335,-63,0
833,340,-88,0
818,337,-77,0
815,335,-55,0
864,372,-44,0
901,389,-24,0
939,414,61,0
1144,454,108,0
1215,489,100,0
935,398,144,0
767,388,201,0
836,516,188,0
855,514,165,0
735,408,118,0
680,389,105,0
702,408,96,0
712,440,70,0
667,470,110,0
663,509,165,0
788,581,211,0
940,654,244,0
1022,654,231,0
1112,608,189,0
1154,662,194,0
1031,639,114,0
886,518,54,0
917,535,34,0
946,528,-6,0
854,474,-14,0
810,404,-25,0
797,369,-45,0
808,341,-61,0
807,310,-47,0
800,300,-36,0
849,334,-7,0
922,377,19,0
918,392,63,0
929,398,113,0
1155,475,98,0
1069,495,110,0
761,428,162,0
835,485,161,0
957,583,112,0
890,463,56,0
739,395,59,0
719,405,44,0
739,435,15,0
732,470,22,0
704,493,93,0
744,533,147,0
842,603,187,0
998,679,211,0
1079,622,182,0
1222,629,177,0
1138,664,165,0
1001,573,76,0
921,500,33,0
969,503,25,0
946,466,-3,0
864,394,-29,0
827,350,-49,0
801,323,-69,0
788,292,-84,0
759,269,-89,0
782,287,-80,0
862,343,-61,0
900,366,-40,0
901,376,14,0
1158,463,30,0
1088,507,70,0
854,461,146,0
844,462,160,0
952,587,137,0
934,526,121,0
782,472,127,0
739,418,117,0
733,439,77,0
696,453,78,0
657,509,145,0
721,570,172,0
834,645,228,0
982,681,254,0
1064,625,257,0
1212,613,265,0
1248,881,357,0
1102,745,206,0
1073,824,224,0
1117,1059,164,0
1055,1087,78,0
912,1064,36,0
781,1040,0,0
631,1058,-32,0
495,1126,-15,0
349,1114,62,0
263,1120,139,0
139,1060,215,0
-83,582,261,0
-323,456,383,0
-475,210,501,0
-527,14,458,0
-625,-262,347,0
-638,-405,305,0
-525,-272,440,0
-457,-327,394,0
-532,-497,402,0
-559,-519,325,0
-478,-415,349,0
-537,-306,591,0
-727,-381,442,0
-792,-527,591,0
-862,-635,698,0
-929,-498,624,0
-974,-579,325,0
-916,-442,377,0
-1030,-466,557,0
-1202,-594,289,0
-1072,-563,298,0
-957,-527,197,0
-827,-330,158,0
-474,-52,497,0
-341,-553,407,0
-355,-541,-15,0
-380,-521,41,0
-629,-623,-44,0
-737,-339,65,0
-651,-107,197,0
-444,200,162,0
-76,400,-5,0
239,771,-128,0
773,1065,-897,0
974,1087,-1078,0
1087,1193,-1152,0
1226,1183,-711,0
1283,990,-575,0
1186,1065,-442,0
1078,1110,-302,0
1041,706,-171,0
977,711,-26,0
901,545,92,0
844,803,202,0
780,898,156,0
826,1026,158,0
847,933,104,0
998,907,28,0
1122,864,60,0
1069,649,4,0
1056,601,22,0
1183,644,-21,0
1212,643,-56,0
1153,540,-76,0
1120,440,-84,0
1067,387,-103,0
1005,358,-88,0
859,379,-6,0
771,438,103,0
736,433,141,0
628,319,79,0
545,241,97,0
599,246,99,0
837,391,94,0
953,481,92,0
1016,508,111,0
1282,635,136,0
1439,791,114,0
1173,712,60,0
878,538,47,0
848,477,44,0
862,479,9,0
805,528,70,0
713,557,116,0
743,659,143,0
857,704,181,0
945,749,211,0
963,673,217,0
1097,679,249,0
1139,738,220,0
1096,688,91,0
1069,584,14,0
1167,544,0,0
1173,453,1,0
1090,364,-6,0
1028,321,-46,0
951,290,-81,0
868,283,-96,0
746,312,-74,0
656,347,-28,0
650,348,-11,0
620,319,-28,0
584,329,21,0
755,391,63,0
1010,466,43,0
1042,472,64,0
1087,550,166,0
1154,687,223,0
1176,686,166,0
1037,576,126,0
871,451,112,0
848,423,124,0
823,447,138,0
737,459,163,0
690,532,164,0
745,603,180,0
829,722,216,0
939,780,226,0
975,678,203,0
1104,647,189,0
1175,732,197,0
1122,655,64,0
1096,510,-2,0
1160,479,51,0
1118,391,19,0
1020,352,-8,0
946,336,-28,0
869,313,-56,0
799,304,-77,0
686,327,-47,0
651,371,15,0
666,371,24,0
677,342,12,0
728,384,97,0
1024,460,140,0
1091,452,66,0
986,405,129,0
1075,509,205,0
1129,687,229,0
982,701,166,0
851,564,104,0
811,526,122,0
757,459,117,0
724,443,123,0
681,511,163,0
715,548,197,0
845,659,239,0
955,724,260,0
956,635,242,0
1120,654,252,0
1188,704,301,0
1072,575,165,0
954,508,120,0
1006,542,83,0
965,531,37,0
852,398,0,0
785,328,-7,0
765,293,-39,0
785,281,-66,0
762,289,-64,0
731,318,-52,0
747,377,4,0
749,380,20,0
776,413,69,0
874,461,129,0
1142,546,122,0
1034,532,147,0
903,436,163,0
1061,597,222,0
1057,638,188,0
850,497,130,0
695,419,119,0
685,441,124,0
658,476,116,0
662,494,123,0
729,566,190,0
825,608,240,0
979,652,268,0
1088,608,254,0
1107,460,184,0
1303,618,274,0
1193,575,185,0
971,429,49,0
868,461,15,0
804,522,-10,0
705,471,-31,0
655,421,-44,0
658,410,-60,0
713,373,-88,0
801,287,-125,0
958,321,-86,0
980,392,13,0
896,395,56,0
891,487,150,0
957,526,203,0
1299,538,83,0
1146,477,155,0
723,296,282,0
724,401,293,0
730,447,160,0
779,433,125,0
660,525,207,0
637,433,181,0
750,421,130,0
710,412,146,0
673,296,43,0
623,507,153,0
706,775,297,0
944,993,364,0
1096,838,228,0
1430,640,201,0
1363,481,298,0
1116,341,222,0
1101,546,180,0
1078,603,100,0
883,513,43,0
706,375,30,0
671,322,0,0
690,264,-38,0
661,199,-45,0
663,192,-60,0
697,246,-78,0
764,322,-100,0
754,473,8,0
1115,664,177,0
1437,765,189,0
1108,452,125,0
992,365,183,0
1082,604,296,0
966,641,298,0
820,556,237,0
741,525,274,0
723,577,319,0
677,597,330,0
645,591,357,0
739,627,375,0
875,648,372,0
1125,644,330,0
1193,499,233,0
1422,503,181,0
1432,615,188,0
1250,504,50,0
1042,401,-20,0
950,467,-48,0
857,496,-68,0
826,450,-84,0
826,368,-111,0
786,314,-119,0
759,223,-115,0
687,205,-79,0
700,280,13,0
751,366,90,0
785,400,134,0
951,436,199,0
1180,491,159,0
1123,511,226,0
1113,529,354,0
1275,615,329,0
1107,630,226,0
833,472,116,0
677,424,69,0
759,487,79,0
757,479,40,0
708,497,34,0
720,545,106,0
799,605,164,0
867,687,220,0
926,752,277,0
868,653,266,0
947,619,228,0
1046,824,281,0
1064,751,120,0
1133,698,36,0
1142,569,66,0
1081,310,72,0
1012,234,47,0
941,252,5,0
892,338,-31,0
834,392,-49,0
765,381,-59,0
744,342,-51,0
739,325,-46,0
709,304,-14,0
705,380,97,0
895,513,182,0
1009,577,226,0
944,486,282,0
1088,523,343,0
1149,600,302,0
939,481,158,0
729,379,68,0
718,436,101,0
699,471,64,0
726,547,60,0
808,612,137,0
787,658,225,0
811,730,276,0
1050,887,238,0
1172,866,143,0
742,728,169,0
1075,644,14,0
1272,607,-8,0
1045,286,-55,0
1157,178,-20,0
1022,185,-65,0
956,314,23,0
923,385,46,0
802,372,-61,0
680,282,2,0
628,294,86,0
659,352,68,0
677,330,21,0
689,372,30,0
786,445,81,0
1206,507,-56,0
1462,732,-19,0
1126,610,37,0
935,550,205,0
815,546,147,0
710,407,-6,0
724,436,-12,0
761,472,116,0
761,603,172,0
849,663,149,0
1018,815,191,0
1099,840,216,0
1318,925,269,0
1393,734,49,0
1280,448,-54,0
1034,181,-51,0
956,171,-17,0
899,303,-57,0
825,412,-88,0
739,388,-141,0
735,357,-172,0
797,358,-205,0
866,335,-211,0
893,315,-179,0
845,319,-124,0
762,335,-50,0
725,382,-24,0
698,408,24,0
716,451,77,0
1106,459,32,0
1519,735,14,0
1217,538,121,0
1214,283,317,0
1124,704,328,0
875,667,178,0
838,631,206,0
785,678,205,0
715,560,289,0
709,655,273,0
763,782,265,0
828,884,290,0
924,786,221,0
1186,691,132,0
1428,776,184,0
1438,606,47,0
1536,536,47,0
1479,528,66,0
1319,451,2,0
1214,406,-54,0
1099,396,-108,0
1008,335,-142,0
855,266,-146,0
699,219,-141,0
603,216,-141,0
509,231,-135,0
471,245,-97,0
507,361,26,0
752,567,202,0
915,602,218,0
1026,486,203,0
1422,547,334,0
1617,709,362,0
1242,570,263,0
932,404,193,0
897,420,207,0
903,472,170,0
848,547,161,0
759,695,185,0
722,749,226,0
811,854,252,0
922,848,236,0
1088,721,180,0
1308,837,295,0
1230,595,120,0
1326,499,70,0
1366,515,117,0
1214,443,73,0
1098,356,11,0
982,385,-25,0
902,359,-72,0
805,335,-100,0
705,272,-121,0
654,260,-120,0
661,302,-94,0
660,312,-48,0
669,372,62,0
860,454,128,0
1053,535,115,0
1015,438,146,0
1302,525,226,0
1487,767,249,0
1117,664,181,0
789,465,109,0
771,463,106,0
836,507,63,0
813,566,51,0
763,676,90,0
736,755,172,0
794,858,183,0
878,833,151,0
1005,706,71,0
1209,873,187,0
1257,618,13,0
1470,625,43,0
1281,462,23,0
1118,381,10,0
1025,414,0,0
962,414,-41,0
931,383,-68,0
948,367,-72,0
921,415,-18,0
776,349,28,0
615,265,104,0
491,263,207,0
430,251,208,0
492,246,153,0
821,396,54,0
1085,614,91,0
1369,723,150,0
1794,892,221,0
1468,767,94,0
900,423,102,0
855,384,94,0
904,418,-66,0
767,498,-54,0
559,551,8,0
511,699,46,0
530,776,49,0
728,953,86,0
948,992,67,0
1011,707,-14,0
1486,695,64,0
1412,428,71,0
1159,342,95,0
1056,387,44,0
1085,637,28,0
1111,659,0,0
985,530,-85,0
887,339,-152,0
834,244,-165,0
734,191,-136,0
650,190,-101,0
694,267,-95,0
783,334,-79,0
829,343,20,0
1242,470,59,0
1277,577,154,0
958,455,311,0
1084,459,361,0
1045,637,308,0
885,495,224,0
806,472,119,0
835,521,23,0
912,605,34,0
837,684,52,0
734,712,97,0
722,713,139,0
794,731,153,0
874,643,122,0
828,496,113,0
1048,662,194,0
1118,818,312,0
1062,762,409,0
1251,966,666,0
1255,1020,709,0
1294,961,525,0
1277,869,273,0
1128,441,11,0
996,405,-93,0
870,284,-183,0
709,39,-259,0
596,-29,-313,0
537,13,-283,0
495,133,-173,0
624,336,-57,0
715,556,130,0
588,801,444,0
929,765,570,0
1290,426,456,0
1532,15,457,0
1520,-149,458,0
1351,0,321,0
1251,415,213,0
1097,899,283,0
809,1231,307,0
669,1201,266,0
740,1215,293,0
880,994,282,0
1076,701,247,0
1207,616,312,0
1344,469,244,0
1363,447,212,0
1433,453,142,0
1412,606,82,0
1269,573,-14,0
1108,462,-78,0
959,409,-102,0
889,368,-135,0
819,302,-136,0
749,257,-117,0
673,239,-72,0
498,301,185,0
542,375,278,0
828,374,199,0
1127,402,173,0
1204,448,354,0
1439,503,396,0
1678,654,203,0
1427,557,-4,0
1082,595,80,0
943,596,56,0
851,595,-90,0
741,645,-14,0
641,689,68,0
615,718,78,0
686,726,119,0
835,749,148,0
1015,642,107,0
1399,717,225,0
1374,652,240,0
1260,453,99,0
1136,399,58,0
1190,505,16,0
1081,564,0,0
985,447,-55,0
932,313,-88,0
887,288,-113,0
866,270,-122,0
775,256,-116,0
594,297,-45,0
576,387,53,0
607,406,76,0
637,400,62,0
846,352,28,0
1247,466,24,0
1147,451,69,0
1152,473,124,0
1310,661,162,0
1224,720,85,0
945,564,84,0
785,481,111,0
777,461,67,0
784,438,89,0
726,464,161,0
665,574,204,0
729,570,210,0
856,645,253,0
1022,720,277,0
1029,648,235,0
1076,585,186,0
1192,755,220,0
1233,686,51,0
1324,549,-73,0
1294,525,-47,0
1110,355,-32,0
964,262,-47,0
880,270,-98,0
855,314,-146,0
755,339,-160,0
484,392,-51,0
530,574,115,0
545,543,156,0
565,451,73,0
687,356,25,0
818,349,99,0
981,267,60,0
1062,332,-17,0
1230,461,20,0
1604,696,86,0
1327,652,2,0
817,496,40,0
631,519,157,0
654,554,125,0
704,525,78,0
590,465,100,0
607,509,165,0
693,579,198,0
776,627,214,0
1029,668,116,0
1923,894,119,0
1902,-94,-185,0
1730,-83,142,0
1585,247,57,0
1244,44,-14,0
899,-29,-27,0
712,21,-61,0
632,39,-58,0
617,75,-97,0
785,162,-153,0
881,187,-212,0
872,262,-199,0
754,319,-151,0
610,502,-180,0
370,857,-186,0
-31,1039,-160,0
-22,891,-254,0
231,790,-270,0
411,581,-215,0
434,397,-235,0
502,133,-320,0
567,109,-279,0
686,81,-285,0
1018,75,-363,0
1387,257,-377,0
1350,243,-448,0
1284,131,-372,0
1401,157,-353,0
1517,64,-295,0
1597,111,-404,0
1705,167,-444,0
1736,532,-901,0
1684,433,-107,0
1653,488,-121,0
1407,925,-250,0
1281,715,-350,0
1271,606,-411,0
1144,580,-351,0
1025,466,-237,0
858,183,-236,0
787,363,-395,0
782,332,-578,0
746,322,-433,0
653,107,-356,0
603,-109,-302,0
540,-13,-402,0
365,-23,-426,0
220,-1,-344,0
199,133,-227,0
411,153,-300,0
932,65,-363,0
1229,230,-353,0
1374,442,-280,0
930,482,-170,0
559,397,-147,0
348,478,-61,0
272,374,-121,0
248,402,-170,0
317,557,-422,0
464,668,-727,0
693,673,-849,0
801,664,-908,0
966,645,-1122,0
1066,577,-1086,0
1017,510,-847,0
861,422,-778,0
753,368,-809,0
647,552,-472,0
507,130,-262,0
233,345,-248,0
-26,521,-503,0
29,364,-432,0
109,371,-279,0
296,352,-289,0
520,393,-349,0
798,590,-393,0
938,714,-381,0
1092,640,-330,0
1449,621,-398,0
1403,543,-337,0
1166,713,-156,0
1135,766,-31,0
1013,558,-146,0
804,338,-228,0
721,380,-236,0
692,386,-240,0
636,358,-234,0
584,378,-196,0
576,463,-121,0
631,566,-46,0
755,697,45,0
842,711,110,0
859,717,125,0
1080,882,151,0
1151,973,177,0
1072,726,148,0
1130,621,158,0
1177,541,164,0
1097,382,160,0
925,314,136,0
799,316,98,0
752,334,47,0
731,343,0,0
730,329,-34,0
772,309,-41,0
825,311,-52,0
782,295,-65,0
947,380,-50,0
1114,551,-12,0
1046,602,106,0
881,615,298,0
848,593,328,0
898,509,231,0
877,386,197,0
806,377,263,0
762,429,302,0
736,481,253,0
682,555,231,0
638,662,278,0
697,786,330,0
829,846,352,0
1019,744,308,0
1119,496,239,0
1396,400,272,0
1396,421,362,0
1201,412,224,0
1046,422,123,0
968,557,90,0
793,553,32,0
668,545,-167,0
688,824,-423,0
609,915,-616,0
441,1320,-777,0
140,1233,-578,0
21,1253,-485,0
1,1054,-449,0
56,871,-411,0
252,742,-185,0
432,648,-19,0
598,515,13,0
626,532,98,0
527,615,145,0
476,694,86,0
481,686,-48,0
529,693,-149,0
573,779,-250,0
574,1084,-232,0
739,619,543,0
776,1259,-617,0
754,1358,-934,0
625,849,-1103,0
404,911,-1131,0
370,664,-909,0
438,608,-810,0
705,729,-829,0
850,780,-823,0
770,711,-606,0
669,457,-128,0
794,605,-468,0
779,564,-314,0
615,453,-238,0
623,400,-231,0
714,472,-224,0
862,487,-181,0
957,517,-86,0
993,529,55,0
1081,526,42,0
1155,592,-184,0
813,485,-103,0
678,371,-29,0
679,413,-314,0
563,500,-420,0
450,701,-227,0
428,719,-170,0
451,671,-150,0
514,689,-55,0
627,744,-8,0
711,859,-79,0
767,935,-146,0
771,920,-76,0
767,821,13,0
731,816,-54,0
793,694,-339,0
716,583,-384,0
573,529,-284,0
542,455,-208,0
659,426,-285,0
768,469,-310,0
743,448,-243,0
784,461,-101,0
850,483,-26,0
895,561,-46,0
812,617,-105,0
736,666,-179,0
717,682,-296,0
727,745,-385,0
794,839,-424,0
825,818,-325,0
895,793,-259,0
981,593,-472,0
689,377,-508,0
638,386,-448,0
699,511,-469,0
615,537,-300,0
543,547,-350,0
443,547,-269,0
470,516,-310,0
474,545,-327,0
371,553,-388,0
348,717,-436,0
474,830,-486,0
622,695,-551,0
633,603,-617,0
786,778,-607,0
915,579,-720,0
799,522,-635,0
798,506,-595,0
783,432,-586,0
706,346,-493,0
691,274,-478,0
668,189,-392,0
690,180,-405,0
775,171,-423,0
774,195,-523,0
767,345,-567,0
728,399,-632,0
726,478,-707,0
939,546,-899,0
839,576,-931,0
646,594,-862,0
635,754,-777,0
694,553,-511,0
555,489,-379,0
310,305,-232,0
253,274,76,0
386,152,23,0
465,223,-216,0
513,347,-359,0
607,680,-489,0
726,887,-519,0
866,631,-533,0
882,731,-621,0
1067,1090,-463,0
939,1171,-287,0
895,541,178,0
722,1024,128,0
703,865,-26,0
700,663,-44,0
732,530,-109,0
757,509,-86,0
813,403,-52,0
872,218,-7,0
908,158,43,0
953,210,35,0
985,337,-22,0
953,447,-60,0
894,563,9,0
1046,637,53,0
1112,650,80,0
743,509,144,0
646,343,197,0
808,448,204,0
834,313,125,0
721,-2,-10,0
664,366,-49,0
673,569,-191,0
644,787,-297,0
620,872,-265,0
663,800,-127,0
796,600,30,0
933,607,146,0
1016,466,171,0
1252,431,150,0
1206,653,244,0
1008,610,188,0
903,564,174,0
941,591,171,0
927,545,143,0
847,439,99,0
800,389,55,0
770,383,13,0
780,357,-28,0
776,322,-41,0
827,310,-41,0
889,334,-26,0
919,331,-37,0
931,368,-4,0
1180,494,0,0
1026,505,91,0
817,445,186,0
833,506,238,0
924,591,226,0
849,443,168,0
704,375,191,0
652,394,231,0
700,414,185,0
735,481,177,0
686,537,226,0
731,573,261,0
878,629,284,0
972,663,293,0
972,601,256,0
1152,723,251,0
1209,746,230,0
984,603,148,0
915,542,121,0
941,516,104,0
883,447,52,0
801,375,15,0
759,357,-9,0
783,347,-28,0
790,360,-14,0
821,367,-10,0
872,369,0,0
940,364,11,0
936,352,42,0
1051,397,82,0
1205,512,127,0
965,464,222,0
817,439,307,0
858,416,249,0
843,369,129,0
781,435,147,0
723,506,193,0
736,528,166,0
749,546,150,0
745,593,215,0
788,651,293,0
811,662,279,0
913,627,224,0
945,542,160,0
1028,580,132,0
1197,724,211,0
1323,707,203,0
1328,551,203,0
1303,485,183,0
1285,455,143,0
1102,406,90,0
858,367,53,0
641,326,11,0
482,271,-44,0
405,233,-87,0
399,236,-112,0
490,269,-107,0
676,359,-79,0
831,451,0,0
1160,559,70,0
1483,743,140,0
1179,602,220,0
1108,343,249,0
1091,326,203,0
930,268,149,0
770,326,187,0
696,464,198,0
610,538,152,0
574,540,141,0
590,585,167,0
703,601,196,0
905,691,284,0
1130,756,356,0
1383,627,327,0
1618,596,369,0
1339,355,210,0
1115,343,128,0
965,538,110,0
787,622,36,0
590,651,-65,0
492,604,-237,0
519,669,-391,0
496,659,-479,0
442,707,-654,0
476,818,-648,0
532,743,-532,0
589,558,-132,0
617,445,109,0
840,566,46,0
975,1130,60,0
793,1187,246,0
618,1278,170,0
521,1207,58,0
281,985,-5,0
60,816,-41,0
-68,823,-12,0
-176,798,-27,0
-301,857,-59,0
-518,878,56,0
-708,1017,142,0
-799,1129,88,0
-768,1287,61,0
-785,1159,28,0
-911,1245,-16,0
-804,1037,-5,0
-684,842,29,0
-681,457,23,0
-582,424,45,0
-417,282,87,0
-345,187,113,0
-184,-55,293,0
-549,239,93,0
-787,508,220,0
-825,275,416,0
-904,270,253,0
-874,410,327,0
-947,440,282,0
-1017,427,198,0
-962,692,221,0
-970,724,220,0
-596,536,332,0
-486,844,285,0
-543,832,246,0
-686,415,303,0
-797,410,237,0
-906,258,203,0
-990,300,257,0
-1021,227,323,0
-1038,232,407,0
-1090,201,400,0
-1072,233,360,0
-957,-103,482,0
-1137,108,463,0
-1211,237,333,0
-1014,148,273,0
-1011,35,170,0
-952,50,96,0
-801,281,160,0
-680,197,352,0
-683,302,446,0
-749,203,444,0
-815,213,418,0
-885,183,388,0
-921,124,489,0
-967,93,417,0
-979,93,459,0
-1114,296,521,0
-1147,237,548,0
-1006,219,676,0
-891,206,694,0
-751,223,637,0
-645,209,481,0
-586,132,322,0
-556,-140,292,0
-559,-159,330,0
-605,-74,443,0
-708,61,483,0
-841,77,436,0
-908,207,318,0
-914,394,72,0
-1065,723,-197,0
-1156,789,-150,0
-1299,828,-170,0
-1131,590,-329,0
-1054,879,-605,0
-851,557,-709,0
-611,469,-518,0
-380,319,-317,0
-253,190,-233,0
-206,231,-189,0
-168,220,-160,0
-139,360,-160,0
-55,417,-177,0
139,402,-330,0
375,643,-409,0
628,751,-609,0
953,1013,-693,0
1287,1120,-688,0
1391,1109,-305,0
1604,940,25,0
1575,797,122,0
1225,696,78,0
875,541,-13,0
761,673,-27,0
711,637,19,0
654,715,49,0
607,631,144,0
689,663,178,0
775,767,185,0
876,809,179,0
1009,753,170,0
1176,850,211,0
1165,739,114,0
1181,607,23,0
1226,634,22,0
1252,610,30,0
1203,403,-25,0
1106,282,-31,0
1019,296,-46,0
947,307,-84,0
821,342,-84,0
713,329,-79,0
648,328,-66,0
617,309,-46,0
578,301,21,0
815,429,94,0
947,552,165,0
920,502,211,0
1085,480,268,0
1354,677,257,0
1336,659,165,0
1017,574,96,0
812,542,87,0
800,494,59,0
819,484,14,0
722,573,43,0
754,651,85,0
840,827,154,0
829,891,220,0
911,817,224,0
1214,922,276,0
1192,701,235,0
1010,538,208,0
1004,535,142,0
1053,538,96,0
994,481,46,0
948,406,9,0
915,362,-19,0
908,344,-51,0
865,319,-61,0
832,339,-41,0
840,365,2,0
811,357,20,0
773,353,56,0
865,393,106,0
943,468,135,0
836,402,187,0
764,388,256,0
844,449,230,0
961,557,196,0
890,577,212,0
854,573,224,0
864,532,163,0
847,511,145,0
783,566,219,0
847,655,278,0
923,774,296,0
959,764,265,0
1104,718,198,0
1222,819,241,0
1103,660,152,0
942,551,109,0
986,583,75,0
1042,563,14,0
1023,455,-22,0
969,358,-38,0
927,309,-63,0
905,287,-91,0
841,295,-92,0
780,336,-54,0
768,385,-8,0
710,361,0,0
711,371,66,0
906,463,158,0
981,507,173,0
871,388,167,0
884,381,248,0
1019,536,244,0
1075,589,180,0
943,575,155,0
808,523,140,0
780,464,71,0
788,472,41,0
739,499,94,0
719,581,126,0
841,748,198,0
945,891,238,0
974,814,241,0
1210,764,261,0
1212,702,306,0
1093,497,240,0
956,496,223,0
991,532,136,0
984,603,91,0
911,519,36,0
878,437,1,0
836,354,-42,0
832,276,-87,0
805,260,-82,0
771,279,-62,0
731,329,-26,0
746,358,-2,0
748,405,54,0
934,481,101,0
1016,518,103,0
898,458,135,0
897,450,221,0
976,574,229,0
1023,579,186,0
925,525,172,0
829,521,172,0
785,527,183,0
737,562,170,0
733,579,169,0
791,630,215,0
873,655,266,0
1007,698,289,0
1083,617,261,0
1213,567,251,0
1276,648,312,0
1141,546,220,0
1082,491,173,0
1046,524,133,0
887,465,55,0
696,371,5,0
598,389,-18,0
606,400,-55,0
723,425,-99,0
796,444,-79,0
846,411,-26,0
876,366,24,0
849,327,52,0
871,344,86,0
1068,418,95,0
1146,522,123,0
864,421,177,0
818,409,187,0
825,543,177,0
807,502,174,0
737,468,209,0
751,513,211,0
786,551,262,0
833,549,267,0
838,473,228,0
800,479,249,0
780,556,285,0
934,739,333,0
991,708,275,0
1220,749,263,0
1196,775,293,0
1021,521,88,0
1026,502,61,0
1036,528,112,0
926,437,32,0
850,329,-9,0
825,323,-42,0
797,336,-79,0
789,350,-96,0
835,348,-101,0
872,355,-64,0
874,364,-13,0
888,405,42,0
900,437,85,0
1140,494,115,0
1032,466,156,0
791,344,201,0
782,394,261,0
866,498,226,0
867,466,176,0
768,436,154,0
701,430,169,0
746,476,191,0
797,488,141,0
810,530,186,0
837,576,258,0
892,671,306,0
1030,771,326,0
1039,678,264,0
1104,582,185,0
1076,694,257,0
954,601,160,0
1011,557,81,0
1039,593,62,0
1000,547,36,0
926,433,6,0
865,367,-25,0
867,330,-50,0
887,322,-62,0
829,328,-28,0
803,343,8,0
831,375,28,0
834,379,36,0
830,376,92,0
1035,467,129,0
978,461,143,0
845,430,206,0
820,443,247,0
928,521,198,0
962,514,174,0
857,456,158,0
772,415,139,0
783,409,117,0
808,461,101,0
755,535,148,0
750,617,236,0
803,724,342,0
913,768,365,0
970,678,296,0
1122,604,195,0
1115,710,227,0
1076,632,111,0
1082,572,53,0
1047,524,37,0
1084,437,-3,0
1069,409,-32,0
989,364,-50,0
952,321,-66,0
883,325,-74,0
679,416,21,0
663,528,175,0
674,492,164,0
616,388,90,0
633,290,106,0
858,278,129,0
1101,359,120,0
1018,315,82,0
1079,325,36,0
1217,532,31,0
1119,676,15,0
877,658,42,0
776,629,7,0
764,570,-15,0
790,451,17,0
802,408,88,0
834,424,160,0
827,571,212,0
884,706,228,0
991,781,221,0
1235,741,173,0
1234,751,235,0
1034,547,122,0
1038,455,62,0
1104,525,99,0
1085,546,52,0
1025,415,-9,0
917,264,-19,0
871,312,-32,0
846,325,-85,0
802,319,-85,0
769,307,-71,0
796,320,-61,0
779,317,-43,0
740,336,30,0
988,457,71,0
976,513,69,0
891,449,113,0
1072,491,194,0
1167,627,186,0
1000,503,151,0
784,392,125,0
731,401,93,0
786,469,83,0
815,553,138,0
802,591,190,0
834,700,236,0
875,698,277,0
931,716,268,0
1052,598,153,0
1278,753,212,0
1130,688,115,0
1062,526,18,0
1061,569,77,0
1052,507,31,0
983,398,-13,0
931,344,-33,0
898,331,-49,0
868,321,-65,0
801,309,-55,0
761,320,-14,0
797,365,10,0
773,368,28,0
717,338,69,0
927,383,79,0
1018,499,90,0
861,431,119,0
985,442,162,0
1123,582,151,0
1077,571,115,0
916,473,130,0
807,445,127,0
794,465,119,0
815,519,136,0
767,561,185,0
813,668,252,0
850,763,305,0
971,738,302,0
1031,593,208,0
1252,638,213,0
1171,665,191,0
997,546,57,0
1055,606,15,0
1054,625,-33,0
969,506,-87,0
894,372,-109,0
855,301,-101,0
846,271,-98,0
816,274,-86,0
771,310,-46,0
827,342,-15,0
817,336,-12,0
793,353,40,0
942,375,97,0
1085,451,123,0
935,443,162,0
949,447,206,0
1061,582,238,0
1024,620,226,0
853,473,192,0
715,471,184,0
719,493,130,0
746,483,126,0
702,520,158,0
733,560,207,0
852,623,250,0
966,671,255,0
986,577,223,0
1116,593,148,0
1159,732,205,0
1013,645,61,0
978,550,2,0
1017,593,-9,0
1007,552,-33,0
936,389,-56,0
890,301,-52,0
858,278,-29,0
829,268,-3,0
768,334,46,0
741,348,47,0
776,372,47,0
784,381,39,0
775,329,47,0
927,387,95,0
1209,497,81,0
1036,459,56,0
994,456,75,0
1196,725,153,0
1079,740,74,0
782,439,-10,0
708,435,47,0
691,447,32,0
709,421,-9,0
693,472,43,0
803,537,110,0
887,629,141,0
994,656,144,0
1111,652,148,0
1230,722,200,0
1085,646,117,0
1012,555,31,0
993,573,22,0
944,559,-13,0
885,418,-48,0
867,297,-45,0
868,341,-59,0
890,337,-65,0
863,299,-53,0
780,314,-22,0
784,322,-16,0
794,330,-20,0
795,351,14,0
942,394,50,0
1117,449,14,0
964,468,47,0
954,464,88,0
1110,552,92,0
1055,566,75,0
802,424,61,0
698,405,70,0
712,419,81,0
747,432,82,0
738,468,107,0
744,534,181,0
810,645,255,0
917,741,284,0
1010,703,268,0
1103,577,184,0
1184,629,203,0
1075,651,113,0
1050,520,-31,0
1052,547,2,0
1012,484,-4,0
911,397,-25,0
854,345,-54,0
856,332,-78,0
853,321,-97,0
810,312,-88,0
810,320,-58,0
865,353,-33,0
856,367,-12,0
843,349,72,0
1084,447,109,0
1020,452,101,0
902,422,176,0
994,507,256,0
1000,626,254,0
856,507,185,0
716,383,123,0
693,400,111,0
765,461,126,0
747,534,169,0
724,618,207,0
824,645,251,0
946,676,265,0
982,644,217,0
1070,551,135,0
1206,649,167,0
1133,669,112,0
1047,555,27,0
1047,545,34,0
1032,497,5,0
971,434,-9,0
925,357,-15,0
889,321,-30,0
865,315,-25,0
766,312,7,0
670,333,55,0
644,359,89,0
635,351,81,0
639,363,104,0
793,421,159,0
1152,525,93,0
1224,597,136,0
1153,609,209,0
1236,729,212,0
1086,633,97,0
858,352,24,0
763,365,49,0
698,368,41,0
683,439,6,0
660,536,47,0
610,561,127,0
679,590,198,0
806,636,220,0
952,660,222,0
983,600,233,0
1185,623,209,0
1171,699,250,0
1006,559,150,0
996,507,116,0
1017,527,114,0
937,460,67,0
819,367,23,0
756,325,2,0
772,320,-15,0
785,320,-16,0
761,304,-1,0
796,331,20,0
809,361,28,0
805,361,56,0
883,393,97,0
1202,515,84,0
1139,526,141,0
900,451,237,0
923,436,239,0
1002,488,164,0
904,421,123,0
742,394,123,0
677,409,109,0
703,437,92,0
699,476,81,0
661,474,104,0
748,527,150,0
877,620,190,0
991,698,221,0
1044,690,233,0
1279,731,252,0
1177,718,302,0
985,528,217,0
977,517,214,0
1072,559,208,0
1003,491,136,0
814,360,52,0
694,313,15,0
673,333,-21,0
696,360,-59,0
730,330,-74,0
846,345,-70,0
962,376,-37,0
909,342,-19,0
934,410,22,0
1200,498,23,0
1111,559,133,0
740,366,242,0
859,372,253,0
958,488,233,0
888,353,193,0
701,357,231,0
608,357,224,0
618,420,169,0
571,681,121,0
572,749,166,0
676,717,252,0
886,662,248,0
1129,656,269,0
1041,551,279,0
1277,579,217,0
1185,677,245,0
1047,566,91,0
1091,592,50,0
991,586,35,0
871,411,1,0
813,352,-23,0
804,333,-62,0
832,342,-88,0
821,344,-89,0
805,339,-75,0
780,328,-49,0
752,287,-48,0
760,298,-20,0
801,401,85,0
1094,552,133,0
1156,621,125,0
926,556,244,0
1086,599,333,0
1085,599,211,0
873,362,116,0
661,318,118,0
616,353,116,0
639,441,91,0
612,517,109,0
665,632,156,0
891,764,254,0
1078,847,368,0
1014,522,290,0
1181,429,185,0
1241,586,262,0
1133,648,201,0
1006,604,101,0
986,596,7,0
896,463,-26,0
781,334,-48,0
696,285,-54,0
736,292,-76,0
782,318,-90,0
789,317,-78,0
810,325,-46,0
852,350,-13,0
855,398,58,0
786,401,140,0
889,403,146,0
1103,516,104,0
890,464,133,0
930,551,284,0
1003,707,350,0
891,558,177,0
774,352,132,0
727,403,142,0
738,403,157,0
683,497,139,0
652,521,153,0
821,607,194,0
1019,744,335,0
1097,635,318,0
1062,434,251,0
1219,534,268,0
1132,616,273,0
1060,597,172,0
914,520,84,0
866,498,37,0
802,411,2,0
745,339,-54,0
714,308,-62,0
734,320,-53,0
750,334,-54,0
760,313,-65,0
803,309,-53,0
877,333,-14,0
926,347,42,0
958,429,152,0
1221,498,196,0
1227,566,183,0
855,425,208,0
841,516,312,0
905,638,270,0
818,508,152,0
666,419,161,0
645,406,131,0
723,424,97,0
766,483,134,0
763,503,155,0
786,551,185,0
845,639,238,0
923,700,237,0
899,605,179,0
1172,676,153,0
1242,861,218,0
1189,692,20,0
1191,561,-15,0
1150,449,32,0
1074,353,24,0
995,338,-8,0
948,343,-29,0
944,341,-56,0
900,327,-75,0
781,283,-59,0
708,291,-13,0
699,308,13,0
679,329,61,0
769,390,160,0
940,479,173,0
909,449,195,0
1027,422,279,0
1275,566,270,0
1302,615,186,0
1040,536,146,0
816,452,65,0
791,442,23,0
826,484,28,0
767,556,79,0
761,613,163,0
825,736,194,0
883,788,208,0
889,713,224,0
1031,657,194,0
1131,779,281,0
1023,637,154,0
1122,574,83,0
1167,571,80,0
1077,496,51,0
970,419,30,0
926,372,2,0
925,340,-46,0
903,305,-69,0
831,279,-57,0
792,291,-33,0
800,320,-8,0
792,333,16,0
805,384,109,0
1030,467,144,0
1054,493,139,0
905,376,199,0
1029,447,278,0
1110,532,198,0
982,455,100,0
821,405,96,0
770,457,97,0
789,495,66,0
778,575,66,0
723,607,145,0
798,662,219,0
915,752,279,0
950,761,286,0
1020,653,219,0
1193,701,210,0
1180,704,188,0
1079,567,53,0
1117,564,8,0
1053,429,-54,0
958,341,-59,0
914,314,-68,0
900,316,-95,0
836,314,-86,0
769,339,-35,0
768,367,6,0
743,353,16,0
721,374,95,0
907,429,175,0
1044,491,145,0
944,417,177,0
1022,421,256,0
1153,521,193,0
1062,499,94,0
908,446,71,0
838,506,100,0
843,538,81,0
819,518,84,0
732,581,159,0
781,656,236,0
818,773,270,0
908,773,226,0
956,651,160,0
1164,673,129,0
1143,718,152,0
1059,603,42,0
1104,566,8,0
1119,565,-13,0
1039,485,-28,0
990,399,-46,0
970,362,-66,0
952,346,-75,0
901,323,-46,0
791,320,-13,0
761,345,26,0
746,345,45,0
703,315,47,0
724,344,124,0
991,432,92,0
994,453,59,0
990,452,122,0
1176,570,186,0
1231,701,115,0
1040,579,50,0
867,501,63,0
826,466,62,0
832,460,32,0
789,481,83,0
742,593,140,0
750,706,206,0
824,800,226,0
931,784,210,0
1036,641,173,0
1234,710,236,0
1165,651,200,0
1092,502,117,0
1134,503,83,0
1100,507,46,0
995,447,11,0
889,393,-21,0
840,359,-55,0
845,323,-87,0
828,285,-93,0
754,279,-47,0
788,344,3,0
819,375,23,0
779,385,75,0
896,407,132,0
1088,484,124,0
986,441,135,0
953,405,226,0
1071,471,221,0
1032,511,125,0
884,440,76,0
788,443,76,0
797,515,103,0
833,527,70,0
774,560,104,0
882,610,183,0
919,640,179,0
876,784,228,0
831,796,222,0
1105,874,177,0
1211,932,225,0
1089,640,47,0
1140,524,54,0
1192,499,56,0
1117,430,4,0
1043,379,-8,0
1011,360,-29,0
969,346,-72,0
901,310,-92,0
780,293,-70,0
706,362,21,0
671,447,165,0
612,390,179,0
590,329,181,0
773,304,165,0
1073,391,94,0
1018,437,128,0
1090,424,131,0
1282,563,78,0
1168,610,-11,0
925,536,20,0
820,530,22,0
827,537,29,0
821,516,43,0
748,582,134,0
768,668,217,0
833,761,282,0
914,807,255,0
927,731,218,0
1140,663,148,0
1275,770,189,0
1108,617,64,0
1174,538,31,0
1184,583,26,0
1108,509,0,0
1062,429,-7,0
1026,383,-38,0
963,340,-58,0
870,287,-59,0
731,256,-48,0
663,277,-25,0
648,322,-3,0
603,338,10,0
597,367,91,0
834,486,100,0
972,576,116,0
1003,580,211,0
1162,619,305,0
1234,700,276,0
1046,544,186,0
801,369,136,0
726,356,140,0
746,423,119,0
734,523,122,0
687,620,147,0
733,648,198,0
813,670,253,0
950,679,267,0
984,572,231,0
1163,571,204,0
1174,719,274,0
1015,592,144,0
995,553,97,0
1005,580,102,0
935,479,62,0
810,351,-3,0
760,305,-27,0
774,302,-31,0
813,317,-50,0
825,307,-53,0
870,326,-22,0
872,344,5,0
859,345,26,0
916,389,88,0
1133,525,111,0
982,480,141,0
834,421,212,0
919,530,261,0
968,569,209,0
858,466,157,0
722,397,141,0
699,398,153,0
754,431,109,0
723,470,109,0
710,532,153,0
818,655,217,0
901,751,243,0
945,752,252,0
1073,681,191,0
1271,804,260,0
1118,657,186,0
1057,508,138,0
1048,540,117,0
969,486,54,0
892,408,20,0
847,371,-4,0
836,354,-43,0
855,335,-70,0
816,304,-76,0
822,305,-57,0
854,331,-39,0
862,338,-24,0
865,384,50,0
981,451,139,0
1021,491,157,0
859,371,171,0
917,390,231,0
1037,559,256,0
945,533,188,0
778,431,121,0
704,446,112,0
753,474,126,0
804,536,78,0
780,580,131,0
834,660,220,0
923,769,263,0
983,770,252,0
1113,666,188,0
1271,739,251,0
1153,634,218,0
1038,555,151,0
988,548,79,0
920,517,27,0
850,440,7,0
834,384,-24,0
875,344,-70,0
909,311,-101,0
870,271,-94,0
868,271,-71,0
920,329,-39,0
908,339,-9,0
938,383,58,0
1107,477,88,0
928,499,159,0
807,445,254,0
857,427,267,0
938,461,202,0
871,405,183,0
748,415,194,0
729,413,155,0
788,470,114,0
780,558,133,0
816,640,197,0
922,781,294,0
966,856,341,0
998,790,307,0
1031,630,211,0
1227,746,274,0
1157,662,233,0
1139,486,147,0
1153,496,123,0
1063,482,52,0
967,458,18,0
890,439,-4,0
876,414,-63,0
960,418,-134,0
859,407,-60,0
750,428,24,0
701,390,6,0
651,391,-59,0
495,477,18,0
470,708,-71,0
420,1232,-267,0
261,1248,-193,0
398,1311,-191,0
450,1205,-266,0
261,1107,-109,0
25,1000,-156,0
-28,803,-173,0
31,656,-234,0
76,559,-218,0
-32,580,-265,0
-58,575,-327,0
90,835,-301,0
205,891,-401,0
558,1089,-459,0
878,133,201,0
657,1161,-529,0
368,1096,-610,0
204,1104,-313,0
41,1028,-355,0
-28,953,-295,0
-30,877,-332,0
20,763,-404,0
120,715,-416,0
197,734,-366,0
256,730,-413,0
367,725,-517,0
438,821,-586,0
532,877,-601,0
765,927,-727,0
718,916,-727,0
629,777,-457,0
660,723,-463,0
616,569,-500,0
457,430,-362,0
335,396,-311,0
301,413,-378,0
336,399,-462,0
264,380,-549,0
188,575,-714,0
182,616,-940,0
143,701,-1066,0
194,676,-1034,0
217,685,-1019,0
275,729,-1150,0
354,678,-1089,0
402,586,-981,0
399,552,-915,0
379,464,-723,0
358,346,-562,0
300,354,-556,0
212,444,-486,0
231,462,-470,0
252,510,-446,0
291,641,-410,0
367,732,-434,0
387,882,-498,0
420,1160,-816,0
371,1153,-849,0
288,895,-491,0
300,774,-371,0
339,698,-374,0
281,534,-309,0
194,455,-270,0
188,482,-333,0
260,467,-424,0
196,559,-610,0
100,493,-849,0
79,515,-985,0
79,610,-1050,0
155,643,-1082,0
216,574,-1196,0
259,570,-1321,0
293,538,-1102,0
297,462,-925,0
267,358,-883,0
256,292,-804,0
195,214,-720,0
192,123,-714,0
202,96,-726,0
165,149,-718,0
106,238,-762,0
89,431,-891,0
191,468,-1015,0
252,517,-967,0
289,518,-949,0
389,496,-1155,0
353,528,-1084,0
266,488,-758,0
264,457,-824,0
308,303,-806,0
265,246,-673,0
198,239,-607,0
159,250,-594,0
137,247,-674,0
120,266,-735,0
91,283,-804,0
98,341,-979,0
119,400,-1139,0
119,370,-1243,0
136,367,-1233,0
166,347,-1328,0
220,355,-1168,0
222,294,-1095,0
189,213,-1000,0
203,199,-842,0
223,164,-717,0
189,129,-714,0
140,116,-708,0
116,109,-752,0
88,127,-792,0
153,140,-867,0
243,108,-950,0
296,134,-989,0
357,274,-1031,0
463,299,-1199,0
509,425,-1119,0
452,523,-1025,0
485,381,-936,0
413,251,-776,0
249,212,-655,0
187,183,-588,0
182,173,-602,0
197,149,-674,0
202,223,-744,0
183,315,-851,0
163,378,-998,0
194,413,-1125,0
265,389,-1148,0
280,344,-1266,0
299,348,-1238,0
303,336,-1117,0
270,259,-1067,0
261,230,-977,0
252,232,-823,0
226,208,-690,0
223,154,-624,0
231,135,-645,0
246,113,-712,0
244,117,-750,0
246,180,-879,0
282,230,-928,0
267,358,-965,0
284,421,-1085,0
348,384,-1293,0
349,478,-1034,0
255,539,-912,0
263,429,-859,0
254,343,-741,0
190,279,-658,0
155,249,-619,0
168,217,-640,0
195,220,-716,0
190,248,-765,0
186,334,-863,0
176,397,-950,0
183,463,-1108,0
249,450,-1128,0
229,463,-1222,0
225,466,-1258,0
270,440,-1023,0
249,378,-966,0
215,328,-888,0
192,256,-752,0
171,248,-663,0
164,241,-630,0
186,180,-682,0
209,177,-772,0
236,192,-793,0
260,249,-885,0
313,255,-979,0
311,316,-979,0
272,418,-974,0
357,427,-1201,0
398,471,-1035,0
321,542,-893,0
331,463,-893,0
316,339,-778,0
217,303,-648,0
134,273,-596,0
126,240,-619,0
169,216,-700,0
170,257,-752,0
159,341,-835,0
155,427,-978,0
171,457,-1079,0
210,457,-1118,0
240,457,-1330,0
288,472,-1283,0
230,433,-1129,0
124,417,-1107,0
24,508,-1027,0
-8,544,-949,0
64,454,-1037,0
133,376,-911,0
175,246,-783,0
193,32,-655,0
205,66,-639,0
284,-124,-436,0
302,-53,-491,0
235,85,-729,0
324,197,-1009,0
332,356,-1236,0
235,532,-1357,0
103,593,-1532,0
5,758,-1362,0
-125,793,-1031,0
-187,701,-953,0
-126,524,-805,0
-45,373,-768,0
94,372,-620,0
159,164,-462,0
119,143,-586,0
115,125,-807,0
54,187,-1112,0
62,401,-1287,0
47,604,-1540,0
57,522,-1283,0
65,414,-1140,0
113,401,-1040,0
135,375,-884,0
64,332,-858,0
-32,227,-739,0
-129,383,-736,0
-148,338,-643,0
-131,179,-499,0
-121,237,-436,0
-73,359,-510,0
102,587,-405,0
319,859,-174,0
675,701,-210,0
1066,454,-435,0
1118,860,-378,0
1301,1080,-206,0
1336,744,-377,0
1042,635,-352,0
783,569,-204,0
736,390,-170,0
789,329,-190,0
801,476,-135,0
871,571,2,0
892,704,110,0
894,799,141,0
865,795,144,0
1045,698,80,0
1076,901,233,0
1036,688,175,0
1154,583,118,0
1121,544,110,0
1043,435,56,0
916,381,9,0
834,336,-26,0
836,309,-65,0
877,335,-93,0
848,349,-88,0
840,361,-51,0
832,350,-28,0
792,351,-10,0
802,441,103,0
989,539,133,0
902,487,109,0
867,387,158,0
1088,515,221,0
1115,588,167,0
882,451,75,0
717,443,72,0
716,480,39,0
788,512,-20,0
786,601,17,0
804,672,128,0
897,802,184,0
950,849,201,0
973,780,185,0
1334,799,136,0
1232,783,193,0
992,496,104,0
996,512,88,0
981,530,38,0
933,507,9,0
901,455,-13,0
906,390,-61,0
918,338,-97,0
878,290,-106,0
812,256,-93,0
821,270,-85,0
838,279,-80,0
766,337,-4,0
903,431,95,0
1025,526,112,0
948,546,173,0
984,499,264,0
1058,550,262,0
994,504,174,0
824,458,140,0
755,457,67,0
786,474,33,0
841,561,65,0
898,613,119,0
881,710,146,0
859,786,210,0
917,862,198,0
888,709,98,0
1098,839,126,0
1053,780,76,0
1253,658,-3,0
1367,642,11,0
1248,504,32,0
1102,429,23,0
1039,408,-13,0
1030,397,-66,0
979,371,-92,0
872,311,-105,0
769,274,-106,0
702,281,-80,0
649,293,-32,0
623,282,38,0
831,235,124,0
949,231,38,0
1010,597,-148,0
1214,1108,-112,0
1316,1235,-136,0
1032,775,-94,0
758,349,9,0
660,270,-22,0
738,455,-127,0
763,549,-222,0
741,593,-262,0
739,770,-219,0
791,824,-172,0
975,793,-141,0
974,569,-118,0
1163,701,-84,0
1066,650,-168,0
942,561,-211,0
1069,607,-207,0
1093,532,-233,0
971,431,-204,0
838,342,-163,0
801,286,-172,0
793,199,-180,0
765,185,-186,0
764,275,-169,0
817,377,-145,0
805,353,-155,0
771,450,-68,0
905,628,-35,0
1003,639,-165,0
853,576,-94,0
969,618,103,0
1225,554,102,0
1187,374,0,0
894,270,52,0
750,294,84,0
730,386,7,0
742,431,13,0
754,425,58,0
801,440,150,0
959,328,-49,0
949,925,-420,0
773,1376,-372,0
938,1090,-287,0
934,505,-311,0
1032,544,-278,0
1114,540,-391,0
1204,470,-416,0
1113,517,-432,0
1096,568,-467,0
1046,626,-537,0
926,717,-625,0
780,879,-611,0
674,952,-444,0
516,1006,-377,0
353,883,-425,0
220,1026,-289,0
60,953,-190,0
-288,864,-33,0
-403,754,168,0
-474,805,119,0
-432,681,64,0
-474,513,162,0
-561,417,89,0
-513,249,111,0
-510,131,145,0
-561,67,190,0
-734,181,317,0
-963,210,289,0
-1120,170,233,0
-1138,258,180,0
-1214,222,179,0
-1362,353,68,0
-1156,243,-20,0
-1091,240,-21,0
-1073,234,-138,0
-900,237,-80,0
-754,338,38,0
-698,280,57,0
-681,281,49,0
-703,191,79,0
-745,340,-27,0
-786,27,34,0
-602,-80,157,0
-461,-80,193,0
-317,222,98,0
-58,467,133,0
232,993,-8,0
550,1248,-238,0
762,1217,-255,0
1086,1208,-252,0
1348,967,-258,0
1413,904,-338,0
1251,904,-343,0
1026,853,-253,0
960,690,-236,0
872,596,-237,0
881,691,-106,0
889,846,54,0
879,887,41,0
881,758,8,0
978,801,18,0
1042,910,31,0
1006,747,-6,0
1056,668,-26,0
1167,692,-60,0
1219,467,-159,0
1151,168,-212,0
870,66,-405,0
829,720,-584,0
884,872,-518,0
926,849,-354,0
875,466,-203,0
674,242,-62,0
419,223,16,0
373,206,106,0
630,287,121,0
877,235,66,0
978,312,150,0
1433,513,230,0
1781,727,53,0
1455,660,-127,0
1068,713,-18,0
943,599,-91,0
942,623,-151,0
878,555,-163,0
869,732,-168,0
859,1001,-90,0
744,1250,-15,0
840,1193,-16,0
1093,1057,19,0
1280,751,59,0
1193,478,14,0
1266,436,5,0
1420,571,-32,0
1379,593,-72,0
1220,466,-94,0
1112,356,-110,0
1032,336,-160,0
970,326,-180,0
867,329,-153,0
685,414,-33,0
605,460,142,0
441,253,203,0
373,289,162,0
626,293,98,0
746,280,128,0
899,284,137,0
1356,420,77,0
1674,576,-146,0
1375,620,-307,0
1010,839,-45,0
883,744,50,0
874,786,-83,0
875,838,-71,0
833,744,104,0
856,683,291,0
822,705,406,0
978,711,393,0
1117,687,267,0
1304,657,250,0
1247,571,212,0
1159,463,79,0
1172,531,79,0
1135,572,13,0
995,465,-78,0
923,388,-139,0
911,365,-170,0
916,301,-183,0
819,272,-159,0
733,312,-99,0
704,359,-49,0
648,352,-24,0
627,397,62,0
887,452,105,0
1023,538,117,0
906,419,178,0
1157,457,285,0
1271,554,217,0
1083,476,87,0
879,418,73,0
838,555,126,0
857,562,147,0
833,600,107,0
775,684,210,0
812,791,295,0
867,853,286,0
926,793,218,0
1024,624,123,0
1242,758,183,0
1120,666,97,0
1153,563,29,0
1234,616,-11,0
1206,565,-56,0
1063,428,-56,0
993,350,-75,0
954,334,-101,0
920,328,-81,0
857,377,-3,0
827,415,65,0
795,406,84,0
692,321,77,0
588,266,142,0
724,293,129,0
853,435,124,0
914,451,137,0
1139,508,171,0
1360,585,99,0
1253,574,-18,0
977,539,16,0
814,557,20,0
806,515,-64,0
823,552,-22,0
842,581,89,0
915,692,163,0
818,793,255,0
883,866,268,0
878,787,233,0
1205,809,260,0
1231,825,343,0
1164,502,207,0
1219,456,167,0
1161,454,104,0
993,459,62,0
859,401,18,0
772,383,-28,0
743,361,-91,0
745,334,-131,0
732,300,-124,0
795,299,-100,0
872,337,-58,0
862,365,12,0
1039,431,52,0
1179,559,101,0
926,533,276,0
986,442,370,0
1107,481,317,0
979,388,219,0
775,351,218,0
695,447,249,0
700,484,203,0
732,538,157,0
709,616,212,0
846,749,316,0
977,906,409,0
1002,830,396,0
999,597,245,0
1250,588,188,0
1144,669,213,0
1073,574,142,0
1137,576,113,0
1130,574,57,0
1032,468,2,0
933,395,-32,0
869,335,-65,0
853,301,-86,0
829,282,-72,0
763,316,-6,0
738,389,75,0
709,390,113,0
643,397,185,0
690,445,293,0
965,388,174,0
968,389,154,0
991,403,243,0
1248,631,285,0
1238,720,184,0
907,507,85,0
745,419,111,0
742,401,75,0
818,373,69,0
797,409,60,0
720,526,130,0
809,623,187,0
998,806,179,0
1013,813,182,0
1110,762,188,0
1185,929,367,0
1021,640,211,0
1129,537,112,0
1128,556,109,0
991,473,74,0
879,408,43,0
821,369,19,0
818,339,-20,0
857,309,-69,0
875,293,-71,0
894,299,-56,0
836,304,-36,0
746,338,15,0
745,391,98,0
960,552,146,0
889,515,155,0
897,446,231,0
1027,524,314,0
1024,522,244,0
894,434,194,0
798,428,190,0
782,430,163,0
799,510,165,0
764,581,185,0
763,642,196,0
811,735,215,0
940,860,244,0
969,809,198,0
1015,676,137,0
1279,772,290,0
1253,530,193,0
1321,473,170,0
1292,521,218,0
1169,542,167,0
1025,469,111,0
846,402,57,0
717,347,-9,0
609,286,-61,0
540,223,-92,0
547,219,-111,0
653,266,-108,0
742,338,-57,0
923,416,26,0
1280,599,49,0
1074,616,226,0
1113,630,382,0
1163,583,292,0
971,414,126,0
815,283,154,0
773,412,220,0
781,483,248,0
764,566,205,0
733,581,212,0
819,628,242,0
943,766,360,0
1092,811,425,0
1228,712,338,0
1145,615,252,0
1102,498,220,0
1112,561,303,0
1120,615,246,0
1067,514,122,0
926,385,40,0
773,311,2,0
693,290,-25,0
670,301,-53,0
692,286,-88,0
804,294,-105,0
849,319,-74,0
847,330,-28,0
834,416,86,0
876,516,165,0
1026,468,190,0
938,351,324,0
1007,519,440,0
942,514,313,0
827,402,168,0
782,384,125,0
793,476,201,0
843,575,219,0
795,587,185,0
860,705,244,0
914,810,304,0
890,793,288,0
1135,820,280,0
1312,927,378,0
1207,568,234,0
1281,512,266,0
1182,503,250,0
1034,470,156,0
916,427,92,0
867,396,30,0
844,382,-15,0
815,304,-75,0
791,238,-103,0
776,245,-103,0
739,273,-86,0
671,306,-50,0
698,372,-9,0
1061,487,-50,0
1006,566,110,0
926,441,256,0
1061,485,257,0
1111,559,138,0
1027,493,139,0
962,549,112,0
987,664,116,0
998,753,87,0
913,818,59,0
794,785,213,0
818,924,435,0
987,964,377,0
1062,564,200,0
1284,428,165,0
1498,637,333,0
1434,593,282,0
1337,546,221,0
1146,525,127,0
847,462,-9,0
653,365,-99,0
551,324,-137,0
523,308,-144,0
569,313,-184,0
649,293,-230,0
753,297,-227,0
876,375,-168,0
877,432,-38,0
1044,414,6,0
1182,469,71,0
999,594,317,0
972,579,426,0
1009,499,286,0
1000,435,233,0
784,335,355,0
685,318,285,0
688,447,270,0
701,470,188,0
737,510,50,0
805,655,94,0
879,780,210,0
989,900,279,0
1035,818,210,0
1338,703,241,0
1269,645,285,0
1066,524,177,0
1070,748,137,0
1104,843,24,0
1128,807,-64,0
1100,778,-140,0
1046,934,-217,0
942,1099,-299,0
779,1159,-351,0
586,1076,-291,0
379,1054,-243,0
233,975,-176,0
57,758,-31,0
-179,589,59,0
-455,433,125,0
-483,378,340,0
-602,425,363,0
-600,455,280,0
-498,272,234,0
-644,201,286,0
-772,307,231,0
-815,176,209,0
-818,206,336,0
-825,341,451,0
-830,534,355,0
-748,295,271,0
-827,396,139,0
-964,65,216,0
-1208,132,183,0
-1208,427,-4,0
-1109,638,-53,0
-1016,563,-33,0
-960,558,-62,0
-809,612,-4,0
-597,517,112,0
-529,461,210,0
-573,468,206,0
-611,414,182,0
-609,377,159,0
-606,317,190,0
-544,407,135,0
-400,529,161,0
-206,415,80,0
-47,491,-54,0
307,833,-236,0
306,1453,-248,0
491,976,-404,0
756,1324,-384,0
868,914,-232,0
850,897,-297,0
796,796,-410,0
865,844,-431,0
835,847,-302,0
797,757,-207,0
795,852,-95,0
868,617,45,0
923,788,72,0
962,652,17,0
1282,843,97,0
1194,766,70,0
1022,622,88,0
1000,554,161,0
989,529,162,0
875,478,73,0
803,455,37,0
819,426,0,0
859,352,-107,0
760,280,-131,0
723,292,-97,0
866,338,-125,0
890,330,-120,0
1006,397,-55,0
1237,453,-78,0
998,459,56,0
895,467,243,0
988,448,194,0
971,347,143,0
863,245,222,0
812,420,298,0
787,427,278,0
753,400,210,0
705,401,245,0
604,404,207,0
596,538,220,0
701,730,332,0
961,820,291,0
1203,723,147,0
1286,816,171,0
1105,602,107,0
1059,454,153,0
1096,452,148,0
1027,541,93,0
864,497,27,0
797,459,34,0
792,424,3,0
786,363,-48,0
756,294,-81,0
767,283,-95,0
835,330,-95,0
914,362,-63,0
889,387,9,0
1147,500,62,0
1141,545,138,0
833,440,252,0
894,464,289,0
990,567,236,0
892,411,193,0
727,384,198,0
674,388,146,0
718,392,85,0
743,458,72,0
694,524,121,0
725,598,180,0
829,686,200,0
971,735,220,0
1058,649,167,0
1336,709,177,0
1139,638,128,0
847,541,154,0
856,557,148,0
940,578,69,0
896,452,25,0
859,345,5,0
812,349,14,0
829,382,0,0
835,380,-21,0
824,314,-47,0
848,287,-57,0
809,298,-31,0
864,398,50,0
1077,525,135,0
1156,515,105,0
945,433,207,0
900,374,281,0
951,474,267,0
789,407,204,0
663,421,184,0
638,455,164,0
659,405,105,0
745,407,77,0
772,426,96,0
743,502,166,0
852,709,249,0
985,861,249,0
1094,679,112,0
1297,655,153,0
1085,521,120,0
1029,444,88,0
1056,520,68,0
930,561,41,0
818,473,19,0
779,410,-10,0
768,363,-48,0
765,360,-36,0
781,376,-31,0
784,338,-56,0
851,297,-65,0
920,286,-47,0
882,324,31,0
1124,400,28,0
1203,498,48,0
917,465,163,0
884,497,228,0
932,564,189,0
764,414,135,0
611,301,116,0
602,365,117,0
695,384,85,0
730,429,83,0
713,486,137,0
804,566,194,0
985,672,221,0
1026,702,255,0
1134,640,215,0
1268,766,280,0
1144,620,146,0
969,496,117,0
973,526,129,0
919,517,69,0
819,422,23,0
767,367,11,0
746,352,-16,0
771,330,-52,0
762,303,-73,0
768,275,-69,0
812,298,-64,0
854,319,-67,0
871,368,-8,0
1168,477,35,0
1227,538,75,0
955,469,206,0
894,438,283,0
970,535,226,0
881,429,216,0
680,361,210,0
610,379,167,0
652,456,139,0
696,495,102,0
707,494,114,0
760,506,142,0
844,574,190,0
998,644,188,0
1113,615,157,0
1327,675,160,0
1132,693,169,0
917,541,81,0
942,548,78,0
954,543,44,0
870,453,24,0
828,399,18,0
815,378,-1,0
804,336,-41,0
796,302,-57,0
771,297,-55,0
786,315,-56,0
883,338,-62,0
904,327,-36,0
993,389,38,0
1209,500,81,0
1004,443,152,0
885,290,212,0
981,585,216,0
909,565,97,0
700,509,57,0
622,536,64,0
638,433,1,0
673,472,6,0
597,537,105,0
565,635,209,0
755,922,287,0
966,1067,176,0
1004,1111,71,0
1055,1100,78,0
1144,1073,-154,0
1061,464,-190,0
1059,295,-245,0
960,455,-296,0
777,433,-294,0
669,485,-247,0
663,339,-263,0
644,330,-280,0
604,227,-234,0
529,243,-80,0
532,222,66,0
623,192,107,0
790,298,231,0
1116,472,322,0
1437,556,236,0
1408,660,325,0
1389,692,427,0
1262,705,378,0
904,411,228,0
714,389,162,0
628,419,117,0
582,515,86,0
551,612,87,0
601,716,132,0
735,779,168,0
856,781,175,0
996,724,146,0
1303,666,89,0
1304,633,127,0
1128,500,57,0
1082,487,56,0
1127,511,16,0
1083,497,5,0
979,417,4,0
888,345,-5,0
805,317,-12,0
737,299,-4,0
642,293,24,0
596,302,39,0
600,313,37,0
643,325,36,0
741,403,108,0
1098,484,52,0
1303,581,50,0
1195,633,179,0
1192,673,254,0
1151,637,120,0
915,419,30,0
761,367,62,0
725,343,50,0
728,405,16,0
700,499,41,0
637,539,87,0
690,548,118,0
811,657,183,0
953,729,231,0
1033,685,241,0
1240,640,227,0
1158,619,239,0
1020,519,126,0
985,495,66,0
984,544,65,0
940,508,39,0
873,403,-8,0
836,326,-43,0
841,291,-62,0
836,283,-71,0
789,276,-67,0
783,284,-65,0
840,319,-60,0
846,346,-21,0
868,403,71,0
1130,513,92,0
1090,536,128,0
878,419,206,0
976,461,243,0
1049,546,193,0
888,448,141,0
717,364,122,0
698,406,94,0
746,412,54,0
737,512,103,0
701,601,171,0
795,701,237,0
890,731,257,0
982,688,225,0
1134,602,168,0
1246,700,239,0
1066,585,179,0
1018,519,134,0
1049,568,95,0
1009,539,40,0
903,439,22,0
805,362,2,0
769,340,-19,0
777,321,-46,0
768,310,-40,0
779,312,-11,0
832,342,16,0
865,333,27,0
885,309,54,0
1130,453,62,0
959,428,87,0
911,427,139,0
991,574,212,0
1042,610,166,0
891,430,132,0
748,378,96,0
750,402,100,0
792,514,114,0
791,560,146,0
793,602,195,0
824,694,274,0
907,775,315,0
992,730,269,0
1197,654,219,0
1245,732,309,0
1059,523,167,0
1084,511,81,0
1113,632,69,0
1024,530,26,0
914,390,-21,0
872,340,-51,0
925,328,-91,0
964,316,-112,0
899,270,-106,0
870,277,-81,0
838,314,-58,0
793,337,-11,0
815,381,71,0
1010,485,107,0
906,492,187,0
816,382,260,0
941,466,298,0
1029,553,290,0
931,458,233,0
823,437,195,0
801,453,142,0
862,487,107,0
839,561,128,0
787,604,195,0
836,671,224,0
902,708,230,0
899,663,204,0
1060,627,129,0
1182,791,203,0
1028,649,115,0
1091,567,117,0
1185,575,142,0
1154,468,90,0
1024,371,46,0
873,336,19,0
767,342,-1,0
696,335,-32,0
630,298,-68,0
638,272,-87,0
707,302,-71,0
774,316,-52,0
826,396,23,0
1055,496,77,0
1291,581,77,0
1017,479,151,0
1017,496,248,0
1135,638,248,0
990,510,168,0
789,333,117,0
698,384,104,0
702,443,110,0
696,504,99,0
635,570,119,0
731,609,169,0
870,703,227,0
970,722,253,0
986,598,216,0
1302,683,216,0
1235,679,216,0
1061,527,114,0
1050,546,95,0
1015,561,55,0
928,441,6,0
867,343,-36,0
831,309,-60,0
849,301,-81,0
831,298,-96,0
790,277,-101,0
790,304,-82,0
766,337,-40,0
719,343,22,0
800,419,112,0
1093,552,116,0
1034,505,107,0
865,409,198,0
1056,583,271,0
1124,643,187,0
947,469,128,0
775,403,114,0
742,406,105,0
780,448,61,0
755,515,51,0
706,543,120,0
775,626,160,0
884,697,194,0
993,726,210,0
962,578,171,0
1178,668,207,0
1136,726,214,0
915,536,60,0
985,586,59,0
998,605,61,0
945,495,6,0
870,387,-24,0
846,330,-40,0
873,298,-63,0
873,274,-78,0
823,257,-71,0
827,291,-51,0
847,339,-38,0
818,348,12,0
1052,432,60,0
1062,532,116,0
910,551,248,0
869,464,327,0
946,508,255,0
911,429,182,0
765,396,184,0
703,389,117,0
727,425,75,0
747,485,77,0
756,563,128,0
833,601,226,0
897,680,295,0
964,703,313,0
950,616,244,0
1210,630,200,0
1115,733,260,0
998,582,146,0
1096,590,135,0
1095,572,122,0
999,439,70,0
903,347,23,0
854,330,-1,0
856,345,-22,0
824,355,-11,0
741,346,13,0
727,360,37,0
731,369,52,0
696,350,76,0
768,406,159,0
1057,500,127,0
1002,451,124,0
918,415,206,0
1074,529,207,0
1099,578,143,0
890,448,109,0
725,390,87,0
709,418,71,0
754,467,49,0
769,514,65,0
753,568,113,0
828,633,185,0
887,756,263,0
988,807,302,0
1149,681,219,0
1261,721,294,0
1059,533,207,0
994,478,155,0
1039,560,133,0
1000,594,100,0
875,442,33,0
813,368,-20,0
815,332,-57,0
833,310,-83,0
832,281,-109,0
865,278,-106,0
873,303,-84,0
824,318,-20,0
810,381,62,0
907,447,133,0
1124,540,112,0
854,422,132,0
834,371,199,0
1032,630,243,0
1001,614,153,0
802,439,118,0
721,412,120,0
759,440,105,0
820,483,90,0
771,549,126,0
770,596,199,0
833,711,254,0
950,755,243,0
1044,651,173,0
1362,706,158,0
1251,663,152,0
1061,500,64,0
1013,509,56,0
962,552,26,0
936,461,-33,0
886,368,-59,0
843,331,-70,0
815,308,-85,0
779,287,-99,0
729,270,-93,0
750,291,-73,0
781,305,-55,0
775,320,87,0
985,486,135,0
1204,559,84,0
900,470,144,0
956,481,220,0
1177,717,212,0
999,647,128,0
728,366,112,0
657,302,99,0
705,357,81,0
740,499,32,0
672,643,79,0
716,694,95,0
830,719,136,0
1026,691,159,0
1158,560,139,0
1348,610,202,0
1217,584,189,0
1101,566,151,0
1017,592,94,0
959,583,17,0
885,504,-19,0
828,533,-67,0
809,564,-98,0
799,622,-127,0
782,731,-161,0
680,803,-167,0
543,813,-233,0
417,836,-255,0
279,841,-206,0
168,872,-158,0
49,997,-221,0
-60,1009,-286,0
-200,1032,-325,0
-267,903,-408,0
-255,758,-450,0
-344,516,-531,0
-453,465,-532,0
-500,600,-388,0
-461,431,-160,0
-527,120,-213,0
-599,-344,-219,0
-806,-307,-212,0
-1101,256,-531,0
-1160,646,-706,0
-1003,566,-509,0
-1245,603,-796,0
-1120,537,-865,0
-927,492,-631,0
-944,268,-651,0
-817,143,-569,0
-670,293,-397,0
-535,214,-206,0
-397,173,-230,0
-294,401,-360,0
-325,732,-333,0
-564,738,-255,0
-709,827,-283,0
-810,973,-307,0
-871,847,-165,0
-981,638,-288,0
-1035,688,-334,0
-749,1016,-6,0
-454,862,75,0
-500,950,-20,0
-590,707,-65,0
-554,564,-129,0
-481,322,-71,0
-543,383,-32,0
-536,491,-24,0
-398,411,241,0
-488,707,501,0
-697,814,380,0
-880,1093,346,0
-761,1034,513,0
-745,824,504,0
-821,842,390,0
-815,1217,476,0
-595,664,273,0
-496,693,263,0
-433,872,433,0
-326,741,431,0
-255,501,360,0
-311,494,349,0
-385,588,368,0
-423,635,361,0
-463,735,444,0
-472,835,599,0
-431,815,690,0
-414,747,710,0
-536,855,839,0
-489,1122,1056,0
-264,730,659,0
-203,576,380,0
-218,589,424,0
-288,678,584,0
-329,637,498,0
-346,406,437,0
-360,422,437,0
-418,492,482,0
-465,535,553,0
-473,582,614,0
-550,668,621,0
-668,872,658,0
-606,845,675,0
-793,924,498,0
-917,1222,513,0
-552,857,259,0
-411,706,152,0
-426,897,307,0
-371,967,483,0
-324,699,383,0
-363,514,234,0
-449,547,151,0
-514,611,170,0
-525,699,221,0
-519,782,325,0
-486,849,500,0
-509,893,437,0
-563,795,519,0
-705,1161,679,0
-530,1077,634,0
-287,578,317,0
-295,660,370,0
-397,869,524,0
-409,716,394,0
-413,488,257,0
-429,444,271,0
-458,501,347,0
-494,554,369,0
-501,580,414,0
-596,632,441,0
-772,794,448,0
-781,936,576,0
-725,853,456,0
-973,1056,364,0
-803,1004,346,0
-588,697,169,0
-605,800,159,0
-538,906,346,0
-382,708,412,0
-343,508,285,0
-386,457,173,0
-467,549,175,0
-490,612,240,0
-489,704,280,0
-496,782,408,0
-593,901,426,0
-665,857,476,0
-803,1099,571,0
-681,1207,543,0
-294,749,283,0
-184,712,256,0
-343,991,509,0
-408,951,438,0
-370,604,263,0
-404,447,206,0
-470,433,264,0
-519,493,329,0
-471,538,367,0
-472,587,433,0
-638,771,468,0
-748,932,491,0
-821,1003,544,0
-1012,1289,400,0
-748,918,258,0
-544,800,269,0
-624,694,159,0
-599,665,165,0
-470,584,227,0
-414,503,214,0
-435,520,188,0
-493,595,201,0
-512,652,247,0
-503,694,257,0
-502,770,318,0
-558,917,396,0
-600,890,459,0
-787,1172,519,0
-627,1251,572,0
-283,758,217,0
-301,904,365,0
-418,1017,515,0
-373,686,309,0
-370,442,160,0
-414,392,171,0
-472,434,272,0
-526,507,325,0
-544,596,349,0
-621,715,450,0
-728,902,477,0
-710,1021,623,0
-641,879,530,0
-988,1016,241,0
-956,924,213,0
-672,656,70,0
-562,754,91,0
-528,922,366,0
-373,739,418,0
-316,519,223,0
-373,497,125,0
-453,615,203,0
-474,652,277,0
-484,668,243,0
-509,785,363,0
-561,929,418,0
-642,840,459,0
-809,1183,601,0
-715,1008,490,0
-421,650,336,0
-329,752,323,0
-456,880,418,0
-465,814,394,0
-419,549,289,0
-449,430,207,0
-514,469,221,0
-528,534,297,0
-452,551,364,0
-494,649,437,0
-646,854,444,0
-663,922,465,0
-689,948,571,0
-932,1142,365,0
-898,915,224,0
-644,777,204,0
-589,746,94,0
-560,748,154,0
-433,709,332,0
-390,577,273,0
-428,509,132,0
-485,572,110,0
-517,650,205,0
-525,731,257,0
-509,809,315,0
-533,933,417,0
-590,893,386,0
-746,883,374,0
-831,1327,588,0
-431,813,231,0
-261,634,116,0
-420,1039,505,0
-439,1036,459,0
-367,613,239,0
-412,429,170,0
-478,409,183,0
-530,449,224,0
-502,485,284,0
-497,533,418,0
-676,762,495,0
-871,1031,526,0
-789,960,629,0
-893,1078,283,0
-849,975,315,0
-611,759,204,0
-572,728,92,0
-605,801,56,0
-466,731,213,0
-352,591,278,0
-352,550,139,0
-430,543,141,0
-516,679,245,0
-522,694,286,0
-572,711,333,0
-707,779,327,0
-755,800,247,0
-743,818,365,0
-866,1189,463,0
-725,1294,421,0
-363,717,115,0
-272,766,204,0
-440,901,381,0
-450,790,265,0
-422,538,162,0
-446,433,174,0
-495,477,220,0
-524,671,395,0
-472,782,627,0
-510,640,617,0
-651,592,540,0
-744,790,557,0
-648,644,473,0
-806,670,363,0
-993,983,499,0
-668,785,469,0
-523,697,218,0
-605,991,223,0
-461,853,305,0
-324,575,342,0
-330,504,162,0
-307,316,24,0
-381,847,-310,0
-444,945,-405,0
-419,1091,-401,0
-343,1160,-292,0
-293,1022,-155,0
-335,899,-160,0
-560,1283,-309,0
-412,1166,-148,0
-150,586,83,0
-26,722,161,0
-198,888,147,0
-251,833,-17,0
-287,666,66,0
-248,595,154,0
-202,610,378,0
-242,766,362,0
-425,1031,236,0
-322,1163,275,0
-236,1115,431,0
-281,1148,429,0
-565,1428,200,0
-395,1466,120,0
-135,902,-40,0
-159,874,-191,0
-141,952,-66,0
-110,890,184,0
-160,850,188,0
-222,723,48,0
-283,705,-50,0
-264,722,-15,0
-220,773,32,0
-232,942,71,0
-254,1121,86,0
-245,1044,127,0
-382,1221,168,0
-391,1517,230,0
-153,914,116,0
14,585,-60,0
-82,796,-64,0
-134,1217,268,0
-156,1003,349,0
-229,677,155,0
-323,585,48,0
-388,669,41,0
-356,715,96,0
-305,785,199,0
-367,949,191,0
-352,1160,173,0
-243,1120,175,0
-399,1430,108,0
-484,1490,79,0
-282,1027,-46,0
-223,782,-80,0
-308,901,-82,0
-315,927,-27,0
-230,810,73,0
-203,765,123,0
-255,771,63,0
-309,762,-3,0
-305,722,20,0
-334,792,53,0
-358,943,82,0
-318,1065,90,0
-278,983,135,0
-394,1519,194,0
-235,1274,249,0
-36,908,76,0
101,822,10,0
-40,975,110,0
-145,1104,279,0
-224,750,171,0
-296,562,34,0
-380,583,21,0
-361,684,89,0
-272,765,148,0
-252,895,187,0
-285,1103,214,0
-204,1224,213,0
-187,1142,212,0
-392,1383,159,0
-533,1225,33,0
-390,939,-14,0
-241,748,-127,0
-296,892,-201,0
-283,1012,-70,0
-144,878,175,0
-152,852,212,0
-317,733,12,0
-436,686,-143,0
-360,721,-46,0
-254,796,97,0
-284,1017,110,0
-314,1125,66,0
-280,1020,119,0
-274,1232,236,0
-196,1615,91,0
27,946,-52,0
39,720,-169,0
-110,917,-92,0
-227,998,117,0
-274,794,149,0
-312,635,90,0
-318,627,63,0
-306,687,83,0
-290,788,111,0
-297,847,149,0
-424,955,154,0
-476,1231,163,0
-409,1084,176,0
-513,1410,92,0
-585,1417,5,0
-384,955,-92,0
-281,792,-201,0
-310,859,-232,0
-280,790,-114,0
-198,705,68,0
-226,801,165,0
-309,806,79,0
-318,750,-56,0
-278,716,-95,0
-237,818,-21,0
-227,1048,39,0
-268,1062,21,0
-356,1082,62,0
-402,1671,125,0
-183,1188,126,0
33,731,-59,0
-33,693,-186,0
-205,993,3,0
-241,989,208,0
-305,789,162,0
-385,648,67,0
-433,699,12,0
-394,722,7,0
-302,697,82,0
-324,844,113,0
-366,1093,114,0
-302,1171,111,0
-368,1263,81,0
-632,1571,0,0
-496,1268,-14,0
-214,774,-128,0
-211,668,-210,0
-336,852,-260,0
-285,814,-135,0
-177,703,72,0
-225,847,141,0
-326,874,50,0
-363,793,-83,0
-324,741,-119,0
-297,806,-22,0
-350,1003,8,0
-399,976,19,0
-495,1339,39,0
-373,1575,125,0
-82,996,66,0
81,870,-8,0
-8,836,-136,0
-131,1063,47,0
-215,897,153,0
-292,608,96,0
-380,537,3,0
-432,591,-43,0
-400,714,-6,0
-314,802,89,0
-360,981,107,0
-397,1323,144,0
-317,1183,129,0
-492,1490,5,0
-531,1393,-52,0
-318,846,-160,0
-314,785,-234,0
-413,926,-241,0
-336,814,-154,0
-192,658,-10,0
-171,682,92,0
-267,814,48,0
-330,798,-61,0
-326,749,-125,0
-301,818,-96,0
-279,961,-17,0
-321,1057,-8,0
-415,1080,40,0
-493,1661,60,0
-176,1095,97,0
83,801,-47,0
-11,858,-149,0
-140,1087,44,0
-202,982,177,0
-279,699,99,0
-364,571,0,0
-394,596,-43,0
-356,664,-25,0
-318,715,38,0
-405,936,67,0
-454,1304,90,0
-337,1212,137,0
-430,1458,53,0
-536,1402,-38,0
-386,896,-156,0
-337,722,-240,0
-415,871,-276,0
-379,875,-235,0
-219,703,-79,0
-154,687,97,0
-248,837,103,0
-330,796,-17,0
-347,727,-144,0
-317,755,-131,0
-278,926,-41,0
-295,1057,-29,0
-337,1011,16,0
-481,1566,63,0
-331,1513,94,0
-35,848,38,0
-32,690,-153,0
-188,767,-206,0
-238,1074,13,0
-241,817,154,0
-301,684,100,0
-349,659,15,0
-326,671,-15,0
-283,709,47,0
-280,880,65,0
-353,1021,81,0
-381,1175,60,0
-375,1105,58,0
-582,1464,-16,0
-542,1277,-34,0
-340,912,-134,0
-313,795,-207,0
-364,874,-264,0
-299,782,-232,0
-203,672,-50,0
-205,754,95,0
-281,849,69,0
-320,814,-68,0
-292,760,-160,0
-265,837,-111,0
-261,973,-51,0
-286,1046,-14,0
-365,1006,8,0
-516,1703,10,0
-199,1161,109,0
9,797,-46,0
-104,757,-205,0
-231,972,-36,0
-259,960,147,0
-323,705,116,0
-401,558,22,0
-430,604,-19,0
-381,667,12,0
-346,714,44,0
-422,926,52,0
-463,1251,91,0
-373,1226,123,0
-396,1287,104,0
-573,1448,-22,0
-461,1067,-136,0
-320,812,-245,0
-342,814,-287,0
-333,829,-265,0
-239,737,-119,0
-163,667,89,0
-228,852,133,0
-329,817,0,0
-350,789,-133,0
-333,815,-153,0
-262,880,-71,0
-239,1043,-8,0
-295,1034,6,0
-396,1168,14,0
-415,1688,0,0
-93,1069,4,0
67,653,-166,0
-63,787,-206,0
-172,1013,37,0
-216,957,166,0
-288,700,70,0
-363,610,-37,0
-367,664,-56,0
-306,746,-15,0
-259,766,64,0
-339,944,99,0
-429,1332,102,0
-325,1203,91,0
-356,1250,35,0
-541,1430,-49,0
-420,1058,-128,0
-280,749,-202,0
-325,779,-267,0
-351,874,-264,0
-233,736,-94,0
-169,715,99,0
-254,836,122,0
-332,805,-6,0
-320,774,-127,0
-242,800,-98,0
-225,961,-21,0
-289,1090,17,0
-345,1042,52,0
-439,1214,90,0
-408,1716,52,0
-59,997,7,0
60,507,-206,0
-143,722,-225,0
-301,1071,-19,0
-317,813,140,0
-372,701,117,0
-417,698,27,0
-381,710,-37,0
-320,737,-29,0
-298,800,45,0
-359,953,84,0
-434,1273,82,0
-345,1151,94,0
-416,1238,24,0
-605,1418,-75,0
-432,1036,-143,0
-251,690,-231,0
-293,786,-249,0
-210,756,-70,0
-177,750,105,0
-280,863,99,0
-347,820,-25,0
-323,747,-146,0
-275,748,-151,0
-269,865,-82,0
-325,1120,1,0
-381,1063,49,0
-522,1382,-9,0
-447,1500,-18,0
-30,887,8,0
156,762,-143,0
-12,814,-150,0
-130,1126,47,0
-185,852,124,0
-273,653,33,0
-358,640,-70,0
-344,683,-94,0
-264,690,-3,0
-274,766,59,0
-425,1065,28,0
-434,1361,38,0
-282,1120,62,0
-493,1503,-54,0
-569,1387,-118,0
-362,869,-205,0
-297,698,-301,0
-373,790,-361,0
-336,771,-285,0
-226,656,-100,0
-209,739,47,0
-279,876,48,0
-300,829,-74,0
-265,734,-172,0
-231,782,-135,0
-253,955,-76,0
-319,1072,-17,0
-379,1078,18,0
-557,1666,-51,0
-345,1288,-27,0
-6,791,-39,0
36,811,-140,0
-109,927,-118,0
-186,949,13,0
-254,683,37,0
-358,642,-14,0
-399,650,-57,0
-355,669,-62,0
-299,700,0,0
-334,846,43,0
-453,1183,36,0
-405,1390,81,0
-284,1111,55,0
-537,1459,-99,0
-541,1201,-144,0
-382,843,-205,0
-397,818,-310,0
-382,837,-346,0
-257,696,-227,0
-168,597,-46,0
-195,725,88,0
-326,924,71,0
-348,813,-38,0
-337,754,-161,0
-319,797,-178,0
-327,984,-111,0
-352,1006,25,0
-544,1459,41,0
-444,1588,8,0
-150,858,-27,0
-27,678,-68,0
-89,744,-196,0
-211,937,-81,0
-295,907,42,0
-361,764,43,0
-399,707,-8,0
-382,657,-64,0
-335,640,-57,0
-339,709,-51,0
-427,923,-41,0
-468,1223,-33,0
-380,1169,-2,0
-517,1483,-110,0
-543,1525,-141,0
-256,996,-249,0
-179,680,-254,0
-319,790,-261,0
-362,852,-232,0
-285,700,-151,0
-246,659,-55,0
-296,728,-36,0
-357,771,-64,0
-359,788,-114,0
-287,805,-118,0
-260,919,-90,0
-323,1128,-47,0
-349,1092,21,0
-428,1249,20,0
-479,1781,-106,0
-53,858,-53,0
25,589,-227,0
-200,777,-321,0
-298,993,-126,0
-259,804,73,0
-320,668,61,0
-410,628,-46,0
-428,637,-105,0
-374,676,-73,0
-346,713,-11,0
-445,956,6,0
-501,1327,36,0
-442,1213,-19,0
-592,1572,-161,0
-504,1326,-189,0
-318,873,-268,0
-300,640,-268,0
-380,776,-279,0
-383,771,-317,0
-296,659,-210,0
-248,704,-62,0
-286,819,-13,0
-310,823,-62,0
-279,777,-129,0
-240,794,-152,0
-259,948,-117,0
-350,1112,-77,0
-373,1039,-3,0
-488,1291,-20,0
-482,1630,-67,0
-59,846,-13,0
-8,611,-225,0
-241,771,-322,0
-333,991,-147,0
-330,724,41,0
-448,647,48,0
-552,681,-51,0
-552,718,-117,0
-471,742,-135,0
-428,861,-130,0
-402,1057,-86,0
-376,1203,-76,0
-291,1109,-52,0
-386,1297,-220,0
-483,1262,-307,0
-328,959,-346,0
-229,715,-350,0
-279,707,-321,0
-282,803,-250,0
-176,780,-141,0
-171,851,-90,0
-232,778,-134,0
-254,817,-182,0
-204,859,-166,0
-84,900,-134,0
37,968,-99,0
52,1097,-34,0
-18,1155,-15,0
-91,1131,-21,0
-143,1108,-44,0
-210,1227,-83,0
-162,1436,-97,0
2,947,-48,0
21,625,-131,0
-197,599,-276,0
-443,854,-302,0
-426,807,-112,0
-295,675,103,0
-271,802,168,0
-289,929,157,0
-240,932,150,0
-184,988,122,0
-164,1075,63,0
-183,1143,48,0
-142,1107,66,0
-287,1374,-75,0
-306,1398,-125,0
-223,1056,-212,0
-255,760,-282,0
-397,703,-274,0
-478,836,-250,0
-399,694,-208,0
-321,691,-102,0
-296,769,-33,0
-295,816,-38,0
-307,886,-53,0
-304,859,-71,0
-322,925,-97,0
-345,991,-71,0
-359,1058,-46,0
-382,1053,-45,0
-459,1188,-98,0
-444,1523,-123,0
-196,1018,-50,0
-50,666,-28,0
-117,634,-157,0
-209,790,-197,0
-297,862,-118,0
-342,711,5,0
-349,702,58,0
-401,785,33,0
-452,790,9,0
-450,732,18,0
-526,876,28,0
-555,1055,3,0
-521,1172,-85,0
-547,1132,-70,0
-690,1354,-179,0
-558,1088,-154,0
-314,854,-161,0
-320,693,-275,0
-390,793,-322,0
-365,741,-286,0
-269,697,-146,0
-217,754,3,0
-268,826,13,0
-344,840,-63,0
-357,805,-146,0
-363,855,-190,0
-363,954,-171,0
-371,983,-140,0
-385,993,-79,0
-387,1236,-68,0
-386,1601,-302,0
-126,1066,-302,0
-53,662,-242,0
-174,722,-298,0
-209,744,-352,0
-308,590,-210,0
-438,775,-164,0
-546,1211,-377,0
-591,940,-361,0
-585,811,-274,0
-498,643,-278,0
-379,380,-335,0
-1102,650,-150,0
-725,787,-497,0
-780,285,-218,0
-942,428,-500,0
-861,460,-583,0
-743,169,-473,0
-672,87,-484,0
-513,329,-582,0
-468,632,-667,0
-412,438,-549,0
-346,505,-455,0
-311,472,-316,0
-252,393,-210,0
-172,435,-226,0
-42,585,-329,0
156,682,-462,0
250,1267,-741,0
218,1545,-504,0
311,1443,-39,0
249,963,290,0
508,-171,488,0
929,-260,730,0
1148,27,527,0
1258,428,286,0
1181,889,134,0
996,1037,73,0
839,873,51,0
718,682,211,0
622,492,376,0
696,471,403,0
902,615,367,0
898,695,322,0
967,707,266,0
1224,828,399,0
1075,580,373,0
1023,450,302,0
1035,508,339,0
955,500,330,0
819,404,241,0
706,369,178,0
657,352,163,0
654,366,180,0
667,394,205,0
739,434,242,0
806,427,294,0
811,363,312,0
770,364,363,0
885,382,364,0
1033,467,345,0
861,457,414,0
818,450,445,0
877,406,354,0
860,287,285,0
691,205,299,0
547,192,305,0
508,215,323,0
594,276,316,0
687,363,333,0
711,369,396,0
806,439,469,0
988,522,504,0
1123,562,503,0
1063,446,450,0
1212,542,439,0
1055,551,409,0
908,463,208,0
907,617,241,0
898,666,269,0
760,510,199,0
654,389,119,0
727,325,131,0
764,330,115,0
813,334,96,0
894,368,97,0
927,398,103,0
864,439,162,0
1175,490,159,0
1254,605,194,0
867,416,275,0
883,461,324,0
940,490,272,0
767,261,185,0
598,215,178,0
584,291,167,0
663,380,125,0
755,484,109,0
796,597,172,0
865,647,241,0
922,685,267,0
969,640,257,0
917,499,187,0
1092,612,207,0
1146,770,266,0
1036,671,151,0
1011,677,130,0
1025,591,111,0
977,469,61,0
895,353,17,0
875,317,20,0
897,321,10,0
948,333,-3,0
959,331,-15,0
911,330,-15,0
854,318,-8,0
792,347,32,0
973,423,60,0
1036,496,134,0
779,443,225,0
725,422,282,0
878,515,270,0
969,438,175,0
867,373,167,0
797,424,192,0
827,439,166,0
893,521,94,0
868,572,125,0
845,613,203,0
866,684,261,0
917,765,279,0
912,731,263,0
971,702,185,0
1132,847,197,0
1158,787,130,0
1063,611,123,0
1088,538,160,0
1076,436,130,0
997,372,91,0
955,360,59,0
933,384,35,0
915,388,16,0
834,357,3,0
732,301,0,0
675,300,8,0
625,287,13,0
610,328,32,0
776,372,23,0
1074,531,50,0
1021,513,126,0
1124,600,286,0
1226,646,269,0
1120,546,134,0
973,427,170,0
855,420,199,0
805,417,205,0
771,479,206,0
713,581,224,0
680,615,238,0
694,694,261,0
807,800,287,0
894,722,237,0
1092,637,140,0
1274,748,173,0
1243,628,62,0
1228,542,17,0
1180,514,13,0
1114,493,-2,0
1049,447,-28,0
979,396,-50,0
941,345,-73,0
918,312,-80,0
802,281,-85,0
635,293,-37,0
594,345,41,0
626,356,86,0
685,363,127,0
959,494,226,0
956,593,387,0
885,606,635,0
921,518,697,0
991,314,509,0
912,258,448,0
774,377,416,0
708,457,394,0
690,478,349,0
614,450,309,0
553,489,363,0
598,553,411,0
704,653,386,0
861,733,354,0
933,644,392,0
1242,550,404,0
1284,475,460,0
1180,398,395,0
955,398,324,0
803,382,230,0
744,399,193,0
690,391,172,0
630,352,114,0
594,332,81,0
606,383,89,0
653,419,130,0
711,421,118,0
801,392,101,0
985,393,126,0
1044,404,211,0
1043,433,309,0
1347,541,327,0
1089,596,423,0
737,504,529,0
869,427,448,0
851,332,343,0
716,277,326,0
575,333,400,0
548,399,381,0
580,390,311,0
586,403,260,0
564,433,248,0
651,462,230,0
837,538,195,0
969,567,133,0
1345,648,97,0
1207,681,194,0
980,645,323,0
905,626,355,0
908,707,371,0
812,572,309,0
735,418,257,0
650,351,267,0
603,334,240,0
602,370,193,0
652,382,113,0
768,396,49,0
887,423,29,0
974,427,39,0
984,446,108,0
1267,501,123,0
1151,512,195,0
829,448,342,0
818,488,446,0
947,374,370,0
937,144,302,0
779,85,322,0
676,145,339,0
682,197,302,0
709,270,243,0
670,396,239,0
687,455,251,0
795,486,257,0
958,547,239,0
1027,550,268,0
1016,483,291,0
1171,600,330,0
1132,645,306,0
949,560,276,0
874,596,250,0
917,577,214,0
922,470,172,0
793,354,116,0
700,308,60,0
689,337,27,0
732,408,10,0
780,389,-1,0
830,370,17,0
902,372,37,0
958,388,43,0
1009,425,59,0
1287,519,62,0
1022,461,146,0
833,472,268,0
910,529,343,0
945,376,277,0
802,189,242,0
698,265,309,0
653,344,392,0
668,409,404,0
654,467,436,0
642,459,448,0
732,415,381,0
859,393,292,0
934,478,274,0
975,504,211,0
1157,621,160,0
1111,699,154,0
973,643,122,0
943,593,174,0
962,565,175,0
834,457,167,0
730,350,133,0
762,317,111,0
792,363,128,0
738,388,133,0
684,354,120,0
678,343,122,0
745,371,123,0
852,388,119,0
927,452,130,0
1190,478,101,0
1254,526,105,0
931,480,151,0
919,519,212,0
992,582,154,0
891,428,92,0
715,352,108,0
633,377,132,0
640,426,148,0
661,461,150,0
671,493,206,0
721,555,288,0
793,633,350,0
901,650,370,0
1004,592,359,0
1123,479,266,0
1163,591,281,0
1041,609,219,0
974,506,100,0
990,500,89,0
930,450,92,0
826,361,42,0
781,344,17,0
795,342,-7,0
796,365,-3,0
758,357,-1,0
782,348,17,0
848,389,49,0
838,407,95,0
844,445,171,0
1058,529,238,0
1042,611,385,0
847,568,551,0
867,449,545,0
923,286,419,0
837,205,316,0
669,236,273,0
578,303,281,0
579,378,250,0
558,420,207,0
530,446,208,0
558,489,239,0
676,515,287,0
892,583,365,0
993,564,427,0
1132,439,423,0
1202,436,435,0
1100,503,435,0
992,519,389,0
949,597,338,0
826,568,310,0
690,442,240,0
642,349,170,0
686,323,148,0
752,348,141,0
801,357,123,0
809,350,101,0
831,355,87,0
828,368,68,0
811,442,105,0
1002,533,142,0
1142,612,196,0
909,568,317,0
892,502,371,0
992,495,332,0
911,364,276,0
728,330,275,0
610,335,278,0
589,367,256,0
602,403,237,0
613,448,271,0
711,499,326,0
817,490,339,0
938,469,329,0
998,451,329,0
989,414,273,0
954,469,220,0
1000,576,160,0
961,625,104,0
930,660,50,0
940,656,73,0
806,495,52,0
683,319,41,0
706,266,52,0
788,307,56,0
815,362,71,0
824,380,65,0
843,403,79,0
912,407,78,0
1141,449,103,0
1299,527,117,0
953,472,159,0
831,428,202,0
965,468,150,0
926,353,107,0
713,225,125,0
604,233,131,0
617,330,155,0
678,367,107,0
680,421,104,0
664,444,172,0
727,469,192,0
901,543,191,0
1057,633,210,0
1163,593,151,0
1241,659,188,0
1041,650,195,0
1006,528,112,0
1056,553,100,0
973,552,85,0
820,476,87,0
731,234,13,0
724,129,48,0
733,249,47,0
747,366,12,0
815,402,-8,0
916,356,-3,0
941,308,-11,0
921,359,40,0
1155,500,63,0
1127,560,110,0
845,457,154,0
860,470,176,0
944,529,184,0
823,431,164,0
663,333,132,0
611,334,126,0
652,383,122,0
698,438,123,0
690,491,183,0
752,558,231,0
855,676,274,0
969,708,291,0
995,600,230,0
1243,615,198,0
1182,703,225,0
1019,552,56,0
1011,530,73,0
982,486,74,0
878,413,33,0
803,352,18,0
791,333,0,0
808,333,-18,0
794,315,-22,0
774,293,-8,0
815,311,1,0
840,348,27,0
821,382,83,0
1000,446,144,0
1215,540,143,0
1034,519,210,0
883,433,285,0
994,515,242,0
958,487,170,0
758,373,118,0
661,346,101,0
676,385,96,0
713,429,94,0
709,474,94,0
729,515,149,0
815,607,226,0
960,709,251,0
1000,685,265,0
1049,570,220,0
1202,675,279,0
1027,673,238,0
1000,538,90,0
996,572,100,0
917,505,77,0
796,399,42,0
746,341,14,0
786,332,-14,0
844,327,-24,0
848,303,-19,0
853,300,0,0
883,317,10,0
834,350,56,0
866,395,117,0
1138,504,131,0
1028,522,178,0
822,413,264,0
952,473,283,0
1037,510,210,0
856,378,168,0
689,348,152,0
666,334,118,0
738,446,92,0
769,520,123,0
729,559,202,0
780,605,277,0
900,661,290,0
1013,638,261,0
958,517,224,0
1172,624,208,0
1141,750,240,0
981,574,89,0
1006,593,111,0
1003,546,93,0
882,452,78,0
766,376,69,0
746,354,54,0
773,339,37,0
782,332,41,0
750,343,75,0
773,351,94,0
804,373,116,0
783,391,184,0
945,404,192,0
1142,512,185,0
969,420,209,0
984,404,235,0
1059,539,221,0
937,486,153,0
725,399,117,0
654,371,70,0
674,425,81,0
722,520,98,0
761,548,119,0
837,612,198,0
883,684,263,0
982,774,303,0
981,634,229,0
1212,637,202,0
1165,750,245,0
1017,617,102,0
1061,621,107,0
1077,582,99,0
1034,467,44,0
972,358,16,0
940,297,1,0
942,292,-24,0
907,253,-62,0
829,229,-87,0
806,245,-106,0
797,284,-120,0
757,326,-89,0
805,407,9,0
1047,536,60,0
974,565,178,0
868,417,280,0
1049,522,281,0
1119,550,211,0
931,445,230,0
771,431,176,0
741,426,108,0
779,512,86,0
766,531,110,0
797,599,123,0
845,672,181,0
927,771,192,0
935,715,162,0
1160,685,108,0
1212,762,134,0
1045,607,74,0
1087,553,80,0
1084,544,62,0
1035,475,36,0
942,416,16,0
892,358,-12,0
884,330,-35,0
872,309,-46,0
822,274,-53,0
807,264,-54,0
821,293,-41,0
774,318,-1,0
801,371,85,0
1013,495,125,0
1002,523,188,0
903,424,267,0
1024,502,277,0
1142,570,260,0
962,504,238,0
778,407,162,0
728,426,119,0
745,470,96,0
736,524,169,0
697,557,246,0
777,623,296,0
944,758,307,0
1044,782,268,0
1123,640,196,0
1148,579,209,0
977,479,133,0
941,434,78,0
1033,509,22,0
1041,545,-2,0
953,496,1,0
841,372,-10,0
766,297,-31,0
748,271,-45,0
700,279,-25,0
641,293,10,0
669,348,51,0
739,392,57,0
852,449,112,0
940,526,236,0
1285,506,160,0
1280,618,234,0
946,554,318,0
1105,618,270,0
1164,571,133,0
845,260,27,0
627,256,64,0
539,334,49,0
547,429,21,0
531,498,8,0
567,497,53,0
756,561,115,0
904,660,199,0
1004,635,208,0
1125,615,218,0
1247,534,175,0
1434,714,282,0
1111,624,165,0
948,401,4,0
944,496,45,0
811,439,20,0
718,271,-9,0
658,267,-25,0
654,291,-57,0
746,322,-74,0
941,377,-107,0
1154,403,-97,0
1031,320,-48,0
931,289,36,0
861,336,28,0
869,399,19,0
1083,514,14,0
854,524,136,0
803,416,174,0
961,543,269,0
899,570,239,0
707,403,195,0
629,429,207,0
670,415,159,0
746,479,164,0
724,545,196,0
797,613,235,0
958,711,262,0
1053,675,237,0
1211,572,163,0
1266,687,277,0
959,563,180,0
947,448,115,0
1070,526,165,0
1104,546,148,0
993,432,83,0
875,322,27,0
807,286,4,0
786,278,-17,0
791,278,-45,0
748,273,-44,0
745,295,-11,0
762,358,24,0
786,449,102,0
966,496,176,0
1252,554,161,0
1047,503,283,0
954,434,357,0
1112,560,284,0
1026,448,113,0
796,387,-10,0
753,456,-36,0
730,546,-87,0
665,544,-88,0
583,519,-88,0
712,525,-33,0
897,609,18,0
1034,644,68,0
980,582,147,0
871,535,207,0
1129,747,270,0
1012,773,262,0
941,608,110,0
1091,631,121,0
984,569,124,0
821,313,49,0
755,169,27,0
756,224,13,0
823,335,-33,0
878,402,-59,0
871,348,-99,0
910,304,-109,0
882,340,-80,0
922,333,-77,0
1160,453,-44,0
884,476,108,0
877,533,177,0
954,660,258,0
828,498,201,0
691,300,205,0
627,326,259,0
645,343,244,0
696,441,247,0
717,539,251,0
902,578,244,0
1022,626,260,0
1073,575,191,0
1466,724,220,0
1201,719,191,0
1021,439,-9,0
975,451,56,0
818,427,38,0
733,377,10,0
700,357,-25,0
722,358,-51,0
758,348,-61,0
778,305,-54,0
868,292,-39,0
940,316,-6,0
911,304,17,0
929,339,64,0
1246,516,83,0
1004,521,153,0
796,416,194,0
925,546,239,0
990,599,186,0
798,448,154,0
639,402,153,0
631,369,127,0
730,400,113,0
740,456,108,0
732,495,147,0
821,564,175,0
963,665,216,0
1037,723,250,0
1174,658,190,0
1310,750,247,0
1070,557,104,0
1013,417,50,0
1002,478,98,0
972,484,51,0
917,416,11,0
869,355,-19,0
854,312,-39,0
838,280,-60,0
802,262,-72,0
769,269,-46,0
781,308,-19,0
784,343,20,0
773,392,106,0
1070,514,166,0
1075,571,189,0
840,400,214,0
1072,507,276,0
1255,692,225,0
969,490,127,0
687,382,87,0
673,370,85,0
740,434,41,0
768,509,74,0
725,572,135,0
725,577,177,0
786,661,194,0
888,721,188,0
1085,673,101,0
1384,824,155,0
1157,683,52,0
1090,480,7,0
1041,465,22,0
949,441,11,0
889,420,1,0
851,387,-20,0
826,354,-42,0
805,323,-53,0
781,286,-64,0
785,292,-50,0
829,312,-29,0
857,309,-6,0
848,365,83,0
1071,452,128,0
1101,504,165,0
943,437,220,0
981,451,255,0
1062,551,190,0
882,454,112,0
694,349,63,0
678,370,53,0
739,425,28,0
782,457,9,0
795,518,50,0
871,605,115,0
994,746,183,0
952,882,273,0
1061,874,228,0
1233,851,192,0
1061,563,53,0
1046,407,89,0
1036,387,95,0
1085,448,43,0
1043,469,32,0
962,425,-1,0
901,347,-50,0
842,303,-89,0
797,282,-94,0
798,304,-74,0
824,329,-36,0
800,311,10,0
770,359,102,0
957,459,192,0
963,484,170,0
788,362,167,0
946,426,225,0
1221,668,199,0
1174,697,170,0
888,526,118,0
776,449,65,0
803,405,23,0
780,451,49,0
723,556,103,0
805,634,120,0
882,768,130,0
1014,834,154,0
1032,722,142,0
1224,715,176,0
1083,622,138,0
1168,513,49,0
1248,570,66,0
1150,497,26,0
1036,383,16,0
896,316,7,0
817,302,-28,0
773,289,-55,0
653,300,-36,0
540,353,39,0
569,517,143,0
623,462,95,0
790,461,75,0
1054,416,60,0
1094,214,-94,0
1052,166,-179,0
971,204,-109,0
1388,532,18,0
1899,815,23,0
1998,910,31,0
1545,997,300,0
300,692,-56,0
-747,1135,119,0
-869,1127,321,0
-547,621,32,0
-170,517,9,0
249,497,153,0
1523,1187,411,0
1998,951,-332,0
1795,-34,-717,0
1281,357,532,0
1489,791,529,0
1448,727,-58,0
1268,869,-195,0
920,541,-183,0
406,-299,-15,0
211,-353,100,0
665,167,54,0
1007,670,135,0
876,601,215,0
743,439,394,0
751,433,164,0
834,245,48,0
906,247,58,0
905,400,46,0
904,459,28,0
914,523,3,0
901,617,28,0
927,636,56,0
896,571,20,0
1321,725,61,0
1213,617,50,0
1323,573,45,0
1112,472,116,0
801,398,117,0
692,416,120,0
616,446,74,0
625,486,33,0
809,543,-2,0
1082,549,-62,0
1195,382,-138,0
931,240,-126,0
785,367,-44,0
620,476,-21,0
508,444,-21,0
713,449,-82,0
994,665,39,0
1190,596,237,0
899,350,352,0
662,338,247,0
556,307,293,0
545,442,348,0
536,529,296,0
595,645,351,0
839,828,369,0
1009,819,277,0
1223,726,161,0
1551,807,169,0
1096,431,-12,0
1010,294,19,0
1000,342,50,0
776,463,1,0
709,441,-13,0
693,440,-40,0
780,444,-100,0
878,413,-127,0
948,344,-131,0
951,283,-117,0
889,294,-83,0
815,327,-68,0
833,388,-20,0
815,427,48,0
761,438,125,0
989,420,63,0
1046,557,100,0
737,486,208,0
795,493,227,0
1061,702,266,0
963,608,256,0
784,424,213,0
706,354,169,0
714,364,142,0
697,470,143,0
674,586,176,0
743,635,194,0
911,636,157,0
989,609,162,0
892,523,202,0
950,496,209,0
1284,634,252,0
1103,550,182,0
946,400,37,0
1001,465,31,0
890,524,39,0
753,421,13,0
712,370,-16,0
755,371,-72,0
816,338,-49,0
799,312,-37,0
729,350,10,0
714,372,29,0
768,405,22,0
857,459,48,0
921,519,102,0
940,533,154,0
1314,515,108,0
1079,493,179,0
757,322,231,0
1012,572,281,0
966,602,212,0
784,363,112,0
690,373,144,0
657,389,136,0
663,406,91,0
642,471,110,0
657,484,135,0
793,502,155,0
994,530,173,0
1061,491,181,0
1024,436,186,0
1185,488,200,0
1144,552,200,0
944,476,133,0
872,413,75,0
949,456,58,0
855,454,60,0
713,368,26,0
633,340,17,0
674,334,0,0
792,325,-5,0
844,302,-19,0
865,301,-22,0
932,385,-7,0
1018,464,17,0
923,436,67,0
927,369,34,0
1178,489,22,0
904,423,108,0
930,440,134,0
1139,543,115,0
919,423,104,0
686,375,133,0
609,385,111,0
600,363,90,0
597,390,96,0
627,438,119,0
680,499,148,0
832,586,175,0
999,694,224,0
1215,664,148,0
1449,840,216,0
1188,546,58,0
1143,365,81,0
1077,336,164,0
1007,370,81,0
918,525,74,0
816,345,28,0
759,359,23,0
734,355,-19,0
685,304,-38,0
695,269,-30,0
773,274,-31,0
829,302,-40,0
864,378,1,0
1100,455,19,0
942,508,187,0
1037,493,219,0
1103,497,166,0
916,322,103,0
720,301,137,0
688,329,87,0
705,360,28,0
707,458,13,0
722,518,84,0
747,537,148,0
840,658,230,0
998,740,313,0
1186,679,241,0
1420,706,294,0
1180,548,252,0
1017,398,215,0
1030,446,186,0
1003,546,139,0
884,502,105,0
767,393,62,0
706,318,11,0
680,280,-22,0
664,255,-38,0
712,256,-63,0
816,293,-72,0
828,310,-71,0
829,318,-44,0
1123,466,-25,0
1117,546,55,0
984,547,174,0
899,587,318,0
952,627,341,0
931,461,295,0
803,321,282,0
735,309,303,0
712,402,300,0
687,496,279,0
636,544,289,0
703,540,284,0
935,530,261,0
1070,497,230,0
997,424,195,0
1296,577,230,0
1246,642,263,0
933,411,122,0
850,385,152,0
954,438,153,0
933,445,107,0
830,390,55,0
719,387,65,0
702,393,46,0
761,393,25,0
850,393,29,0
905,372,55,0
922,346,71,0
888,305,58,0
826,333,59,0
755,386,85,0
684,430,96,0
669,450,116,0
830,474,176,0
1350,553,144,0
1121,562,242,0
809,419,337,0
1021,513,335,0
1005,449,172,0
741,342,141,0
608,388,170,0
639,395,125,0
677,451,123,0
684,462,161,0
757,478,189,0
894,509,212,0
1060,573,236,0
1050,603,284,0
1062,580,282,0
1040,667,320,0
1013,586,186,0
971,475,65,0
1007,441,-3,0
967,480,41,0
832,372,-9,0
755,277,-54,0
816,297,-82,0
891,358,-89,0
889,389,-88,0
899,372,-58,0
1006,386,-23,0
1070,372,43,0
1014,298,81,0
835,275,139,0
891,314,133,0
859,430,112,0
740,453,137,0
809,566,257,0
969,669,372,0
872,523,275,0
714,383,217,0
718,355,194,0
746,407,144,0
765,524,169,0
773,609,196,0
800,607,174,0
883,615,191,0
959,605,190,0
1096,527,81,0
1280,700,139,0
1045,621,33,0
1073,567,-21,0
1105,608,14,0
1053,518,-11,0
967,394,-34,0
905,322,-50,0
902,309,-45,0
896,310,-44,0
868,309,-51,0
825,298,-70,0
775,281,-85,0
716,277,-57,0
739,335,14,0
972,447,54,0
1171,577,146,0
953,535,288,0
981,540,340,0
1114,505,222,0
964,358,132,0
766,331,59,0
756,387,20,0
799,505,6,0
783,575,43,0
750,574,63,0
779,542,114,0
841,552,136,0
894,645,183,0
870,654,201,0
978,634,164,0
1200,772,239,0
1030,662,213,0
953,498,133,0
1027,520,95,0
982,502,85,0
829,381,59,0
754,321,23,0
763,350,-28,0
810,369,-64,0
808,319,-86,0
858,289,-83,0
940,313,-80,0
902,327,-60,0
838,370,31,0
1114,464,58,0
1155,590,134,0
797,445,220,0
873,440,265,0
1009,584,266,0
861,406,208,0
700,355,193,0
684,397,162,0
763,429,139,0
768,487,101,0
766,513,104,0
757,524,123,0
784,532,129,0
949,588,139,0
985,572,140,0
1218,591,118,0
1312,727,271,0
973,482,164,0
1070,469,166,0
1054,548,233,0
977,508,180,0
818,428,147,0
638,340,74,0
602,338,38,0
638,369,11,0
666,375,-4,0
715,339,1,0
792,334,35,0
882,350,74,0
961,419,137,0
1336,510,125,0
1131,567,210,0
704,276,276,0
1051,440,217,0
1147,510,197,0
818,275,114,0
715,409,155,0
765,462,110,0
786,436,16,0
789,504,47,0
830,536,109,0
868,559,98,0
880,553,100,0
922,421,127,0
901,351,154,0
790,380,158,0
733,484,142,0
698,506,103,0
713,505,109,0
1206,711,185,0
1412,900,291,0
1401,400,6,0
1394,309,108,0
1252,308,155,0
939,313,96,0
727,351,20,0
640,399,-19,0
715,435,-48,0
845,407,-59,0
973,325,-60,0
1026,257,-52,0
899,200,-50,0
708,200,-65,0
599,270,-61,0
683,377,-66,0
1108,623,-91,0
1028,745,56,0
1111,818,256,0
1233,807,332,0
957,478,201,0
768,126,242,0
709,162,225,0
705,319,173,0
737,596,128,0
709,753,144,0
769,752,209,0
891,676,249,0
989,566,206,0
1055,422,141,0
1248,551,164,0
1122,614,117,0
899,485,-23,0
920,570,8,0
940,585,3,0
910,452,-50,0
876,357,-88,0
868,283,-85,0
848,271,-80,0
816,271,-94,0
818,284,-99,0
880,339,-82,0
919,360,-78,0
876,330,-45,0
1008,372,3,0
1227,486,19,0
959,465,128,0
814,414,224,0
945,529,252,0
957,518,229,0
777,343,214,0
680,331,213,0
705,366,206,0
748,448,175,0
714,569,174,0
706,590,234,0
800,604,232,0
982,656,217,0
1042,671,209,0
1085,585,92,0
1260,774,207,0
1056,635,76,0
1048,521,20,0
1063,499,21,0
965,482,17,0
854,416,13,0
801,355,-29,0
812,340,-63,0
862,336,-66,0
887,327,-53,0
914,325,-41,0
852,264,-34,0
813,262,-6,0
823,316,56,0
1043,475,64,0
971,509,141,0
941,498,215,0
1069,590,286,0
1001,597,288,0
812,431,255,0
773,408,220,0
816,413,189,0
836,458,151,0
767,537,153,0
716,645,211,0
750,745,223,0
892,815,224,0
892,674,189,0
1126,605,189,0
1368,654,275,0
1297,521,197,0
1193,480,184,0
1080,546,178,0
980,552,154,0
862,445,94,0
746,330,49,0
663,292,47,0
628,275,66,0
636,278,68,0
681,294,77,0
751,287,91,0
762,293,127,0
845,393,192,0
1086,494,159,0
1115,478,144,0
1129,527,202,0
1232,636,176,0
1034,553,149,0
893,457,129,0
855,438,100,0
840,477,75,0
758,552,112,0
701,641,162,0
750,749,231,0
880,776,269,0
1002,695,295,0
889,515,337,0
1084,562,411,0
1368,625,404,0
1195,518,239,0
1180,550,267,0
1183,566,258,0
988,452,177,0
778,335,92,0
648,294,27,0
671,321,3,0
694,307,-19,0
738,260,-38,0
805,239,-36,0
874,246,-34,0
841,275,-19,0
1022,377,-12,0
1173,539,49,0
1077,555,200,0
1063,644,352,0
1060,655,352,0
917,455,271,0
751,269,234,0
718,283,242,0
726,396,258,0
711,531,251,0
719,639,282,0
783,697,318,0
944,727,325,0
1065,706,334,0
939,600,319,0
1070,675,340,0
1268,692,281,0
1247,548,160,0
1244,485,168,0
1194,449,169,0
1078,397,106,0
895,347,26,0
818,358,-4,0
799,378,-42,0
782,360,-75,0
755,268,-92,0
721,213,-84,0
722,234,-75,0
685,262,-70,0
703,370,9,0
925,485,83,0
1103,559,93,0
1038,552,160,0
1227,693,362,0
1216,677,358,0
976,427,222,0
840,280,190,0
789,336,218,0
787,418,194,0
713,543,146,0
741,661,198,0
749,656,223,0
800,590,199,0
960,594,226,0
1025,575,226,0
1299,587,178,0
1317,682,247,0
1063,467,117,0
1085,454,105,0
1011,513,82,0
917,455,11,0
793,359,-22,0
715,302,-54,0
726,302,-54,0
733,297,-73,0
719,250,-92,0
771,259,-83,0
847,323,-46,0
853,382,28,0
963,427,120,0
1294,530,139,0
1093,502,219,0
889,424,321,0
991,567,368,0
985,526,268,0
762,376,203,0
638,359,149,0
660,387,113,0
751,469,110,0
713,518,84,0
673,516,117,0
800,610,154,0
965,692,181,0
982,668,191,0
1221,619,161,0
1221,679,218,0
1021,534,110,0
942,504,110,0
932,558,91,0
889,535,50,0
813,428,18,0
787,345,0,0
801,321,-20,0
818,309,-35,0
825,292,-40,0
862,300,-34,0
898,321,-20,0
888,321,3,0
879,351,68,0
1194,470,71,0
1082,505,133,0
787,421,207,0
845,496,216,0
983,589,137,0
878,449,103,0
718,398,115,0
721,416,106,0
774,458,53,0
770,487,74,0
743,509,127,0
789,545,165,0
893,632,192,0
1005,692,224,0
968,575,191,0
1192,640,194,0
1167,692,198,0
960,536,104,0
1007,544,94,0
1027,554,85,0
963,454,21,0
854,335,-26,0
809,303,-37,0
819,310,-49,0
810,309,-62,0
767,275,-60,0
817,294,-43,0
853,328,-14,0
840,321,12,0
945,346,55,0
1189,499,68,0
968,470,150,0
825,432,225,0
962,548,261,0
1003,584,235,0
827,414,210,0
703,350,194,0
720,366,158,0
777,412,141,0
727,456,135,0
719,525,173,0
808,598,197,0
934,650,206,0
981,652,232,0
1158,570,170,0
1338,728,283,0
1129,600,165,0
979,458,79,0
975,530,114,0
902,504,63,0
813,394,4,0
773,342,-14,0
797,334,-27,0
837,318,-46,0
831,277,-58,0
832,284,-43,0
874,319,-32,0
851,350,-5,0
821,369,70,0
1062,437,118,0
1168,549,139,0
898,454,186,0
907,430,262,0
1058,574,234,0
922,454,133,0
699,334,104,0
664,379,105,0
708,429,139,0
746,464,89,0
754,456,99,0
790,509,169,0
852,574,205,0
968,661,219,0
1003,621,196,0
1248,589,135,0
1212,691,207,0
1014,532,95,0
1078,585,90,0
998,600,73,0
899,469,33,0
817,371,0,0
781,318,-16,0
809,303,-22,0
827,287,-40,0
797,264,-44,0
812,274,-43,0
856,305,-38,0
838,328,-7,0
979,392,49,0
1238,506,57,0
1012,512,156,0
896,429,250,0
1015,487,228,0
972,437,133,0
733,303,143,0
632,347,139,0
674,376,125,0
747,429,74,0
759,489,95,0
776,528,168,0
860,624,237,0
959,725,280,0
993,669,265,0
1116,526,168,0
1253,676,253,0
1076,634,131,0
1081,568,58,0
1079,582,76,0
1000,486,42,0
897,375,10,0
836,333,-5,0
837,344,-25,0
867,331,-45,0
835,293,-53,0
802,271,-37,0
801,292,-20,0
752,320,2,0
722,360,84,0
1003,458,120,0
1090,515,113,0
911,460,218,0
1030,485,293,0
1164,587,213,0
964,442,124,0
758,366,80,0
750,401,69,0
799,458,69,0
799,478,41,0
725,495,80,0
748,585,157,0
827,700,197,0
915,751,203,0
989,656,167,0
1295,756,190,0
1159,709,148,0
1052,515,65,0
1106,560,95,0
1092,528,53,0
1007,461,26,0
923,363,13,0
892,334,-11,0
898,314,-44,0
867,292,-61,0
793,261,-60,0
772,263,-50,0
765,280,-42,0
724,306,12,0
884,379,84,0
1075,525,124,0
953,499,192,0
1012,444,269,0
1201,602,285,0
1043,548,216,0
785,390,157,0
696,356,81,0
773,391,74,0
848,465,73,0
770,567,101,0
735,600,173,0
789,710,221,0
919,780,231,0
983,664,186,0
1310,715,177,0
1216,718,215,0
1069,511,72,0
1072,524,102,0
1073,537,64,0
991,468,21,0
906,386,8,0
864,324,-8,0
865,301,-36,0
846,275,-51,0
786,249,-45,0
770,270,-20,0
766,300,-9,0
745,339,47,0
857,406,137,0
1093,523,154,0
992,487,206,0
944,418,280,0
1142,573,288,0
1101,567,201,0
852,405,108,0
758,384,62,0
784,429,61,0
814,498,41,0
732,555,46,0
711,576,95,0
817,663,141,0
932,738,165,0
921,686,195,0
1060,621,157,0
1198,626,149,0
1083,577,98,0
1114,602,87,0
1033,513,48,0
892,390,25,0
821,338,5,0
843,326,-16,0
887,316,-36,0
870,294,-31,0
835,287,-13,0
818,293,-2,0
823,316,11,0
824,388,106,0
1052,488,163,0
1027,489,179,0
837,411,264,0
934,400,279,0
1091,532,219,0
934,478,182,0
749,401,146,0
712,407,86,0
785,447,91,0
822,493,56,0
753,516,111,0
777,616,199,0
868,747,244,0
970,786,265,0
925,602,215,0
1201,690,240,0
1176,746,269,0
1076,527,96,0
1094,526,116,0
1072,509,102,0
980,435,44,0
873,364,25,0
844,338,7,0
867,335,-12,0
896,308,-25,0
865,272,-17,0
834,267,11,0
810,311,50,0
732,363,117,0
768,395,187,0
954,451,131,0
935,402,96,0
946,419,189,0
1215,610,260,0
1206,663,172,0
880,479,98,0
736,395,56,0
765,412,57,0
826,408,89,0
779,468,73,0
763,587,146,0
863,708,204,0
988,783,259,0
995,628,258,0
1212,591,247,0
1176,641,287,0
1046,509,140,0
1100,554,108,0
1092,606,103,0
1034,492,54,0
917,357,5,0
862,286,-16,0
876,272,-39,0
893,265,-68,0
839,252,-69,0
825,264,-53,0
859,301,-37,0
813,346,29,0
842,396,136,0
1042,454,121,0
1024,471,142,0
1034,451,256,0
1120,381,196,0
1056,322,30,0
892,345,36,0
802,437,7,0
767,458,-69,0
835,498,-83,0
916,508,-50,0
825,531,7,0
869,729,65,0
981,1122,119,0
886,1118,13,0
1113,947,12,0
1146,718,47,0
1103,592,107,0
1273,680,71,0
1328,700,34,0
1310,538,98,0
1199,409,79,0
1095,351,-6,0
953,323,-26,0
780,322,-31,0
605,265,-77,0
517,214,-99,0
614,229,-73,0
809,319,34,0
954,427,137,0
1137,384,91,0
1059,394,114,0
1030,483,226,0
1194,606,241,0
1239,595,168,0
1049,508,146,0
908,401,76,0
914,444,43,0
897,545,37,0
851,659,88,0
822,759,125,0
877,845,162,0
860,946,227,0
913,895,229,0
1049,748,162,0
1260,725,109,0
1245,564,61,0
1349,536,68,0
1388,559,53,0
1320,484,-1,0
1183,387,-42,0
1089,323,-84,0
1039,293,-120,0
981,265,-151,0
868,244,-143,0
796,275,-98,0
802,328,-46,0
621,340,70,0
640,470,222,0
797,575,208,0
653,603,134,0
671,569,204,0
830,659,270,0
884,563,205,0
834,441,268,0
783,461,315,0
803,547,337,0
853,613,352,0
841,637,348,0
896,653,342,0
971,686,305,0
1037,682,230,0
910,607,213,0
985,587,183,0
951,697,179,0
894,686,136,0
1064,720,128,0
1028,645,102,0
899,496,67,0
813,436,58,0
783,346,61,0
830,273,12,0
860,241,18,0
883,205,36,0
874,224,93,0
971,313,277,0
967,402,335,0
913,322,316,0
1162,316,265,0
1094,412,381,0
864,372,431,0
896,401,386,0
969,463,348,0
752,145,128,0
650,263,72,0
596,343,87,0
652,538,131,0
686,563,44,0
649,610,40,0
785,562,183,0
985,517,277,0
1144,540,301,0
1121,485,235,0
1201,509,194,0
1056,613,264,0
983,561,217,0
1010,536,131,0
964,566,114,0
848,505,92,0
737,329,22,0
714,211,0,0
769,277,-1,0
826,334,-30,0
814,322,-32,0
851,313,-30,0
941,361,-25,0
968,432,46,0
1052,456,124,0
1214,495,95,0
1010,441,159,0
927,306,189,0
979,420,145,0
814,392,149,0
601,370,143,0
532,431,101,0
569,440,57,0
626,453,55,0
672,461,85,0
787,525,144,0
924,628,185,0
1093,740,212,0
1138,672,205,0
1382,688,238,0
1130,653,287,0
996,483,220,0
1025,550,215,0
961,630,182,0
847,538,64,0
808,355,17,0
826,452,49,0
980,746,84,0
990,624,104,0
801,810,201,0
653,834,274,0
484,846,303,0
381,996,429,0
276,589,452,0
346,174,546,0
226,355,782,0
215,389,792,0
277,377,878,0
248,195,745,0
181,153,694,0
89,71,709,0
50,24,732,0
55,88,833,0
46,90,921,0
40,195,1048,0
97,245,1118,0
206,308,1175,0
226,163,1087,0
57,277,1097,0
142,473,1295,0
109,331,1066,0
76,387,892,0
92,351,858,0
87,343,800,0
171,199,732,0
155,324,718,0
156,244,714,0
40,58,834,0
80,12,972,0
88,80,1046,0
204,59,1083,0
252,105,1173,0
310,-118,1155,0
417,-71,1144,0
425,180,1120,0
430,125,1053,0
406,134,968,0
256,57,865,0
135,-31,850,0
68,-184,862,0
109,-44,758,0
124,141,872,0
162,-76,986,0
93,-76,1052,0
-33,-127,1062,0
-41,-43,1189,0
-56,-111,1192,0
-43,-51,1188,0
50,153,1277,0
94,45,1168,0
101,181,1104,0
106,140,1022,0
136,63,905,0
90,-45,747,0
-17,-77,671,0
-93,-115,765,0
-62,-218,858,0
-53,1,952,0
49,-113,1043,0
79,-96,1066,0
85,-18,1126,0
79,-32,1225,0
191,-37,1236,0
183,-59,1085,0
217,-19,1092,0
254,-24,1023,0
194,-132,841,0
91,-123,771,0
2,-165,755,0
-13,-192,769,0
43,-226,836,0
98,-242,944,0
137,-265,1035,0
174,-195,1091,0
268,-251,1104,0
128,-348,1000,0
46,-77,1113,0
32,-88,1115,0
45,-111,830,0
110,-86,638,0
204,52,442,0
282,217,283,0
348,303,202,0
449,344,205,0
634,506,230,0
876,767,317,0
1111,705,337,0
1477,639,221,0
1628,552,208,0
1525,598,296,0
1817,730,223,0
1339,744,199,0
937,619,206,0
825,472,97,0
612,370,117,0
502,379,138,0
548,406,162,0
626,403,151,0
685,453,205,0
723,450,233,0
776,510,245,0
954,594,314,0
1076,562,293,0
1226,477,202,0
1156,615,283,0
1036,542,164,0
1048,535,69,0
1011,593,154,0
916,439,93,0
833,310,44,0
768,174,68,0
762,222,90,0
738,272,61,0
704,292,25,0
732,325,14,0
842,384,32,0
850,397,89,0
957,380,132,0
1279,510,116,0
1021,504,256,0
968,426,309,0
1108,534,256,0
942,418,187,0
677,277,180,0
560,328,167,0
562,364,171,0
624,409,148,0
633,448,150,0
701,512,226,0
833,592,263,0
1037,661,278,0
1050,567,264,0
1281,529,209,0
1199,599,276,0
1053,506,180,0
1094,553,145,0
1029,532,143,0
870,485,110,0
749,360,82,0
700,207,71,0
724,276,82,0
730,351,71,0
741,393,107,0
809,365,111,0
841,315,78,0
817,304,112,0
1074,373,96,0
1195,470,107,0
940,427,227,0
1005,433,243,0
1056,525,196,0
866,363,200,0
663,280,201,0
603,309,156,0
638,317,142,0
684,360,148,0
694,415,165,0
734,484,208,0
816,577,254,0
1018,712,332,0
1094,642,323,0
1308,561,269,0
1176,561,333,0
1032,479,170,0
1070,511,182,0
1010,526,182,0
871,480,136,0
746,410,119,0
710,354,81,0
762,338,30,0
809,318,11,0
820,303,25,0
873,315,24,0
934,343,35,0
892,343,97,0
1041,369,132,0
1199,476,154,0
915,423,286,0
891,380,345,0
1013,469,283,0
864,343,196,0
634,269,165,0
554,321,150,0
614,372,130,0
720,423,116,0
752,469,125,0
774,496,186,0
877,616,266,0
1073,752,301,0
1053,675,284,0
1282,585,244,0
1193,590,326,0
1095,456,211,0
1098,522,181,0
1007,549,154,0
882,486,127,0
782,414,107,0
760,350,49,0
799,312,-7,0
818,296,-11,0
807,279,6,0
837,260,1,0
841,227,-19,0
828,280,-2,0
899,397,78,0
1138,533,137,0
1030,520,245,0
946,398,298,0
1049,447,284,0
1006,387,212,0
760,308,196,0
638,300,191,0
678,330,167,0
739,386,127,0
730,449,151,0
729,505,219,0
850,588,289,0
1029,681,329,0
1080,660,351,0
1300,608,304,0
1285,631,383,0
1141,481,260,0
1072,399,152,0
1048,406,142,0
949,422,127,0
836,387,76,0
781,347,20,0
782,352,-13,0
810,338,-36,0
784,295,-33,0
794,278,-15,0
852,312,18,0
847,331,64,0
838,362,137,0
1074,407,231,0
1105,441,283,0
857,294,327,0
971,296,350,0
1079,444,312,0
928,398,222,0
726,371,147,0
664,444,103,0
707,506,33,0
712,528,30,0
726,643,78,0
849,741,155,0
995,839,171,0
1032,721,158,0
983,482,188,0
1242,550,238,0
1137,640,200,0
1105,621,96,0
1076,655,51,0
1015,571,50,0
911,428,40,0
842,329,0,0
829,306,-43,0
828,294,-43,0
813,273,-30,0
799,270,-3,0
815,288,0,0
805,290,22,0
788,333,106,0
1016,412,120,0
1128,377,102,0
971,375,191,0
1031,499,163,0
1057,740,92,0
845,568,102,0
680,380,100,0
692,388,57,0
768,440,22,0
852,493,-1,0
812,505,64,0
777,549,153,0
850,669,212,0
1016,755,224,0
1033,620,180,0
1332,663,200,0
1251,671,231,0
1070,468,109,0
1075,495,108,0
1013,484,85,0
850,435,53,0
772,374,32,0
765,342,-13,0
774,320,-39,0
758,286,-42,0
746,254,-45,0
789,285,-22,0
827,316,13,0
844,360,83,0
1027,424,149,0
1267,469,104,0
987,427,224,0
946,376,328,0
1045,477,230,0
875,405,122,0
687,348,133,0
675,403,114,0
740,466,158,0
773,436,149,0
720,460,188,0
754,518,280,0
918,698,326,0
1097,783,319,0
1064,618,273,0
1241,540,268,0
1181,567,282,0
1122,516,188,0
1144,538,120,0
1077,557,101,0
1020,469,65,0
904,340,50,0
832,309,12,0
824,297,-26,0
803,277,-37,0
712,252,-33,0
666,245,-26,0
689,269,-6,0
706,316,44,0
785,401,168,0
1055,441,150,0
1189,496,189,0
1187,481,366,0
1358,587,353,0
1133,512,247,0
775,239,153,0
672,297,121,0
710,350,71,0
731,478,47,0
748,618,94,0
754,763,204,0
769,793,283,0
833,703,237,0
1016,583,205,0
1203,461,259,0
1158,459,347,0
1087,458,267,0
1084,470,186,0
1101,566,144,0
1021,567,154,0
878,432,114,0
761,288,31,0
730,246,-23,0
732,252,-23,0
698,246,-23,0
688,273,-27,0
748,316,-15,0
829,339,22,0
852,386,126,0
1093,464,151,0
1303,566,178,0
1200,632,379,0
1118,665,407,0
1055,522,259,0
846,193,129,0
725,249,179,0
739,322,159,0
744,479,113,0
669,565,138,0
600,605,197,0
715,629,228,0
884,645,213,0
999,589,219,0
1090,501,200,0
1200,543,233,0
1109,547,190,0
1059,501,113,0
1080,542,88,0
933,503,91,0
768,385,90,0
689,305,74,0
703,264,53,0
748,245,32,0
744,251,38,0
757,293,45,0
813,346,58,0
850,375,77,0
857,380,151,0
1113,453,157,0
1122,480,197,0
951,438,317,0
1037,504,321,0
1059,523,279,0
811,353,226,0
652,274,177,0
635,313,168,0
681,372,146,0
712,413,144,0
674,447,166,0
723,521,221,0
869,621,267,0
1031,667,291,0
1069,525,234,0
1262,538,256,0
1156,585,279,0
1146,516,118,0
985,439,127,0
821,371,107,0
758,341,78,0
782,333,38,0
817,322,14,0
769,285,8,0
728,249,0,0
769,279,-5,0
818,311,-10,0
808,342,52,0
1068,419,82,0
1138,489,108,0
973,465,248,0
1061,484,318,0
1124,520,255,0
887,327,190,0
685,233,175,0
641,281,169,0
697,357,148,0
709,454,150,0
682,508,221,0
771,549,270,0
916,639,320,0
1067,697,393,0
1205,598,333,0
1330,544,316,0
1149,499,274,0
947,409,159,0
939,467,152,0
989,528,137,0
887,454,90,0
816,319,33,0
825,280,-1,0
844,278,-30,0
835,264,-64,0
821,258,-69,0
844,301,-53,0
887,345,-39,0
858,378,73,0
1000,450,231,0
1171,522,207,0
960,571,291,0
838,254,374,0
1035,297,340,0
1082,253,299,0
855,210,270,0
722,338,177,0
710,481,92,0
790,574,84,0
757,656,162,0
728,536,243,0
861,571,273,0
1036,671,291,0
948,503,233,0
1057,440,190,0
1161,656,381,0
1051,539,240,0
1155,527,215,0
1244,594,327,0
1149,464,289,0
962,368,198,0
846,364,145,0
781,431,145,0
751,569,161,0
726,647,215,0
655,766,88,0
665,736,55,0
603,669,210,0
544,678,425,0
535,734,477,0
433,883,525,0
271,770,547,0
240,908,485,0
252,865,476,0
192,815,450,0
42,747,338,0
-92,611,222,0
-155,787,100,0
-232,861,10,0
-342,851,-25,0
-457,727,-15,0
-614,723,-142,0
-681,816,-288,0
-630,769,-261,0
-804,630,-390,0
-845,847,-691,0
-729,775,-526,0
-754,578,-389,0
-770,833,-408,0
-604,321,6,0
-722,492,-172,0
-934,534,-338,0
-859,595,-499,0
-599,167,-363,0
-619,354,-83,0
-758,62,8,0
-911,298,61,0
-1029,332,76,0
-1094,352,216,0
-1130,508,522,0
-1350,707,335,0
-1232,301,87,0
-940,56,-14,0
-814,244,-21,0
-712,69,101,0
-702,-55,57,0
-697,-24,44,0
-751,-5,191,0
-809,-139,265,0
-954,-275,245,0
-1240,-151,218,0
-1339,-134,293,0
-1224,-56,524,0
-1099,-197,333,0
-1162,-17,173,0
-1104,31,-54,0
-952,232,-16,0
-808,127,-26,0
-726,176,-33,0
-582,284,-49,0
-442,328,22,0
-425,248,61,0
-465,328,27,0
-539,480,5,0
-477,560,-89,0
-293,646,-274,0
-69,605,-344,0
181,705,-408,0
338,1203,-603,0
490,1176,-652,0
764,1261,-880,0
763,1158,-477,0
937,952,-211,0
970,852,-230,0
916,670,-262,0
860,700,-310,0
863,619,-320,0
838,648,-288,0
777,691,-200,0
825,736,-112,0
848,816,-84,0
886,831,-136,0
970,763,-189,0
1209,915,-143,0
1098,782,-91,0
1178,599,-104,0
1174,561,-65,0
1058,458,-47,0
953,345,-42,0
885,356,-33,0
873,345,-51,0
844,330,-64,0
784,312,-59,0
737,309,-35,0
721,323,-12,0
701,317,-12,0
690,364,109,0
1005,493,156,0
1079,502,110,0
923,420,161,0
1109,597,247,0
1202,751,216,0
914,559,86,0
721,427,85,0
703,366,76,0
783,348,44,0
771,416,83,0
731,528,129,0
749,637,191,0
853,781,236,0
982,790,251,0
1023,607,199,0
1258,664,237,0
1062,630,203,0
1099,519,0,0
1096,622,44,0
1035,518,41,0
896,403,35,0
818,351,15,0
851,332,-25,0
902,334,-51,0
869,311,-29,0
790,296,-16,0
765,305,-17,0
755,354,26,0
756,440,159,0
1033,527,204,0
1053,571,210,0
879,391,318,0
1053,500,374,0
1068,540,224,0
831,376,60,0
712,411,49,0
710,427,23,0
770,448,-7,0
775,511,0,0
730,612,65,0
781,714,139,0
842,812,155,0
928,799,154,0
1276,743,102,0
1272,703,149,0
1049,516,102,0
1097,511,77,0
1092,562,29,0
1005,538,19,0
920,463,33,0
879,372,-1,0
877,330,-52,0
863,310,-63,0
792,279,-57,0
769,276,-52,0
774,294,-30,0
732,311,29,0
785,390,136,0
1085,534,160,0
1006,501,161,0
950,442,235,0
1206,593,255,0
1183,630,170,0
866,393,76,0
711,428,88,0
723,372,19,0
793,437,11,0
778,477,66,0
753,532,119,0
769,622,185,0
843,765,218,0
967,820,225,0
1244,810,181,0
1261,818,265,0
1013,542,121,0
1123,439,81,0
1155,474,88,0
1085,487,60,0
981,441,44,0
892,333,34,0
846,328,-18,0
831,322,-69,0
789,302,-74,0
745,278,-60,0
753,289,-50,0
747,311,0,0
810,373,91,0
1118,517,117,0
992,527,167,0
966,416,278,0
1255,573,317,0
1189,567,177,0
865,311,103,0
735,406,123,0
784,358,54,0
871,449,22,0
818,570,63,0
761,704,141,0
791,779,214,0
907,857,220,0
957,743,179,0
1207,699,178,0
1131,665,270,0
1107,495,155,0
1193,554,112,0
1089,553,95,0
954,478,85,0
872,429,38,0
826,372,-20,0
834,351,-48,0
845,344,-42,0
825,319,-24,0
877,322,4,0
923,323,58,0
850,310,146,0
918,348,247,0
1052,455,269,0
837,329,196,0
844,314,212,0
989,531,255,0
1041,587,167,0
934,535,128,0
867,532,93,0
878,496,40,0
892,515,51,0
861,538,107,0
823,604,197,0
841,714,264,0
944,822,237,0
996,762,170,0
1250,811,186,0
1161,746,201,0
1121,554,96,0
1184,571,81,0
1123,513,26,0
1069,439,14,0
1012,392,6,0
970,363,-5,0
954,318,-25,0
897,267,-63,0
796,240,-63,0
688,259,-31,0
628,293,-8,0
599,355,64,0
855,446,121,0
999,517,125,0
940,453,195,0
1178,463,305,0
1049,464,156,0
809,386,116,0
773,399,111,0
833,390,78,0
848,455,112,0
833,549,143,0
839,605,198,0
856,709,266,0
988,805,316,0
939,624,252,0
1087,562,210,0
1093,736,306,0
1035,607,81,0
1113,669,78,0
1163,609,90,0
1063,445,41,0
941,317,6,0
886,275,-1,0
892,295,-22,0
895,307,-47,0
873,302,-56,0
878,299,-37,0
859,310,-9,0
756,317,63,0
919,391,141,0
986,495,190,0
821,439,247,0
915,371,289,0
1074,503,289,0
1018,471,203,0
840,396,169,0
786,446,105,0
856,445,64,0
932,502,59,0
912,553,134,0
864,640,212,0
859,741,263,0
945,852,263,0
1125,793,151,0
1238,770,183,0
1032,579,167,0
1139,460,94,0
1177,511,53,0
1119,514,30,0
995,488,38,0
924,434,13,0
918,377,-40,0
923,339,-63,0
866,306,-39,0
778,266,-12,0
764,290,19,0
749,299,42,0
673,332,132,0
790,412,260,0
1010,438,173,0
968,388,129,0
1082,389,229,0
1295,642,290,0
1087,642,181,0
810,428,78,0
764,411,56,0
827,368,52,0
881,426,86,0
803,535,171,0
791,652,223,0
825,769,257,0
890,852,259,0
1033,744,189,0
1325,808,215,0
1126,637,167,0
1242,506,78,0
1240,532,82,0
1132,487,51,0
1008,435,39,0
927,387,17,0
915,344,-29,0
903,323,-51,0
826,296,-33,0
760,286,0,0
752,292,12,0
712,291,35,0
756,336,135,0
994,452,183,0
940,471,220,0
976,392,286,0
1187,486,293,0
1203,540,208,0
942,404,160,0
798,397,116,0
830,379,82,0
883,403,34,0
828,515,86,0
756,617,178,0
799,721,210,0
907,818,209,0
955,793,209,0
1163,708,145,0
1154,711,226,0
1093,588,125,0
1181,556,58,0
1167,555,38,0
1049,494,36,0
953,414,47,0
902,372,18,0
913,347,-28,0
914,334,-17,0
826,317,12,0
756,303,37,0
744,311,51,0
710,318,69,0
729,360,167,0
1020,450,155,0
1036,432,104,0
970,380,204,0
1181,488,205,0
1180,608,148,0
924,452,89,0
818,410,57,0
827,404,32,0
882,463,67,0
755,590,179,0
670,695,302,0
853,794,347,0
949,789,274,0
966,611,228,0
1100,525,163,0
1148,573,196,0
1061,509,96,0
1088,533,26,0
1125,597,-32,0
1079,562,-37,0
958,449,-31,0
879,352,-42,0
886,324,-46,0
912,318,-22,0
835,292,10,0
773,284,41,0
768,308,80,0
733,336,112,0
697,385,237,0
999,398,191,0
1040,472,179,0
990,396,215,0
1316,562,271,0
1261,698,209,0
831,390,59,0
707,385,70,0
742,361,12,0
828,388,13,0
812,461,53,0
737,565,132,0
747,673,192,0
877,840,199,0
951,851,193,0
1116,708,116,0
1173,678,177,0
1100,530,136,0
1230,506,59,0
1199,541,36,0
1066,514,35,0
951,428,40,0
881,360,14,0
879,332,-38,0
901,324,-48,0
851,310,-22,0
788,299,7,0
767,289,15,0
740,304,46,0
719,371,161,0
984,445,193,0
1015,459,160,0
905,386,216,0
1130,476,278,0
1222,625,214,0
1000,496,114,0
819,407,77,0
791,408,85,0
816,452,64,0
741,543,126,0
688,653,200,0
799,762,233,0
889,857,227,0
935,777,219,0
1119,666,155,0
1259,660,207,0
1138,584,141,0
1177,521,45,0
1115,538,-5,0
1027,489,4,0
927,424,20,0
865,369,-5,0
870,338,-39,0
865,332,-23,0
782,312,2,0
752,305,39,0
745,307,62,0
698,296,85,0
736,331,182,0
1059,443,147,0
1026,460,125,0
1091,449,208,0
1317,625,274,0
1152,633,171,0
800,325,80,0
712,334,80,0
753,341,49,0
824,381,32,0
797,488,81,0
769,569,160,0
808,675,239,0
943,787,276,0
1036,767,280,0
1047,564,210,0
1114,579,263,0
1018,592,212,0
1162,587,69,0
1198,622,31,0
1105,512,36,0
935,384,33,0
830,322,6,0
820,335,-27,0
844,348,-20,0
817,335,-8,0
822,323,-14,0
812,324,-2,0
769,329,32,0
792,337,100,0
1086,460,96,0
976,450,141,0
911,413,236,0
1106,548,244,0
1072,559,150,0
850,374,145,0
732,367,106,0
747,348,42,0
785,388,41,0
766,445,66,0
801,516,111,0
873,646,168,0
970,767,220,0
1036,835,257,0
1027,682,191,0
1242,710,243,0
1144,680,206,0
1151,554,89,0
1159,568,89,0
1098,507,62,0
975,426,47,0
881,290,16,0
852,313,-11,0
889,338,-55,0
899,342,-71,0
879,313,-66,0
848,309,-43,0
772,321,-3,0
750,344,77,0
1017,453,94,0
922,453,116,0
849,365,187,0
1095,453,224,0
1095,550,162,0
867,389,144,0
745,373,133,0
785,406,99,0
864,435,82,0
865,520,137,0
839,599,244,0
841,731,346,0
969,825,362,0
1034,759,278,0
1072,504,163,0
1184,597,242,0
1032,550,150,0
1055,543,79,0
1066,623,38,0
1032,548,13,0
944,443,6,0
852,348,-14,0
843,315,-36,0
874,308,-32,0
842,305,-13,0
787,277,4,0
783,290,18,0
749,321,56,0
695,401,188,0
895,389,154,0
1100,487,99,0
1000,455,179,0
1252,624,315,0
1319,764,269,0
934,463,150,0
698,233,85,0
698,283,86,0
745,366,73,0
737,521,130,0
693,578,161,0
792,611,189,0
940,676,204,0
996,678,166,0
884,551,111,0
1154,774,180,0
1094,777,137,0
1200,640,-6,0
1258,600,55,0
1195,489,30,0
1020,350,38,0
848,265,20,0
910,272,8,0
891,294,7,0
783,307,16,0
736,313,49,0
701,358,87,0
742,410,159,0
968,477,180,0
868,446,184,0
935,412,227,0
1230,560,225,0
1153,573,143,0
855,377,82,0
784,368,95,0
842,362,44,0
880,430,53,0
802,542,119,0
796,639,170,0
849,735,217,0
954,801,229,0
971,736,214,0
1178,666,157,0
1222,715,244,0
1029,545,160,0
1125,532,112,0
1142,530,86,0
1041,472,70,0
902,395,50,0
823,333,0,0
809,327,-32,0
817,321,-44,0
772,283,-49,0
778,268,-50,0
830,296,-35,0
819,328,0,0
798,369,94,0
1039,447,113,0
1041,491,125,0
921,392,177,0
1135,495,262,0
1120,617,232,0
872,448,207,0
702,305,142,0
706,353,83,0
786,406,160,0
788,486,157,0
818,527,164,0
858,653,246,0
933,787,278,0
992,763,274,0
1171,676,228,0
1236,708,313,0
1135,460,151,0
1165,479,131,0
1148,530,123,0
1032,461,69,0
894,366,32,0
823,321,-4,0
827,325,-37,0
824,312,-61,0
801,277,-83,0
803,280,-77,0
783,304,-50,0
711,338,27,0
935,393,79,0
1027,527,134,0
932,462,220,0
1177,461,320,0
1305,576,290,0
1038,360,222,0
709,294,191,0
674,365,142,0
729,475,115,0
779,561,179,0
795,549,192,0
866,592,234,0
960,628,277,0
1032,689,256,0
1015,602,171,0
1121,674,219,0
1080,678,169,0
1181,607,63,0
1225,616,45,0
1142,522,36,0
1013,395,42,0
920,348,28,0
898,330,-15,0
908,318,-48,0
865,295,-42,0
815,296,-5,0
815,312,17,0
769,313,24,0
686,357,132,0
871,435,213,0
917,455,211,0
891,377,229,0
1185,450,264,0
1308,616,254,0
1029,526,192,0
752,355,98,0
740,353,45,0
860,381,15,0
874,510,70,0
807,605,146,0
798,694,185,0
821,751,209,0
889,802,225,0
1142,811,153,0
1321,874,201,0
1209,543,63,0
1224,443,97,0
1147,449,66,0
977,473,47,0
928,440,31,0
904,392,23,0
914,371,-33,0
872,321,-73,0
774,247,-81,0
737,241,-75,0
754,293,-49,0
726,329,7,0
782,371,109,0
1027,484,135,0
1009,476,187,0
1089,471,296,0
1271,596,294,0
1053,554,209,0
758,321,155,0
700,287,102,0
747,339,104,0
790,440,86,0
745,593,141,0
797,703,178,0
912,798,203,0
998,833,226,0
1092,692,172,0
1298,696,192,0
1188,553,162,0
1125,454,98,0
1113,502,64,0
1037,548,47,0
910,480,44,0
830,388,16,0
805,335,-37,0
812,313,-67,0
786,282,-74,0
760,261,-73,0
798,287,-59,0
821,312,-37,0
780,327,54,0
1042,415,118,0
1153,502,118,0
1020,462,191,0
1157,529,303,0
1145,650,269,0
829,462,189,0
639,270,115,0
647,293,63,0
770,360,69,0
828,499,132,0
820,588,160,0
824,622,207,0
908,747,256,0
1026,766,246,0
1294,688,184,0
1199,622,260,0
1043,468,159,0
1143,474,123,0
1092,559,122,0
1016,536,78,0
906,447,43,0
826,344,9,0
827,312,-17,0
833,291,-44,0
785,268,-57,0
782,262,-48,0
844,302,-27,0
821,321,3,0
760,330,97,0
1003,446,136,0
1006,501,174,0
911,428,219,0
1067,454,277,0
1125,567,270,0
904,460,204,0
709,334,136,0
691,335,105,0
776,395,103,0
769,476,136,0
751,601,185,0
823,703,249,0
912,833,276,0
999,792,250,0
1354,765,172,0
1280,695,195,0
1139,467,134,0
1125,457,110,0
1104,494,61,0
1000,488,37,0
910,415,30,0
858,359,9,0
838,329,-40,0
812,298,-67,0
770,267,-70,0
757,274,-58,0
757,290,-37,0
762,316,13,0
831,386,112,0
1119,494,122,0
1013,455,157,0
1024,402,228,0
1204,591,278,0
1102,615,197,0
815,400,152,0
687,304,110,0
737,301,79,0
821,374,100,0
767,517,186,0
778,611,250,0
801,675,285,0
960,707,236,0
1019,671,245,0
939,510,197,0
1115,667,267,0
1039,683,169,0
1144,602,40,0
1187,566,59,0
1119,465,61,0
946,353,55,0
828,299,32,0
817,301,-3,0
837,307,-18,0
766,309,8,0
704,314,31,0
718,332,43,0
712,374,73,0
766,406,156,0
1122,470,104,0
1049,487,149,0
1063,450,244,0
1293,566,235,0
1060,517,70,0
742,275,73,0
650,316,78,0
688,337,-5,0
779,458,9,0
794,541,78,0
793,557,127,0
866,632,214,0
1016,749,259,0
1063,750,282,0
1075,550,231,0
1154,606,328,0
1088,551,236,0
1207,547,147,0
1178,610,152,0
1017,523,88,0
850,395,42,0
760,210,0,0
757,224,0,0
729,252,-62,0
717,272,-92,0
822,317,-88,0
885,330,-104,0
831,307,-82,0
959,390,14,0
1096,474,-1,0
1060,439,43,0
1053,492,227,0
1163,571,293,0
1060,479,215,0
740,299,207,0
595,204,207,0
585,244,137,0
622,440,149,0
686,605,203,0
861,706,308,0
992,693,353,0
1089,626,372,0
1149,516,317,0
1128,407,178,0
1106,592,264,0
1080,682,198,0
1144,592,13,0
1199,562,13,0
1072,422,28,0
884,327,1,0
817,280,-33,0
832,311,-58,0
831,337,-70,0
799,303,-70,0
795,302,-68,0
795,313,-54,0
724,311,11,0
762,328,118,0
1072,517,185,0
990,495,232,0
986,406,337,0
1258,473,336,0
1256,427,185,0
989,379,151,0
719,281,136,0
683,419,52,0
787,436,-8,0
741,483,45,0
867,641,180,0
1016,658,231,0
1024,523,209,0
1240,495,169,0
1312,591,302,0
1142,445,261,0
1207,414,176,0
1282,470,207,0
1066,537,254,0
809,395,170,0
577,235,40,0
464,241,-7,0
443,256,-31,0
498,299,-47,0
685,317,-36,0
985,376,-13,0
1088,338,15,0
1094,364,71,0
1313,452,39,0
1151,528,98,0
915,511,239,0
1044,540,229,0
1021,471,100,0
851,313,96,0
708,326,169,0
691,351,168,0
788,393,143,0
831,445,158,0
801,480,201,0
808,569,259,0
825,678,316,0
885,727,350,0
1248,725,253,0
1351,876,321,0
1190,549,60,0
1349,491,53,0
1309,377,100,0
1018,314,75,0
885,298,32,0
810,323,-8,0
801,372,-56,0
805,399,-95,0
769,323,-113,0
724,246,-121,0
691,222,-113,0
686,285,-51,0
960,412,-2,0
1110,503,24,0
1026,513,142,0
1089,536,266,0
1173,606,216,0
1033,494,168,0
836,349,158,0
801,315,142,0
853,369,149,0
824,459,145,0
776,566,205,0
821,699,243,0
902,788,299,0
972,777,299,0
971,606,234,0
1277,648,239,0
1260,665,232,0
1184,465,87,0
1223,481,92,0
1102,487,77,0
942,405,49,0
836,357,2,0
768,351,-46,0
768,334,-79,0
739,299,-96,0
723,259,-98,0
782,283,-79,0
820,304,-60,0
817,338,6,0
1035,417,57,0
1171,558,119,0
899,459,211,0
1026,484,277,0
1105,666,301,0
947,576,279,0
739,331,182,0
687,269,147,0
781,328,211,0
809,501,194,0
744,654,230,0
802,712,286,0
914,737,333,0
1075,653,325,0
1129,469,265,0
1266,506,273,0
1210,540,249,0
1059,503,152,0
986,523,99,0
948,576,73,0
829,463,31,0
715,338,-15,0
682,288,-30,0
723,300,-29,0
757,288,-35,0
765,273,-34,0
828,297,-23,0
880,325,-6,0
857,340,33,0
1059,397,34,0
1187,551,68,0
993,531,192,0
969,590,387,0
1030,595,389,0
933,326,253,0
747,215,244,0
632,266,267,0
675,379,260,0
700,528,218,0
649,616,239,0
690,639,276,0
837,706,272,0
998,759,268,0
998,669,226,0
1265,621,152,0
1160,599,193,0
1154,450,91,0
1178,505,59,0
1080,526,38,0
963,470,51,0
853,412,36,0
816,357,-3,0
852,324,-23,0
840,294,-14,0
760,263,4,0
719,265,27,0
678,297,48,0
640,350,127,0
857,432,178,0
1024,513,161,0
989,473,231,0
1148,554,317,0
1270,701,290,0
1073,510,199,0
800,326,138,0
742,310,95,0
765,375,13,0
785,473,0,0
703,532,60,0
731,569,112,0
787,616,173,0
970,730,248,0
1016,680,283,0
1088,532,224,0
1205,646,325,0
999,533,180,0
1008,514,78,0
1017,614,145,0
939,547,141,0
797,403,51,0
753,327,0,0
823,333,-2,0
851,304,-16,0
800,249,-26,0
829,266,-32,0
908,327,-26,0
878,356,13,0
965,359,89,0
1200,532,163,0
916,515,294,0
813,386,382,0
957,494,393,0
947,396,289,0
779,293,280,0
639,357,262,0
661,349,158,0
730,442,117,0
728,567,156,0
743,601,228,0
806,629,217,0
933,627,215,0
1007,592,219,0
1172,500,159,0
1256,601,265,0
1090,588,176,0
1021,574,128,0
948,609,121,0
854,539,98,0
812,398,81,0
829,386,102,0
794,319,76,0
803,235,-4,0
798,243,2,0
781,297,35,0
834,366,48,0
828,333,28,0
804,342,54,0
1106,444,43,0
1120,545,95,0
837,456,189,0
998,545,188,0
1114,668,170,0
911,423,126,0
720,295,132,0
698,315,138,0
743,365,115,0
740,454,130,0
674,488,175,0
697,510,232,0
820,611,276,0
1043,684,265,0
1090,602,246,0
1250,602,235,0
1176,653,280,0
1061,515,132,0
1064,495,97,0
1050,480,98,0
918,428,60,0
796,355,40,0
751,329,14,0
774,321,-18,0
769,303,-38,0
721,264,-40,0
747,274,-27,0
829,314,-19,0
839,351,21,0
908,371,73,0
1205,498,74,0
1038,525,157,0
921,458,241,0
1028,548,245,0
991,533,212,0
784,302,199,0
678,225,154,0
722,274,146,0
780,417,150,0
798,571,195,0
782,591,274,0
809,617,313,0
983,666,359,0
1082,579,322,0
1161,440,253,0
1222,576,407,0
1092,470,252,0
1096,457,192,0
1067,510,243,0
960,475,188,0
778,378,108,0
648,281,40,0
607,265,12,0
601,287,-9,0
622,305,-23,0
700,265,-39,0
848,299,-35,0
914,382,24,0
887,425,126,0
1198,458,102,0
1199,589,245,0
956,437,358,0
1062,401,361,0
1070,385,279,0
833,292,220,0
625,314,240,0
564,345,235,0
589,383,184,0
675,447,140,0
691,512,184,0
794,595,236,0
989,721,294,0
1116,783,313,0
1266,656,219,0
1303,649,257,0
1140,479,178,0
1060,440,164,0
1042,498,147,0
944,490,82,0
813,412,60,0
772,342,39,0
786,345,7,0
809,336,-23,0
782,295,-43,0
793,266,-48,0
851,295,-25,0
849,309,-2,0
840,326,53,0
1144,436,64,0
1127,498,124,0
948,423,225,0
1033,499,311,0
980,546,273,0
743,380,173,0
628,300,165,0
643,312,168,0
733,360,178,0
768,488,183,0
760,547,261,0
862,670,336,0
1028,792,382,0
1044,653,320,0
1329,585,243,0
1245,610,310,0
1125,465,131,0
1119,473,123,0
1075,501,108,0
960,460,65,0
869,390,28,0
825,342,-8,0
818,306,-43,0
790,270,-58,0
713,237,-60,0
681,241,-26,0
738,316,7,0
768,395,134,0
1073,511,173,0
1130,530,158,0
1027,459,261,0
1237,648,364,0
1214,689,255,0
876,415,131,0
711,274,98,0
722,290,121,0
785,382,132,0
740,490,153,0
711,550,185,0
793,610,219,0
892,712,247,0
985,704,263,0
1302,711,246,0
1362,748,281,0
1196,535,137,0
1133,370,85,0
1137,426,115,0
1067,401,66,0
938,324,54,0
847,287,15,0
806,288,-41,0
791,294,-63,0
734,285,-70,0
698,271,-65,0
712,283,-36,0
693,317,45,0
747,374,133,0
1022,517,133,0
1010,530,148,0
1168,498,233,0
1348,641,317,0
1095,589,206,0
753,307,112,0
701,340,103,0
754,386,75,0
839,461,117,0
827,538,131,0
808,519,179,0
808,595,223,0
912,749,237,0
939,682,230,0
1144,602,194,0
1222,729,345,0
1158,504,149,0
1225,574,160,0
1200,590,204,0
1030,416,130,0
872,297,29,0
783,99,0,0
734,189,34,0
735,336,-21,0
745,351,-63,0
808,333,-78,0
875,307,-73,0
831,308,-13,0
1006,372,15,0
1115,489,54,0
893,479,195,0
943,481,293,0
1027,576,320,0
909,407,252,0
745,258,225,0
665,314,203,0
747,342,197,0
842,430,202,0
791,538,221,0
799,568,271,0
892,688,315,0
1004,721,315,0
1070,592,240,0
1322,641,249,0
1140,622,242,0
1114,491,77,0
1169,553,121,0
1047,516,93,0
858,391,50,0
777,333,28,0
783,332,-13,0
813,337,-44,0
802,296,-51,0
787,279,-44,0
828,294,-34,0
861,328,-3,0
874,325,82,0
1121,430,95,0
1046,444,154,0
955,454,309,0
1037,508,344,0
999,510,242,0
795,357,169,0
676,325,157,0
682,350,134,0
771,382,95,0
800,443,100,0
768,523,159,0
793,612,232,0
904,757,273,0
989,775,276,0
1142,652,195,0
1261,683,261,0
1107,592,200,0
1106,490,115,0
1137,513,94,0
1072,481,59,0
932,406,44,0
862,361,24,0
864,356,-19,0
869,338,-34,0
800,291,-22,0
738,265,-5,0
756,290,2,0
764,326,20,0
758,386,124,0
987,454,162,0
1032,442,126,0
972,409,211,0
1133,526,287,0
1163,604,208,0
874,425,129,0
698,286,109,0
682,303,75,0
747,333,53,0
762,408,66,0
740,460,92,0
838,632,160,0
970,793,218,0
1046,795,279,0
1026,533,231,0
1250,622,286,0
1219,651,208,0
1095,559,86,0
1073,580,90,0
985,636,84,0
830,468,27,0
781,190,-31,0
805,248,-8,0
852,301,-64,0
866,282,-95,0
888,259,-105,0
906,281,-111,0
857,300,-93,0
910,409,-1,0
1204,484,2,0
918,490,164,0
892,438,245,0
1101,513,173,0
967,400,109,0
719,313,175,0
632,418,210,0
660,414,143,0
746,446,127,0
819,495,113,0
843,496,218,0
912,592,276,0
1000,755,309,0
1075,704,265,0
1301,660,206,0
1203,611,223,0
1071,460,122,0
1109,469,99,0
1101,532,59,0
1001,527,34,0
893,292,-15,0
816,277,0,0
799,303,-51,0
788,293,-81,0
733,250,-93,0
735,258,-93,0
777,307,-83,0
775,324,-49,0
814,348,44,0
1135,493,76,0
1114,513,111,0
966,425,177,0
1131,587,256,0
1137,687,253,0
833,453,218,0
673,317,171,0
693,317,143,0
765,378,82,0
762,500,112,0
674,619,229,0
754,641,279,0
950,705,227,0
1070,628,187,0
1155,514,156,0
1281,614,239,0
1210,593,175,0
1114,510,88,0
1115,527,61,0
1036,461,4,0
889,256,6,0
780,224,9,0
758,303,-26,0
771,322,-48,0
737,279,-55,0
682,276,-27,0
698,311,-2,0
761,346,6,0
805,372,78,0
1147,482,102,0
1135,535,156,0
997,466,243,0
1177,524,280,0
1153,573,200,0
855,364,156,0
663,322,152,0
653,332,129,0
715,368,69,0
730,433,63,0
670,517,133,0
712,591,199,0
805,680,231,0
970,720,237,0
1054,610,225,0
1294,567,189,0
1206,623,229,0
1051,529,129,0
1099,569,111,0
1108,576,97,0
990,481,56,0
864,204,-14,0
785,221,27,0
736,310,-10,0
728,355,-31,0
729,329,-38,0
802,324,-21,0
865,337,-8,0
874,321,0,0
947,381,46,0
1205,504,46,0
981,444,109,0
936,416,163,0
1102,545,196,0
1024,549,197,0
738,323,186,0
616,288,163,0
649,321,177,0
702,400,171,0
678,515,181,0
649,543,268,0
727,582,298,0
950,662,313,0
1114,677,337,0
967,521,287,0
1217,529,269,0
1283,674,330,0
1187,523,126,0
1118,534,111,0
993,549,126,0
810,399,66,0
707,311,-5,0
697,300,-29,0
726,306,-46,0
790,290,-76,0
826,285,-77,0
838,299,-39,0
862,300,2,0
857,328,74,0
1163,456,138,0
1098,569,258,0
897,492,422,0
1015,453,467,0
1056,430,392,0
867,258,302,0
656,321,268,0
584,376,214,0
666,434,130,0
766,514,80,0
745,557,96,0
794,595,135,0
878,647,163,0
953,699,153,0
1165,684,105,0
1291,638,129,0
1132,512,129,0
1030,525,145,0
985,621,103,0
941,655,88,0
858,441,65,0
822,307,58,0
813,249,27,0
802,217,22,0
770,238,32,0
731,267,29,0
750,318,35,0
816,359,33,0
840,384,96,0
1029,423,107,0
1255,515,95,0
1020,495,188,0
1103,554,236,0
1133,595,193,0
804,376,99,0
620,217,87,0
612,277,67,0
689,351,76,0
733,449,96,0
698,536,149,0
743,599,226,0
851,714,281,0
1012,766,205,0
1375,679,267,0
1112,484,170,0
1113,444,138,0
1101,499,133,0
955,447,77,0
827,348,51,0
787,314,26,0
783,317,-18,0
785,310,-44,0
738,286,-62,0
713,258,-80,0
764,276,-87,0
803,314,-66,0
841,445,23,0
1218,557,30,0
1172,432,199,0
1090,292,382,0
1238,453,373,0
1035,483,272,0
706,185,197,0
587,365,274,0
587,428,260,0
648,432,128,0
732,506,61,0
785,527,100,0
896,520,132,0
992,635,83,0
963,635,63,0
1214,756,88,0
1234,811,122,0
1091,629,86,0
1100,597,126,0
1102,614,101,0
1023,560,47,0
949,260,-31,0
879,181,55,0
832,231,30,0
780,287,-15,0
704,264,-39,0
686,258,-37,0
737,288,-31,0
747,312,-12,0
744,365,72,0
1001,462,86,0
1247,610,133,0
1031,567,251,0
1115,628,296,0
1116,667,222,0
823,427,82,0
664,266,68,0
695,290,106,0
793,387,99,0
820,495,130,0
748,524,169,0
787,492,206,0
943,561,280,0
1030,578,286,0
983,532,267,0
1137,619,241,0
1020,718,238,0
1022,644,87,0
1176,655,27,0
1188,551,33,0
1011,279,11,0
867,177,28,0
877,196,-1,0
910,284,-46,0
882,371,-59,0
780,356,-32,0
698,338,-11,0
696,339,11,0
648,357,97,0
826,413,207,0
1104,504,241,0
1037,491,320,0
1063,482,412,0
1259,577,338,0
1154,475,137,0
850,343,50,0
769,384,81,0
816,417,25,0
884,454,-17,0
848,450,-2,0
778,532,94,0
748,640,200,0
766,737,255,0
715,679,238,0
752,507,168,0
1171,748,213,0
1223,824,142,0
1136,596,-7,0
1289,583,119,0
1370,450,125,0
1365,442,125,0
1355,383,107,0
1296,373,88,0
1137,366,63,0
861,298,84,0
581,210,117,0
383,197,210,0
237,214,321,0
153,294,417,0
68,121,262,0
693,349,323,0
1449,573,333,0
1993,1185,365,0
1388,983,595,0
947,135,126,0
758,339,-94,0
659,369,-81,0
622,407,-78,0
637,636,-85,0
736,642,-12,0
878,667,129,0
905,769,381,0
896,1048,686,0
805,1033,581,0
835,935,466,0
1354,952,272,0
1276,950,256,0
1569,659,6,0
1655,464,-87,0
1344,289,-48,0
1012,159,0,0
820,175,2,0
755,245,-26,0
777,317,-45,0
793,342,-60,0
836,337,-104,0
846,328,-77,0
791,346,10,0
896,402,132,0
1044,423,235,0
972,519,504,0
1016,379,662,0
1124,229,598,0
1068,155,445,0
901,156,336,0
791,320,326,0
803,445,302,0
853,597,209,0
757,698,277,0
757,778,371,0
883,854,402,0
959,787,376,0
935,565,278,0
1256,569,236,0
1318,650,250,0
1309,553,104,0
1358,570,90,0
1263,578,73,0
1126,466,45,0
1117,401,25,0
1101,401,-34,0
1057,353,-48,0
905,321,5,0
747,297,60,0
642,237,164,0
613,147,207,0
599,179,275,0
748,231,233,0
1011,342,193,0
1035,353,170,0
1279,430,164,0
1539,619,169,0
1411,782,132,0
1037,646,72,0
885,526,50,0
872,440,28,0
857,408,127,0
737,493,212,0
704,704,289,0
738,947,366,0
828,1001,329,0
943,848,295,0
1367,755,237,0
1361,633,248,0
1347,427,128,0
1510,451,120,0
1445,448,38,0
1225,377,-1,0
1119,341,6,0
1063,381,-46,0
1014,375,-107,0
858,320,-111,0
696,278,-77,0
605,277,19,0
496,231,110,0
475,250,190,0
703,352,257,0
913,344,208,0
977,327,234,0
1275,424,316,0
1566,599,278,0
1460,628,184,0
1059,413,57,0
969,444,112,0
985,474,42,0
974,545,48,0
777,562,181,0
685,666,306,0
719,771,356,0
863,905,314,0
923,935,298,0
1240,889,242,0
1292,751,274,0
1237,491,157,0
1331,414,81,0
1357,451,29,0
