AccX [mg],AccY,AccZ,Ground Truth
24,818,592,0
-142,922,287,0
-310,1197,688,0
-123,838,813,0
104,877,568,0
231,1137,359,0
97,850,541,0
-66,696,558,0
-103,738,336,0
-159,860,417,0
-119,863,410,0
-53,1041,541,0
-45,1015,574,0
-112,929,513,0
-170,875,544,0
-156,874,507,0
-94,856,496,0
-39,898,514,0
-45,932,510,0
-110,909,513,0
-188,870,484,0
-265,854,435,0
-271,837,419,0
-208,785,400,0
-125,714,374,0
36,639,320,0
129,806,404,0
256,846,568,0
473,598,503,0
684,387,443,0
765,371,459,0
842,404,363,0
884,463,257,0
910,537,245,0
934,635,248,0
915,681,241,0
889,663,200,0
858,652,219,0
869,623,237,0
841,632,291,0
918,549,217,0
1029,768,52,0
1086,979,-104,0
801,810,-189,0
594,994,-353,0
790,817,-494,0
928,653,-817,0
873,913,-850,0
1012,1124,-1026,0
1318,1210,-1053,0
1410,1463,-547,0
1204,927,-87,0
824,398,145,0
418,-55,221,0
230,-116,269,0
89,-209,345,0
32,-157,480,0
-3,-91,545,0
111,-117,732,0
255,0,934,0
263,85,1237,0
536,43,1283,0
596,-30,1074,0
566,-13,749,0
554,-4,495,0
630,41,252,0
664,237,-21,0
690,592,47,0
757,659,-11,0
878,744,-55,0
990,819,69,0
1171,971,115,0
1254,1131,177,0
1295,973,79,0
1101,763,67,0
1037,494,295,0
1359,668,511,0
923,852,139,0
567,910,73,0
685,728,136,0
817,662,117,0
875,627,118,0
907,548,168,0
967,527,155,0
1048,576,135,0
1083,617,92,0
1002,682,132,0
879,647,163,0
731,646,194,0
632,673,234,0
546,619,195,0
483,584,227,0
429,571,269,0
505,572,240,0
707,666,248,0
654,636,305,0
602,652,437,0
834,650,398,0
963,527,254,0
907,470,243,0
816,505,249,0
709,533,189,0
709,583,181,0
723,598,147,0
710,574,143,0
702,565,160,0
673,567,163,0
672,621,221,0
740,632,230,0
865,633,238,0
822,644,252,0
827,706,297,0
1055,834,354,0
995,719,233,0
702,547,220,0
753,591,269,0
943,632,179,0
987,548,123,0
880,482,85,0
821,526,83,0
828,546,68,0
823,564,50,0
747,609,75,0
658,645,89,0
581,725,119,0
504,753,159,0
433,760,186,0
402,774,206,0
407,781,225,0
424,782,298,0
646,822,287,0
777,772,260,0
481,695,356,0
644,788,368,0
779,653,252,0
723,545,224,0
670,609,225,0
592,605,190,0
573,583,148,0
603,626,172,0
615,625,159,0
627,653,167,0
615,670,186,0
562,675,187,0
561,730,245,0
666,755,253,0
773,748,230,0
826,780,239,0
999,933,275,0
861,836,194,0
666,781,190,0
663,772,126,0
732,856,80,0
815,938,-16,0
854,1031,-79,0
798,1150,-71,0
742,1150,-24,0
655,1117,10,0
462,1236,-9,0
306,1190,94,0
121,1187,129,0
-81,1066,213,0
-265,839,157,0
-431,638,107,0
-549,468,79,0
-666,340,55,0
-722,293,79,0
-790,259,13,0
-900,428,133,0
-788,428,125,0
-614,389,91,0
-574,418,199,0
-482,313,247,0
-488,-4,353,0
-723,204,292,0
-870,153,316,0
-950,148,280,0
-947,147,262,0
-921,196,211,0
-918,269,105,0
-959,296,-58,0
-1032,343,-87,0
-1028,255,-128,0
-1132,298,-67,0
-1312,362,42,0
-1230,185,24,0
-930,-20,-36,0
-829,-11,-124,0
-967,88,-117,0
-920,-77,-101,0
-946,68,-70,0
-948,191,-15,0
-908,193,2,0
-907,149,-85,0
-943,126,-49,0
-970,76,-101,0
-957,136,-9,0
-987,148,-17,0
-1088,103,-33,0
-1163,120,-36,0
-1162,57,-44,0
-1159,198,21,0
-1220,264,-46,0
-1192,160,-4,0
-1088,392,53,0
-823,439,-2,0
-697,377,-54,0
-744,235,-22,0
-843,317,-13,0
-829,236,72,0
-831,309,111,0
-852,318,213,0
-812,96,201,0
-883,388,119,0
-867,261,186,0
-875,199,222,0
-949,453,151,0
-929,223,135,0
-988,174,33,0
-1122,240,24,0
-1228,383,-128,0
-1347,308,-373,0
-1139,230,-436,0
-1009,125,-382,0
-933,4,-374,0
-864,87,-106,0
-848,-10,-214,0
-858,126,-122,0
-866,163,-127,0
-858,165,-107,0
-866,157,-157,0
-846,22,-153,0
-917,208,-197,0
-973,59,-142,0
-1004,165,-97,0
-1124,85,-179,0
-1122,9,-90,0
-1231,174,-227,0
-1170,236,-80,0
-1242,330,-88,0
-1272,209,-210,0
-1001,284,-186,0
-789,444,-337,0
-621,285,-267,0
-803,358,-236,0
-840,374,-139,0
-781,298,-3,0
-851,439,-20,0
-824,399,-7,0
-729,194,109,0
-793,400,86,0
-807,319,108,0
-892,309,151,0
-945,412,5,0
-1063,362,-48,0
-1388,488,-131,0
-1287,378,-224,0
-1028,-13,-173,0
-939,-66,-181,0
-925,-90,-309,0
-855,-47,-261,0
-797,123,-260,0
-842,263,-151,0
-862,219,-174,0
-873,193,-117,0
-827,127,-214,0
-822,126,-130,0
-892,148,-226,0
-1129,137,-339,0
-1121,89,-306,0
-1264,65,-368,0
-1182,207,-281,0
-1168,203,-405,0
-1109,225,-454,0
-864,348,-442,0
-701,371,-496,0
-663,379,-552,0
-695,242,-440,0
-655,346,-289,0
-544,352,-167,0
-389,291,-89,0
-329,367,-99,0
-337,411,-61,0
-268,341,-39,0
-289,440,-256,0
-383,380,-457,0
-493,820,-832,0
-465,1254,-990,0
-434,1121,-997,0
-399,1260,-863,0
-236,1297,-629,0
-212,1106,-485,0
-188,867,-454,0
-137,1128,-419,0
-51,1258,-485,0
32,957,-447,0
2,901,-349,0
-38,860,-291,0
-11,787,-337,0
-61,904,-403,0
-114,920,-440,0
-106,923,-401,0
-104,918,-434,0
-90,975,-428,0
-94,1010,-476,0
-139,1010,-489,0
-167,1067,-496,0
-234,1068,-585,0
-240,930,-518,0
-202,786,-562,0
-130,744,-555,0
-97,616,-531,0
-173,617,-390,0
-207,581,-328,0
-299,524,-321,0
-369,656,-195,0
-409,670,-238,0
-419,761,-154,0
-451,791,-162,0
-465,766,-197,0
-506,894,-179,0
-487,862,-262,0
-460,881,-309,0
-529,906,-336,0
-624,897,-387,0
-587,965,-432,0
-456,959,-388,0
-506,777,-387,0
-499,745,-428,0
-368,749,-383,0
-293,778,-328,0
-348,745,-214,0
-377,600,-185,0
-422,686,-113,0
-475,644,-61,0
-501,695,-85,0
-544,897,107,0
-548,904,141,0
-563,923,171,0
-568,919,137,0
-573,1019,89,0
-561,1134,34,0
-537,1298,5,0
-373,1161,2,0
-331,1014,52,0
-217,1036,92,0
-68,870,-14,0
-116,788,-12,0
-167,792,71,0
-188,697,15,0
-271,727,65,0
-318,747,68,0
-326,701,44,0
-382,740,37,0
-396,777,59,0
-373,906,116,0
-313,1068,188,0
-241,1034,94,0
-312,992,-17,0
-461,1040,-37,0
-563,1236,-147,0
-451,1349,-135,0
-367,1125,-131,0
-520,1142,-147,0
-484,1002,-180,0
-531,1086,-79,0
-568,937,79,0
-572,804,56,0
-548,677,119,0
-568,516,52,0
-643,502,20,0
-790,466,-63,0
-836,526,-44,0
-985,445,-206,0
-925,397,-184,0
-838,224,-181,0
-841,260,-126,0
-825,273,-63,0
-787,316,55,0
-939,594,-180,0
-826,389,-340,0
-698,477,-288,0
-824,322,-271,0
-826,314,-204,0
-802,360,-91,0
-781,317,-67,0
-740,327,-96,0
-747,438,-124,0
-726,532,-93,0
-703,481,-179,0
-641,454,-178,0
-534,536,-84,0
-567,381,-229,0
-534,453,-226,0
-868,296,-409,0
-975,97,-687,0
-1066,509,-779,0
-1024,537,-822,0
-877,566,-737,0
-651,860,-587,0
-451,1011,-430,0
-334,1035,-127,0
-306,1076,109,0
-98,644,38,0
-637,1118,649,0
-420,382,317,0
-505,807,784,0
-452,581,484,0
-430,563,474,0
-413,636,680,0
-304,772,705,0
-361,895,833,0
-428,766,820,0
-471,850,725,0
-378,872,806,0
-351,915,767,0
-195,770,689,0
-50,555,566,0
-31,581,563,0
16,511,525,0
-64,679,445,0
-107,758,401,0
-120,587,442,0
-133,626,609,0
-107,672,678,0
-134,711,581,0
-187,797,452,0
-253,1094,437,0
-214,1006,231,0
-158,1020,-52,0
-160,1075,-215,0
-162,956,-352,0
-210,1145,-694,0
-139,972,-799,0
-266,728,-742,0
-276,438,-805,0
-188,116,-870,0
-160,375,-899,0
-41,212,-942,0
-78,245,-872,0
-112,201,-739,0
-60,135,-832,0
-162,109,-900,0
-303,355,-918,0
-292,319,-821,0
-283,540,-920,0
-354,303,-719,0
-507,447,-746,0
-447,373,-1011,0
-190,472,-1111,0
-528,326,-1117,0
-153,829,-723,0
-118,658,-1172,0
-52,740,-944,0
28,495,-699,0
1,566,-705,0
-5,433,-592,0
-47,549,-557,0
-157,543,-629,0
-189,581,-534,0
-218,691,-458,0
-225,728,-498,0
-238,776,-438,0
-273,802,-470,0
-296,829,-473,0
-261,934,-489,0
-205,941,-479,0
-292,1012,-502,0
-325,1100,-477,0
-265,1095,-519,0
-247,1051,-390,0
-319,1042,-184,0
-451,756,-237,0
-349,796,-61,0
-330,889,114,0
-238,684,106,0
-308,715,383,0
-272,316,296,0
-248,693,635,0
-277,862,737,0
-331,697,625,0
-165,853,617,0
-242,642,739,0
-319,917,707,0
-263,838,650,0
-194,996,808,0
-186,1114,985,0
-49,725,740,0
-9,369,547,0
-33,352,511,0
-20,484,589,0
-96,866,661,0
-69,901,638,0
-101,707,626,0
-136,560,696,0
-160,522,770,0
-121,509,660,0
-123,595,704,0
-136,623,694,0
-170,588,710,0
-149,657,646,0
-141,671,625,0
-201,766,667,0
-193,716,578,0
-278,691,529,0
-420,692,453,0
-458,768,263,0
-490,1244,290,0
-303,1259,102,0
-208,924,-78,0
-291,1122,-29,0
-124,1024,-345,0
-1,1139,-286,0
88,977,-115,0
57,1004,-165,0
11,881,-144,0
1,841,-205,0
-63,900,-289,0
-104,920,-362,0
-103,858,-494,0
-173,828,-552,0
-252,817,-620,0
-310,689,-707,0
-261,751,-778,0
-170,801,-727,0
-59,1070,-674,0
-28,899,-582,0
-142,638,-561,0
-118,569,-545,0
-88,442,-651,0
-150,581,-630,0
-217,701,-629,0
-257,709,-624,0
-284,778,-519,0
-333,928,-424,0
-397,886,-426,0
-465,939,-499,0
-611,966,-583,0
-615,1061,-408,0
-619,765,-772,0
-701,677,-917,0
-856,517,-958,0
-971,349,-988,0
-739,243,-624,0
-707,-31,-486,0
-638,2,-268,0
-583,47,-175,0
-559,139,65,0
-625,294,204,0
-645,131,305,0
-916,48,145,0
-1105,-32,55,0
-1119,-25,104,0
-1054,-18,123,0
-1041,34,109,0
-1039,-28,-39,0
-1085,61,-45,0
-910,140,32,0
-1069,-19,-134,0
-1167,62,-257,0
-948,222,-138,0
-997,221,-148,0
-892,160,-365,0
-751,77,-515,0
-828,88,-436,0
-945,165,-355,0
-1138,234,-293,0
-999,202,-208,0
-849,144,-261,0
-778,178,-310,0
-864,188,-453,0
-970,193,-469,0
-828,328,-131,0
-790,289,-181,0
-734,30,-452,0
-868,273,-317,0
-1038,112,-401,0
-1319,344,-170,0
-1263,182,32,0
-979,156,-137,0
-924,208,-392,0
-909,349,-254,0
-894,365,-186,0
-742,219,-118,0
-652,37,-51,0
-489,113,40,0
-378,75,183,0
-432,155,-61,0
-214,161,-201,0
-106,446,-401,0
88,696,-478,0
289,1007,-431,0
448,1494,-350,0
784,1377,-327,0
1002,1533,-140,0
1263,1121,-156,0
1367,1078,-44,0
1274,1082,30,0
1088,915,-47,0
830,850,-3,0
693,773,8,0
574,710,-50,0
501,762,-45,0
570,683,-33,0
671,657,-69,0
661,615,-59,0
929,716,33,0
1410,773,-58,0
1422,559,-130,0
1455,717,18,0
1236,640,-53,0
923,462,-61,0
838,440,-17,0
814,361,-74,0
747,277,-122,0
638,273,-118,0
563,285,-104,0
650,368,-109,0
685,337,-158,0
693,399,-123,0
774,536,-45,0
963,584,-52,0
905,784,121,0
975,1043,425,0
1454,1075,363,0
1172,563,196,0
881,455,392,0
702,584,334,0
548,582,179,0
481,478,117,0
465,502,104,0
485,481,51,0
561,398,96,0
717,425,103,0
883,381,21,0
852,426,6,0
998,523,54,0
1081,645,52,0
1184,709,5,0
1342,838,15,0
1300,879,32,0
899,657,33,0
630,588,126,0
619,584,94,0
629,516,46,0
609,467,51,0
600,379,21,0
660,421,19,0
759,433,-12,0
676,387,-36,0
629,462,143,0
767,489,98,0
990,329,40,0
1079,468,5,0
1472,863,-80,0
1332,953,-299,0
1070,863,-252,0
721,756,-163,0
578,567,-336,0
456,832,-406,0
441,968,-453,0
380,681,-445,0
451,97,-46,0
655,-336,20,0
570,584,-431,0
426,955,-306,0
1166,1186,-144,0
1390,858,-274,0
1560,339,-158,0
1726,500,51,0
1402,536,-57,0
1010,452,-17,0
782,498,17,0
772,438,-25,0
740,372,-35,0
625,323,-7,0
592,310,18,0
664,391,30,0
775,459,30,0
764,460,99,0
727,498,240,0
913,606,318,0
1077,1112,313,0
715,937,188,0
1043,111,504,0
1305,-214,414,0
1149,204,163,0
858,456,-104,0
682,746,-263,0
500,1035,-205,0
467,490,-174,0
606,308,-13,0
594,687,-212,0
638,815,-243,0
692,699,-137,0
698,558,-148,0
1107,773,-47,0
1380,834,-118,0
1154,701,-157,0
1228,732,-64,0
1352,770,-65,0
1133,587,-97,0
885,411,-35,0
849,416,-1,0
930,416,-17,0
910,372,-20,0
772,322,-12,0
653,305,2,0
670,315,-19,0
665,274,-55,0
510,293,12,0
679,522,180,0
1048,706,281,0
1071,747,392,0
1070,521,479,0
1368,529,496,0
1317,367,353,0
1060,409,186,0
889,554,106,0
803,577,-37,0
788,543,-80,0
826,533,-166,0
575,650,-100,0
379,589,-4,0
422,742,86,0
610,821,30,0
675,662,-106,0
1014,788,24,0
1261,836,-17,0
884,694,128,0
1137,823,151,0
1397,942,-63,0
1080,651,-105,0
881,344,18,0
876,453,36,0
1162,546,35,0
1095,278,-92,0
799,323,-29,0
661,419,82,0
718,404,3,0
806,340,-25,0
958,502,173,0
1288,512,235,0
982,378,368,0
663,553,687,0
1088,515,680,0
1260,192,470,0
1123,228,275,0
1040,558,230,0
981,713,158,0
934,768,93,0
839,753,43,0
698,604,-45,0
605,584,37,0
595,628,75,0
710,747,42,0
744,637,23,0
1100,757,109,0
1045,785,58,0
959,721,147,0
1196,763,164,0
1388,823,159,0
1378,619,154,0
1226,376,173,0
1270,393,155,0
1196,460,106,0
1048,456,116,0
840,356,79,0
646,308,84,0
580,320,123,0
537,287,117,0
510,305,156,0
685,465,244,0
790,567,380,0
840,550,482,0
1144,619,515,0
1403,510,415,0
1292,526,341,0
1109,606,322,0
957,645,229,0
906,649,91,0
854,682,39,0
711,651,5,0
589,653,31,0
510,687,66,0
527,789,105,0
623,817,102,0
720,736,150,0
1211,910,188,0
965,666,57,0
1079,726,145,0
1376,821,106,0
1467,798,126,0
1401,561,196,0
1280,376,182,0
1228,435,203,0
1128,524,205,0
922,420,168,0
654,266,144,0
480,245,122,0
405,257,102,0
374,205,49,0
374,226,0,0
616,409,36,0
1024,713,288,0
1153,922,687,0
1548,778,749,0
1600,402,555,0
1304,339,410,0
1054,528,240,0
858,596,42,0
766,616,-15,0
704,643,-54,0
587,587,-101,0
496,516,-121,0
531,644,-48,0
587,737,-66,0
555,614,-184,0
1291,944,59,0
1244,686,-74,0
1268,768,143,0
1592,829,144,0
1527,928,55,0
1417,601,86,0
1235,480,131,0
1136,464,128,0
965,397,110,0
790,366,100,0
636,330,112,0
579,303,104,0
629,312,90,0
632,365,122,0
609,413,220,0
712,604,409,0
903,730,512,0
888,536,616,0
1045,332,536,0
1278,401,443,0
1333,616,266,0
1137,763,198,0
938,766,158,0
789,729,82,0
710,633,1,0
604,645,-13,0
487,642,-32,0
417,722,65,0
698,825,76,0
1100,817,129,0
1361,776,122,0
1068,618,113,0
1157,692,207,0
1292,779,227,0
1337,755,188,0
1254,561,178,0
1125,475,168,0
998,427,131,0
799,419,79,0
613,424,70,0
516,440,60,0
485,448,42,0
488,450,35,0
549,501,52,0
557,573,117,0
556,615,199,0
712,684,287,0
987,832,370,0
955,809,555,0
893,757,617,0
906,644,469,0
966,533,307,0
952,601,265,0
826,619,207,0
710,648,183,0
709,613,135,0
725,557,94,0
671,550,113,0
617,574,159,0
602,603,228,0
602,597,252,0
632,604,307,0
691,537,276,0
726,474,252,0
698,459,256,0
698,486,231,0
835,551,199,0
966,595,166,0
956,541,106,0
1074,564,103,0
1131,616,152,0
1113,590,151,0
1071,507,152,0
1012,452,157,0
978,370,128,0
968,355,105,0
895,393,92,0
828,400,81,0
811,423,33,0
785,441,-12,0
711,513,-6,0
636,538,3,0
595,428,-10,0
619,470,-58,0
711,558,-163,0
907,817,-204,0
958,828,-221,0
818,696,-133,0
817,560,-95,0
862,520,-96,0
852,581,-93,0
814,640,-68,0
818,639,-40,0
828,602,-15,0
843,533,-3,0
871,473,5,0
922,442,14,0
942,438,11,0
934,442,29,0
915,441,44,0
892,438,77,0
853,441,116,0
831,446,148,0
766,437,193,0
757,453,247,0
827,517,315,0
794,490,331,0
748,457,297,0
748,468,260,0
720,520,274,0
719,529,284,0
729,532,294,0
712,567,270,0
694,453,264,0
699,419,200,0
699,433,160,0
695,458,167,0
657,479,185,0
737,511,205,0
1075,658,247,0
1143,646,159,0
853,570,146,0
725,619,293,0
758,620,208,0
893,649,164,0
1038,595,154,0
1000,519,167,0
926,459,176,0
872,504,178,0
851,531,157,0
817,513,132,0
751,498,120,0
695,498,118,0
699,510,99,0
729,542,118,0
689,526,134,0
687,531,136,0
867,604,143,0
1066,667,159,0
879,683,252,0
766,702,348,0
772,570,260,0
822,467,173,0
816,537,215,0
781,580,230,0
696,547,219,0
659,501,192,0
677,517,191,0
663,545,225,0
597,557,252,0
596,589,300,0
537,559,306,0
596,540,295,0
764,580,267,0
681,558,235,0
834,626,246,0
1222,728,201,0
1182,607,106,0
876,511,84,0
851,577,152,0
990,657,106,0
1043,591,65,0
948,530,77,0
899,462,85,0
890,500,70,0
845,539,59,0
752,516,61,0
676,496,70,0
645,476,61,0
631,489,54,0
607,516,83,0
595,586,176,0
724,631,249,0
904,632,266,0
977,638,311,0
876,659,400,0
807,671,426,0
789,547,351,0
820,450,266,0
896,499,273,0
839,526,236,0
721,549,242,0
676,519,198,0
654,505,168,0
627,513,182,0
588,570,206,0
546,584,238,0
542,640,319,0
643,683,351,0
800,606,284,0
874,487,236,0
1072,694,338,0
1084,720,231,0
834,576,170,0
805,593,182,0
919,630,92,0
1074,654,66,0
1117,633,61,0
1078,532,41,0
1033,446,76,0
1041,480,92,0
998,541,74,0
842,524,64,0
649,466,102,0
490,442,161,0
390,414,184,0
350,371,196,0
358,422,266,0
537,525,387,0
970,605,383,0
1310,543,333,0
1195,588,372,0
1192,700,480,0
1202,627,308,0
1033,455,143,0
933,431,109,0
802,497,29,0
711,455,-35,0
630,506,-10,0
617,491,0,0
597,492,58,0
576,495,117,0
625,545,158,0
857,612,169,0
932,604,145,0
1111,704,259,0
1159,716,231,0
1015,608,100,0
1084,615,139,0
1289,722,181,0
1286,593,99,0
1094,393,15,0
933,401,2,0
911,432,-6,0
915,421,-19,0
873,404,-47,0
805,400,-41,0
758,396,-25,0
735,347,-38,0
697,336,-38,0
707,451,33,0
997,672,39,0
1030,788,111,0
797,836,445,0
860,703,368,0
1059,680,268,0
899,455,460,0
659,702,361,0
444,1075,532,0
264,1154,482,0
394,731,-197,0
242,874,-14,0
231,712,-59,0
256,705,26,0
261,699,209,0
494,703,159,0
815,783,297,0
1072,900,-49,0
815,1060,-305,0
770,743,-144,0
826,878,33,0
785,708,108,0
649,472,8,0
589,324,-68,0
545,709,-58,0
421,749,-36,0
347,777,28,0
379,705,56,0
574,648,0,0
729,489,-59,0
1063,649,-149,0
1215,972,62,0
1013,628,-74,0
953,181,85,0
927,153,152,0
973,241,-112,0
950,604,84,0
908,386,266,0
838,71,338,0
768,255,359,0
739,250,-14,0
654,306,-81,0
565,351,-113,0
608,586,97,0
1019,599,79,0
945,644,203,0
1013,417,350,0
1306,488,285,0
1160,359,98,0
1166,302,-202,0
1345,361,-663,0
1094,89,-702,0
704,33,-343,0
688,251,-127,0
632,371,-32,0
584,482,182,0
572,399,-122,0
684,249,-69,0
880,483,-190,0
1083,367,-118,0
1088,248,-46,0
1235,502,-199,0
1162,203,-277,0
903,-34,-63,0
1182,-84,150,0
1437,278,-123,0
1103,263,0,0
794,172,21,0
672,277,-43,0
632,194,-1,0
608,318,-81,0
478,408,-44,0
605,299,134,0
869,462,45,0
1089,644,-101,0
1547,659,74,0
1224,483,-302,0
903,105,-230,0
1019,27,-147,0
1150,271,-419,0
1066,301,-520,0
968,94,-306,0
805,99,-80,0
572,289,-125,0
577,302,-137,0
652,513,-168,0
784,480,-91,0
937,409,-53,0
1017,606,44,0
1327,597,-422,0
1111,179,-260,0
1038,114,-45,0
1202,29,-208,0
963,148,-142,0
773,388,17,0
650,543,65,0
700,476,63,0
758,418,95,0
759,610,113,0
570,663,333,0
577,517,475,0
780,773,410,0
907,1181,133,0
979,1396,-82,0
911,1267,-108,0
782,1311,313,0
885,1388,525,0
958,1389,382,0
861,1602,269,0
847,1616,149,0
739,1405,137,0
561,1136,112,0
285,788,88,0
12,526,45,0
-168,242,62,0
-283,38,230,0
-518,-13,289,0
-637,20,532,0
-658,-21,494,0
-746,153,718,0
-728,-41,589,0
-881,-28,688,0
-918,-87,703,0
-818,-116,494,0
-707,-90,408,0
-723,-121,393,0
-816,-83,356,0
-819,-10,364,0
-828,77,352,0
-834,-20,330,0
-773,-83,278,0
-901,-138,170,0
-1016,-65,193,0
-1250,-165,156,0
-1478,-314,25,0
-1467,-231,-32,0
-1247,71,-38,0
-1008,184,-111,0
-856,221,-81,0
-683,207,-14,0
-642,-32,-81,0
-690,-77,-2,0
-866,-115,-47,0
-1034,-221,-52,0
-1302,72,11,0
-1596,-7,41,0
-1330,-47,296,0
-1041,95,454,0
-1049,313,405,0
-1011,266,233,0
-1064,139,241,0
-911,-94,197,0
-751,-185,245,0
-656,-216,307,0
-692,-224,374,0
-687,-250,442,0
-693,-200,491,0
-905,-236,451,0
-923,-335,438,0
-865,-219,467,0
-997,-381,458,0
-1016,-449,319,0
-1034,-483,120,0
-1104,-418,59,0
-994,-317,95,0
-883,72,467,0
-832,-42,635,0
-880,91,427,0
-1108,73,385,0
-1238,-71,18,0
-1194,38,-110,0
-1091,-82,-93,0
-934,-204,-118,0
-855,-280,52,0
-848,-453,231,0
-902,-489,332,0
-1050,-186,412,0
-1038,-377,373,0
-976,-162,563,0
-955,-137,490,0
-969,-220,377,0
-849,-315,281,0
-719,-555,200,0
-668,-517,163,0
-637,-466,182,0
-652,-436,231,0
-753,-429,231,0
-830,-455,297,0
-904,-463,308,0
-1066,-379,333,0
-1064,-584,279,0
-999,-579,47,0
-1081,-452,-143,0
-1089,-472,9,0
-1070,-322,208,0
-921,-286,264,0
-781,-368,243,0
-744,-288,216,0
-777,-276,111,0
-795,-301,114,0
-908,-275,86,0
-969,-286,109,0
-992,-366,84,0
-1086,-387,89,0
-1197,-427,213,0
-1151,-555,427,0
-951,-596,387,0
-855,-490,358,0
-848,-293,357,0
-829,-294,362,0
-859,-351,285,0
-847,-437,244,0
-795,-482,212,0
-700,-452,228,0
-670,-430,234,0
-663,-458,299,0
-716,-498,290,0
-824,-466,338,0
-871,-441,381,0
-919,-514,357,0
-1034,-624,326,0
-1022,-639,146,0
-1091,-424,-82,0
-1144,-267,-39,0
-1078,-335,1,0
-985,-399,47,0
-918,-361,98,0
-814,-244,96,0
-759,-177,49,0
-799,-162,74,0
-822,-224,-11,0
-937,-299,29,0
-1012,-376,130,0
-1083,-470,116,0
-1187,-523,159,0
-1166,-543,380,0
-970,-590,426,0
-831,-465,364,0
-856,-357,398,0
-859,-333,434,0
-821,-384,360,0
-806,-527,275,0
-737,-514,197,0
-638,-425,237,0
-601,-409,350,0
-618,-455,337,0
-715,-516,324,0
-836,-519,364,0
-831,-521,408,0
-917,-542,404,0
-1091,-649,382,0
-1019,-657,122,0
-990,-522,-105,0
-1008,-422,-16,0
-989,-351,163,0
-903,-395,273,0
-852,-432,322,0
-775,-331,271,0
-705,-247,206,0
-704,-210,208,0
-835,-249,112,0
-917,-356,85,0
-952,-429,76,0
-1013,-547,143,0
-1183,-471,239,0
-1174,-478,384,0
-1092,-434,434,0
-1019,-421,422,0
-890,-384,393,0
-824,-313,424,0
-856,-295,351,0
-855,-328,250,0
-804,-449,211,0
-808,-350,252,0
-724,-487,239,0
-676,-490,333,0
-744,-244,426,0
-798,-354,358,0
-913,-274,473,0
-871,-346,468,0
-1061,-449,346,0
-1051,-471,345,0
-1064,-433,184,0
-1086,-382,34,0
-1093,-386,92,0
-1058,-287,377,0
-911,-308,434,0
-742,-331,315,0
-632,-206,240,0
-610,-215,155,0
-682,-167,182,0
-703,-257,172,0
-662,-491,79,0
-684,-476,250,0
-536,-464,213,0
-382,-34,480,0
-247,254,717,0
-106,356,691,0
39,760,800,0
239,734,896,0
664,447,556,0
1101,786,356,0
1356,966,137,0
1469,1221,-175,0
1861,1227,-457,0
1441,1513,-476,0
714,1049,-336,0
689,915,-61,0
759,1041,-99,0
632,896,-255,0
768,893,-165,0
978,921,-225,0
867,909,-178,0
1011,984,-156,0
1175,989,-158,0
1198,826,-94,0
1157,678,-1,0
1146,649,51,0
1137,626,36,0
1056,566,49,0
912,441,77,0
730,349,116,0
626,291,147,0
607,247,161,0
515,171,171,0
678,382,267,0
779,401,319,0
720,417,367,0
1100,557,389,0
1481,606,273,0
1597,651,118,0
1434,766,73,0
1093,817,-68,0
848,881,-55,0
759,856,-57,0
633,840,-134,0
480,801,-159,0
404,847,-102,0
604,819,-207,0
624,756,-181,0
1003,946,-143,0
969,841,-200,0
1113,839,-108,0
1509,1011,-93,0
1629,978,-144,0
1588,764,-92,0
1389,593,-27,0
1213,512,0,0
1048,493,35,0
873,464,91,0
712,405,99,0
644,406,165,0
615,392,210,0
530,270,216,0
421,297,365,0
506,343,461,0
507,268,528,0
648,338,558,0
920,442,492,0
1178,503,361,0
1349,623,178,0
1327,769,41,0
1152,877,-5,0
989,888,-48,0
870,875,-57,0
765,831,-84,0
609,825,-77,0
466,881,-8,0
553,949,-37,0
605,896,-121,0
740,923,-71,0
1144,1039,-169,0
1068,893,-181,0
1223,940,-173,0
1493,1029,-290,0
1586,940,-351,0
1680,819,-333,0
1639,1007,-243,0
1583,1146,-266,0
984,911,-174,0
575,797,-134,0
240,748,-68,0
-36,589,-59,0
-302,494,-55,0
-441,447,-14,0
-699,616,-33,0
-651,571,120,0
-583,853,101,0
-558,410,155,0
-561,453,153,0
-604,395,330,0
-520,394,278,0
-508,273,268,0
-574,231,327,0
-704,289,131,0
-942,413,132,0
-1001,589,163,0
-926,536,101,0
-867,425,-13,0
-934,416,27,0
-1152,555,145,0
-1012,345,347,0
-989,-31,319,0
-1130,-123,129,0
-1135,171,50,0
-1032,466,96,0
-839,400,60,0
-675,303,65,0
-595,284,-12,0
-763,220,-265,0
-856,229,-93,0
-961,267,-29,0
-991,369,53,0
-1153,482,79,0
-1363,421,-373,0
-1202,620,-359,0
-879,831,-306,0
-804,650,-458,0
-863,503,-413,0
-734,348,-200,0
-609,362,9,0
-571,284,-5,0
-423,335,-32,0
-132,248,-184,0
90,500,95,0
99,538,-120,0
-184,589,-314,0
-288,502,-262,0
-177,318,-519,0
-248,567,-805,0
-229,921,-795,0
225,1929,-1286,0
329,1989,-1414,0
38,1997,-799,0
101,1789,-376,0
103,1295,-74,0
75,1158,187,0
160,1122,266,0
100,969,124,0
207,81,-55,0
225,51,129,0
305,133,112,0
644,324,34,0
939,813,112,0
932,942,261,0
1286,1019,423,0
1806,1018,198,0
1349,857,130,0
1002,140,133,0
923,369,114,0
766,783,16,0
593,813,89,0
515,828,61,0
393,789,48,0
371,783,74,0
513,740,-81,0
642,552,-81,0
1131,833,-6,0
1542,663,-157,0
1973,828,-98,0
1968,715,-71,0
1564,600,207,0
1236,447,328,0
975,331,318,0
808,240,295,0
573,245,273,0
379,90,167,0
281,-134,-27,0
296,-55,-236,0
435,74,-461,0
710,464,-1166,0
365,1061,-1693,0
1200,371,-1263,0
794,542,-1407,0
601,202,-1277,0
343,360,-657,0
274,422,-513,0
289,143,-256,0
108,461,-35,0
349,24,-844,0
453,13,-698,0
576,30,-1016,0
649,-58,-1176,0
669,-129,-1040,0
808,-75,-1032,0
693,-62,-900,0
764,-62,-835,0
997,-19,-1053,0
1044,271,-1107,0
933,610,-895,0
745,686,-966,0
432,937,-863,0
306,859,-576,0
277,323,-313,0
202,-203,-195,0
304,-349,-180,0
550,-208,-328,0
606,-143,-540,0
947,130,-546,0
1144,646,-381,0
1230,1248,60,0
1580,1508,194,0
1429,290,-280,0
1045,89,429,0
855,127,475,0
701,669,377,0
554,1062,350,0
396,944,311,0
293,687,251,0
446,610,162,0
685,650,27,0
829,721,-7,0
1507,944,32,0
1256,643,-70,0
1501,599,8,0
1725,810,-142,0
1343,826,-72,0
1089,608,44,0
916,606,116,0
880,484,140,0
794,337,173,0
633,271,160,0
556,241,126,0
500,282,86,0
294,227,89,0
473,363,-6,0
606,537,218,0
763,794,516,0
1150,917,505,0
1385,842,301,0
1251,414,383,0
928,489,434,0
757,615,400,0
630,661,274,0
555,616,278,0
493,598,305,0
353,564,289,0
452,544,183,0
792,695,23,0
679,654,-133,0
1175,796,133,0
1274,770,99,0
1486,859,-31,0
1885,850,-108,0
1491,782,26,0
1057,655,216,0
845,507,214,0
818,499,219,0
734,391,215,0
533,283,168,0
353,289,167,0
195,397,122,0
142,457,117,0
222,517,129,0
401,517,175,0
736,596,222,0
1127,790,241,0
1185,756,344,0
1188,659,423,0
1368,527,282,0
1163,484,219,0
887,462,172,0
676,411,71,0
669,482,22,0
675,596,16,0
678,671,60,0
615,671,76,0
452,661,91,0
571,750,158,0
789,741,-28,0
1143,798,13,0
1144,732,206,0
1197,765,70,0
1438,848,0,0
1446,772,25,0
1213,570,52,0
1049,533,52,0
987,486,16,0
918,435,-33,0
855,437,-3,0
780,432,4,0
750,434,15,0
745,433,57,0
787,355,84,0
768,293,149,0
940,423,283,0
865,496,385,0
671,416,454,0
912,385,409,0
1192,498,343,0
1035,470,311,0
925,507,278,0
885,576,223,0
868,617,112,0
851,672,119,0
769,708,110,0
534,752,128,0
536,802,151,0
744,874,15,0
722,699,-43,0
1234,955,96,0
1141,824,-113,0
1443,978,-102,0
1556,882,16,0
1357,722,40,0
1243,648,28,0
1085,517,-26,0
966,441,-52,0
854,491,-77,0
751,452,-162,0
661,470,25,0
616,304,-50,0
538,217,-126,0
551,79,-170,0
566,129,-209,0
967,434,-538,0
773,1510,-326,0
862,1159,-20,0
1274,997,-306,0
1394,1067,-444,0
1216,873,-335,0
998,805,-386,0
852,714,-420,0
776,560,-348,0
704,536,-290,0
528,608,-231,0
339,661,-144,0
426,698,-186,0
443,606,-321,0
899,771,-177,0
1404,846,-299,0
1574,810,-292,0
1800,846,-148,0
1592,922,-190,0
1321,420,-234,0
962,467,-130,0
791,592,-411,0
540,730,-239,0
531,523,-281,0
450,255,-186,0
480,225,-169,0
502,226,-146,0
484,286,-187,0
721,564,-199,0
866,854,-281,0
876,1148,-135,0
1109,1016,-147,0
1421,441,-222,0
1329,39,147,0
1243,97,219,0
1079,534,69,0
867,864,0,0
737,909,34,0
597,863,34,0
500,717,51,0
461,680,83,0
676,793,-46,0
727,785,-119,0
1245,966,18,0
1155,869,-147,0
1291,953,-170,0
1529,1030,-246,0
1649,1048,-266,0
1616,1186,-167,0
1597,1350,-133,0
1466,1171,-74,0
1172,914,28,0
833,668,37,0
502,491,47,0
107,662,200,0
-203,580,264,0
-477,665,357,0
-720,454,319,0
-796,-136,345,0
-633,-294,316,0
-617,-213,305,0
-636,-186,310,0
-593,-279,301,0
-454,-421,230,0
-579,-537,215,0
-732,-363,223,0
-782,-220,300,0
-768,-340,344,0
-780,-460,310,0
-822,-603,202,0
-877,-596,119,0
-1056,-688,91,0
-1073,-786,62,0
-1041,-680,-124,0
-1023,-493,-213,0
-949,-422,-90,0
-841,-427,78,0
-837,-407,301,0
-817,-404,211,0
-758,-307,135,0
-717,-295,83,0
-795,-356,56,0
-882,-411,29,0
-983,-475,-51,0
-1053,-517,-48,0
-1142,-559,74,0
-1136,-671,146,0
-1023,-653,310,0
-836,-751,273,0
-821,-539,303,0
-830,-526,276,0
-734,-671,136,0
-725,-572,152,0
-742,-424,265,0
-641,-498,140,0
-588,-540,66,0
-648,-505,78,0
-714,-533,140,0
-735,-634,219,0
-831,-628,237,0
-898,-628,234,0
-1030,-672,291,0
-968,-737,268,0
-963,-651,52,0
-1028,-452,-32,0
-957,-416,131,0
-818,-473,334,0
-756,-469,281,0
-698,-396,178,0
-701,-282,123,0
-777,-265,80,0
-806,-389,68,0
-901,-376,88,0
-1005,-379,99,0
-1097,-434,213,0
-1165,-512,444,0
-1118,-526,634,0
-978,-494,722,0
-770,-489,673,0
-770,-312,598,0
-817,-223,560,0
-592,-359,367,0
-216,-541,150,0
-262,-354,318,0
-271,-182,334,0
-339,-160,265,0
-415,-74,318,0
-505,-83,455,0
-796,9,390,0
-989,548,367,0
-1060,652,119,0
-1185,1158,170,0
-1047,1258,292,0
-927,1162,191,0
-804,1633,427,0
-545,1668,630,0
-279,1333,735,0
-156,822,568,0
0,252,360,0
-228,326,497,0
-293,424,367,0
-292,370,252,0
-260,121,96,0
-119,-53,-137,0
0,23,-293,0
325,94,-542,0
850,1266,-1090,0
585,1591,-1126,0
1062,1416,-207,0
1709,963,-635,0
1827,668,-636,0
1316,959,-404,0
861,881,-175,0
703,764,-156,0
669,776,-247,0
575,802,-298,0
431,718,-242,0
391,749,-206,0
528,905,-209,0
527,808,-281,0
831,950,-136,0
1158,947,-214,0
1345,899,-278,0
1611,1028,-289,0
1700,1038,-410,0
1601,1173,-406,0
1417,1218,-362,0
1188,1339,-280,0
934,1121,-181,0
646,981,-130,0
423,873,-9,0
193,682,33,0
-44,539,-109,0
-254,332,124,0
-541,168,119,0
-782,126,199,0
-611,9,410,0
-588,-131,572,0
-640,-117,545,0
-611,-88,610,0
-660,-199,750,0
-730,-213,529,0
-813,-329,390,0
-728,-416,345,0
-650,-410,396,0
-662,-347,498,0
-747,-243,535,0
-792,-316,373,0
-903,-321,221,0
-999,-440,146,0
-1171,-554,48,0
-964,-572,-45,0
-1041,-559,-217,0
-1148,-469,-205,0
-1090,-456,-87,0
-924,-349,107,0
-853,-266,126,0
-795,-234,19,0
-796,-172,18,0
-856,-237,-4,0
-917,-230,75,0
-909,-255,55,0
-987,-339,-29,0
-1056,-352,132,0
-1259,-323,196,0
-1236,-240,306,0
-1119,-247,521,0
-953,-210,502,0
-938,-138,372,0
-930,-95,263,0
-885,-144,291,0
-870,-323,314,0
-778,-390,263,0
-718,-303,273,0
-708,-258,289,0
-748,-284,328,0
-809,-300,331,0
-905,-266,295,0
-953,-292,285,0
-982,-337,318,0
-1227,-384,254,0
-1138,-426,193,0
-1075,-478,-14,0
-1084,-363,-58,0
-1079,-303,-30,0
-1042,-227,34,0
-926,-208,210,0
-849,-198,264,0
-732,-300,73,0
-778,-35,130,0
-912,-47,92,0
-961,-244,-116,0
-1011,-202,-63,0
-1170,-298,-45,0
-1221,-208,84,0
-1197,-188,194,0
-1070,-183,402,0
-828,-83,521,0
-654,-1,497,0
-690,-60,520,0
-734,-116,502,0
-726,22,447,0
-690,125,414,0
-690,119,444,0
-663,404,392,0
-695,350,481,0
-712,320,402,0
-871,369,427,0
-1043,386,338,0
-1088,446,278,0
-1116,615,145,0
-1306,792,5,0
-1130,657,-46,0
-956,333,-151,0
-1117,494,-152,0
-927,674,-33,0
-692,991,289,0
-472,861,218,0
-407,588,332,0
-486,457,159,0
-541,530,181,0
-555,494,138,0
-578,406,101,0
-599,340,65,0
-621,409,-125,0
-755,806,-490,0
-664,1255,-870,0
-498,1231,-988,0
-341,852,-1035,0
-162,592,-1089,0
-114,333,-1027,0
-157,288,-922,0
-196,204,-787,0
-267,110,-808,0
-305,167,-679,0
-364,169,-792,0
-378,281,-715,0
-502,297,-772,0
-457,262,-891,0
-444,369,-893,0
-384,214,-1113,0
-419,291,-1091,0
-379,167,-947,0
-482,0,-943,0
-454,39,-943,0
-268,107,-988,0
-249,249,-802,0
-275,142,-784,0
-324,223,-650,0
-315,140,-757,0
-386,209,-674,0
-393,142,-800,0
-375,190,-823,0
-383,106,-938,0
-387,263,-1033,0
-81,353,-1271,0
18,658,-1116,0
145,802,-1005,0
240,677,-935,0
128,576,-857,0
41,373,-845,0
-55,394,-765,0
-94,366,-714,0
-116,287,-731,0
-159,326,-740,0
-232,291,-813,0
-301,240,-815,0
-340,279,-897,0
-189,276,-1003,0
-158,337,-883,0
-137,243,-946,0
-42,179,-917,0
102,326,-1100,0
413,678,-1480,0
532,797,-1306,0
497,646,-1009,0
225,552,-833,0
110,515,-669,0
146,304,-649,0
49,207,-753,0
-50,163,-832,0
-145,322,-1118,0
-150,239,-1341,0
-147,487,-1208,0
-81,385,-1345,0
-43,587,-1003,0
58,391,-956,0
81,420,-884,0
-20,424,-718,0
-87,331,-692,0
-168,380,-611,0
-301,337,-549,0
-363,235,-578,0
-447,386,-527,0
-415,365,-623,0
-409,358,-708,0
-501,436,-832,0
-530,480,-934,0
-551,218,-827,0
-511,446,-954,0
-81,206,193,0
-140,1518,-1139,0
-518,338,-1195,0
-524,146,-1180,0
-555,615,-918,0
-608,855,-264,0
-487,1086,-219,0
-469,793,-627,0
-483,718,-463,0
-468,846,-198,0
-257,729,-83,0
-106,694,35,0
-93,28,182,0
306,792,96,0
457,953,191,0
658,1080,300,0
970,889,147,0
1183,812,-36,0
1185,743,-141,0
1215,859,-223,0
1056,840,-249,0
899,813,-226,0
825,772,-284,0
705,751,-277,0
667,844,-260,0
739,971,-281,0
648,892,-358,0
827,977,-254,0
984,981,-239,0
1114,917,-236,0
1285,962,-223,0
1263,908,-230,0
1211,703,-217,0
1123,575,-163,0
1139,467,-171,0
1102,519,-140,0
1070,504,-92,0
983,479,-90,0
894,486,5,0
786,458,110,0
681,282,155,0
604,123,198,0
818,218,265,0
685,344,527,0
577,451,629,0
1011,506,495,0
1324,429,394,0
1355,544,332,0
1317,712,267,0
1177,811,67,0
989,860,-6,0
889,895,-25,0
768,902,-137,0
561,943,-164,0
444,1044,-149,0
580,992,-255,0
650,770,-245,0
973,927,-106,0
1339,923,-244,0
1269,914,-178,0
1440,899,-163,0
1659,874,-252,0
1610,634,-325,0
1486,563,-302,0
1418,642,-241,0
1300,601,-318,0
942,512,-228,0
585,396,-193,0
340,582,-73,0
119,369,-126,0
35,428,-104,0
-154,610,-70,0
-339,748,-100,0
-237,1102,-147,0
-175,1011,17,0
-99,1378,212,0
864,505,833,0
-853,1760,-245,0
-204,1388,-196,0
-234,594,-342,0
-226,242,-294,0
-182,543,-280,0
-211,448,-58,0
-268,964,-9,0
-303,897,36,0
-389,1021,-4,0
-453,1018,-113,0
-528,907,-86,0
-472,995,4,0
-659,764,-129,0
-585,1140,-57,0
-543,1370,-181,0
-453,1181,71,0
-201,780,-3,0
-217,843,134,0
-295,683,339,0
-278,726,295,0
-427,663,528,0
-528,349,464,0
-454,425,418,0
-442,591,782,0
-438,467,1286,0
-244,156,1198,0
-131,410,801,0
-15,105,900,0
-127,411,1362,0
-102,781,1064,0
-169,448,799,0
-241,465,837,0
-303,252,662,0
-259,364,634,0
-150,201,510,0
-233,165,879,0
-326,298,828,0
-451,282,836,0
-532,375,817,0
-670,413,689,0
-625,568,986,0
-745,715,807,0
-698,693,900,0
-525,630,1013,0
-277,690,723,0
-98,483,700,0
-33,407,643,0
-16,485,513,0
-189,255,619,0
-525,396,987,0
-712,300,970,0
-692,332,911,0
-685,495,859,0
-573,514,749,0
-420,556,771,0
-215,771,916,0
-171,815,862,0
-189,781,714,0
-197,853,474,0
-297,961,68,0
-414,908,-79,0
-488,629,-169,0
-508,505,-207,0
-544,478,-117,0
-528,371,-146,0
-546,462,-302,0
-555,425,-356,0
-635,784,-490,0
-475,511,-976,0
-537,331,-1006,0
-416,340,-1222,0
-337,406,-1244,0
-306,164,-1380,0
-145,307,-1282,0
-185,297,-1023,0
-208,385,-774,0
-282,247,-713,0
-152,214,-496,0
-270,411,-574,0
-325,211,-690,0
-321,140,-804,0
-124,586,-1172,0
-522,458,-1048,0
-231,495,-793,0
-54,1362,-783,0
-112,696,-980,0
25,908,-680,0
32,682,-773,0
-51,682,-775,0
-99,632,-665,0
-220,587,-507,0
-270,641,-446,0
-307,578,-440,0
-319,679,-243,0
-321,763,-143,0
-368,814,-188,0
-394,864,-219,0
-428,916,-281,0
-518,845,-365,0
-510,1023,-299,0
-499,985,-301,0
-575,913,-226,0
-502,1174,-1,0
-374,1134,146,0
-239,1073,441,0
-204,496,559,0
-277,505,500,0
-346,365,504,0
-440,390,406,0
-372,212,589,0
-388,222,857,0
-169,211,1084,0
-461,744,1319,0
-315,591,816,0
-341,558,1156,0
-168,440,926,0
-139,423,836,0
-12,503,1011,0
-44,658,1000,0
-168,815,762,0
-244,531,763,0
-284,306,730,0
-330,260,567,0
-325,196,586,0
-358,189,680,0
-383,285,694,0
-478,567,716,0
-396,701,705,0
-468,757,612,0
-563,820,651,0
-636,1181,470,0
-643,1044,336,0
-463,1145,246,0
-250,1203,191,0
-70,971,110,0
-38,830,123,0
-106,695,155,0
-151,607,64,0
-260,650,48,0
-354,610,-180,0
-492,797,-395,0
-449,771,-576,0
-417,815,-829,0
-251,974,-1139,0
19,475,-1026,0
143,425,-1021,0
277,335,-1183,0
324,261,-968,0
152,175,-1148,0
86,46,-869,0
-42,100,-761,0
-157,51,-823,0
-213,60,-626,0
-262,46,-719,0
-346,-17,-748,0
-391,72,-774,0
-305,114,-903,0
-421,189,-892,0
-347,2,-1214,0
-239,25,-1441,0
-155,52,-1685,0
73,205,-1545,0
229,337,-987,0
220,276,-706,0
132,280,-542,0
57,143,-476,0
38,384,-421,0
3,527,-571,0
7,598,-648,0
80,585,-898,0
52,679,-951,0
-23,934,-1219,0
19,721,-1187,0
208,518,-1116,0
302,427,-1189,0
305,423,-1129,0
291,192,-1053,0
178,228,-817,0
55,202,-617,0
-53,158,-582,0
-144,154,-602,0
-206,190,-627,0
-269,371,-626,0
-250,413,-717,0
-190,316,-812,0
-109,201,-1029,0
22,102,-1336,0
-25,114,-1146,0
-33,64,-1422,0
-95,535,-1526,0
-36,619,-1151,0
-74,649,-769,0
-123,622,-411,0
-106,663,-219,0
-71,486,-308,0
-10,497,-251,0
109,453,-138,0
345,415,-252,0
506,350,-293,0
680,847,-310,0
935,1003,-287,0
968,944,-175,0
1094,1079,170,0
1604,1142,89,0
1334,674,0,0
1067,513,222,0
778,538,150,0
586,647,53,0
458,673,12,0
364,599,10,0
247,561,71,0
230,579,103,0
455,517,134,0
1005,562,169,0
1547,841,178,0
1246,368,324,0
1622,686,399,0
1508,819,233,0
1062,557,341,0
843,506,308,0
728,416,151,0
603,415,160,0
623,397,116,0
637,365,93,0
792,350,75,0
932,337,-23,0
769,367,1,0
879,377,-72,0
586,603,88,0
384,406,503,0
1340,696,682,0
1276,273,713,0
1072,505,542,0
743,651,244,0
496,723,104,0
293,964,-128,0
227,763,-210,0
253,646,-331,0
357,588,-588,0
274,1009,-773,0
787,1129,-539,0
1358,1242,-530,0
1514,1381,-434,0
1409,1467,-73,0
1184,1483,94,0
869,1345,300,0
580,1050,406,0
500,718,299,0
458,9,172,0
252,18,302,0
283,63,153,0
240,68,62,0
194,225,60,0
329,374,-48,0
386,627,93,0
878,1540,414,0
1332,1710,221,0
1216,1330,300,0
1026,681,379,0
990,468,428,0
828,685,436,0
646,959,296,0
298,1040,187,0
438,1120,-118,0
422,1436,-784,0
361,1463,-940,0
1735,1814,-581,0
1998,1427,-306,0
1998,1061,89,0
1921,793,286,0
1353,502,329,0
890,488,307,0
581,521,274,0
390,449,282,0
282,316,154,0
223,208,66,0
159,134,27,0
104,209,44,0
269,367,-11,0
634,456,-227,0
568,740,-21,0
854,1364,557,0
1179,1622,464,0
1182,1138,-25,0
1189,338,193,0
1183,151,586,0
1105,405,474,0
797,710,437,0
585,694,428,0
389,799,279,0
283,791,81,0
76,720,56,0
228,578,-36,0
1789,1070,65,0
1673,363,-125,0
1571,514,522,0
1356,1008,350,0
1360,1114,279,0
1181,398,353,0
863,-91,367,0
595,-139,480,0
427,75,378,0
158,104,354,0
277,191,181,0
1115,653,247,0
1529,933,614,0
1773,679,387,0
1352,321,95,0
827,481,198,0
464,415,41,0
204,510,-136,0
2,673,-137,0
-138,592,-62,0
-191,393,-146,0
710,597,-11,0
1909,1002,110,0
1814,-14,-157,0
633,-45,609,0
986,432,605,0
1046,145,171,0
683,102,122,0
557,155,38,0
557,205,-172,0
1625,416,-307,0
1161,1141,318,0
1262,1030,920,0
1401,-957,450,0
1011,-273,905,0
536,-63,741,0
479,101,365,0
380,438,77,0
316,500,110,0
111,505,118,0
638,488,-79,0
1783,1192,-380,0
1900,861,-225,0
1859,573,177,0
1584,469,496,0
1183,510,631,0
916,529,723,0
651,341,633,0
453,202,517,0
366,179,401,0
383,164,243,0
325,206,172,0
409,280,124,0
990,466,127,0
912,882,498,0
1425,896,683,0
1666,434,455,0
1128,44,392,0
931,170,396,0
863,596,141,0
636,834,-13,0
341,768,31,0
228,349,-227,0
404,532,-639,0
292,1023,-697,0
85,739,-383,0
1239,971,-394,0
1726,908,-915,0
1732,743,-484,0
1645,992,-279,0
1484,978,-349,0
1342,893,-209,0
1160,780,-187,0
828,720,-28,0
558,550,3,0
532,450,-38,0
497,439,-28,0
358,588,-126,0
-8,854,-141,0
-287,1313,113,0
-423,1756,152,0
-393,1622,79,0
-604,1273,268,0
-569,1035,317,0
-565,754,282,0
-400,447,322,0
-224,316,155,0
-149,288,85,0
-200,316,40,0
-197,27,39,0
-583,-112,355,0
-609,-131,400,0
-1080,-354,809,0
-1399,-198,781,0
-1517,-275,482,0
-1266,-428,333,0
-867,-328,220,0
-722,-207,167,0
-567,-222,150,0
-548,-235,187,0
-671,-293,197,0
-909,-190,310,0
-1119,-286,390,0
-1221,-235,435,0
-1276,-281,531,0
-1270,-245,537,0
-1167,-151,344,0
-1106,-63,408,0
-823,-180,357,0
-593,-294,303,0
-515,-278,252,0
-532,-267,187,0
-561,-111,397,0
-740,-147,492,0
-909,-127,520,0
-931,-244,499,0
-847,-286,592,0
-991,-301,510,0
-1060,-285,351,0
-1187,-278,191,0
-1501,-132,218,0
-1222,-25,456,0
-941,-235,466,0
-666,-396,303,0
-557,23,238,0
-577,34,-14,0
-637,-122,-22,0
-819,-88,99,0
-801,-195,226,0
-576,-280,407,0
-604,28,576,0
-469,15,686,0
-322,180,625,0
-115,672,767,0
247,733,671,0
543,1065,275,0
480,908,240,0
837,1258,187,0
780,1203,-177,0
915,1347,-122,0
499,1566,211,0
822,1207,-43,0
1166,1170,-289,0
1119,1147,-372,0
957,1029,-53,0
1131,897,-68,0
872,799,20,0
652,851,155,0
622,805,151,0
656,668,79,0
633,685,130,0
639,711,101,0
629,739,96,0
590,719,105,0
636,665,61,0
702,575,6,0
721,484,77,0
966,445,12,0
874,477,100,0
641,473,407,0
1087,613,297,0
1179,586,100,0
926,479,198,0
755,568,276,0
675,631,183,0
762,645,34,0
823,797,41,0
786,813,-29,0
626,877,3,0
570,820,100,0
854,908,15,0
815,864,-1,0
1257,931,-41,0
1000,742,-98,0
983,641,-92,0
1535,830,-278,0
1487,672,-469,0
1258,486,-513,0
1259,441,-433,0
1126,409,-502,0
794,397,-434,0
404,535,-235,0
155,542,-145,0
64,557,-201,0
48,720,-252,0
-27,842,-255,0
-86,922,-362,0
-21,1192,-439,0
28,1182,-433,0
64,878,-279,0
117,853,-295,0
73,937,-350,0
-101,967,-241,0
-67,941,-322,0
-91,767,-313,0
-162,710,-160,0
-256,680,-132,0
-345,652,-144,0
-508,625,-55,0
-468,655,124,0
-541,897,-105,0
-650,894,-375,0
-922,1137,-434,0
-756,1151,-491,0
-723,673,-375,0
-927,1047,-206,0
-530,1014,-158,0
-287,723,-7,0
-178,514,217,0
-380,577,321,0
-385,563,420,0
-316,479,681,0
-579,717,846,0
-583,816,1115,0
-599,371,1177,0
-636,490,850,0
-725,313,646,0
-639,332,850,0
-384,322,847,0
-416,369,837,0
-487,504,709,0
-506,461,528,0
-608,324,358,0
-575,9,251,0
-747,94,241,0
-855,199,160,0
-960,288,298,0
-935,60,492,0
-956,-132,521,0
-1018,32,345,0
-1188,316,515,0
-1072,230,374,0
-1353,419,504,0
-1138,255,166,0
-1083,161,-116,0
-1012,269,-105,0
-852,229,-109,0
-581,268,-81,0
-571,189,45,0
-606,236,142,0
-749,208,109,0
-917,210,150,0
-993,82,224,0
-954,237,207,0
-958,520,184,0
-861,564,116,0
-1027,790,61,0
-779,705,80,0
-768,857,189,0
-643,971,71,0
-688,848,-116,0
-737,724,-115,0
-647,520,-110,0
-680,383,-124,0
-697,231,-188,0
-717,238,-120,0
-743,201,-154,0
-907,312,-150,0
-875,514,-139,0
-902,524,-296,0
-1131,602,-472,0
-1331,615,-317,0
-1139,194,-102,0
-1027,228,53,0
-921,319,216,0
-717,359,298,0
-526,536,343,0
-404,562,292,0
-284,351,352,0
-239,205,341,0
-79,288,345,0
54,729,460,0
320,778,378,0
550,308,342,0
835,423,521,0
1436,1246,613,0
1621,892,622,0
1400,471,605,0
1465,405,573,0
1305,635,308,0
943,633,255,0
700,505,184,0
546,463,68,0
524,498,74,0
563,522,40,0
588,615,77,0
653,684,206,0
880,671,248,0
1089,583,126,0
913,478,144,0
1083,642,217,0
1093,735,39,0
805,636,36,0
932,703,97,0
1133,759,46,0
1048,505,-45,0
955,334,14,0
1015,431,65,0
1039,479,34,0
975,481,35,0
827,506,101,0
715,477,76,0
667,419,28,0
635,336,-23,0
580,333,-17,0
727,469,90,0
970,572,136,0
893,533,231,0
981,484,289,0
1291,577,282,0
1064,520,232,0
781,474,243,0
681,506,198,0
679,471,103,0
702,498,92,0
736,558,111,0
735,605,102,0
676,650,186,0
799,664,244,0
917,635,147,0
1107,639,125,0
1279,736,124,0
987,646,48,0
928,612,60,0
1104,652,58,0
1121,580,8,0
991,405,-38,0
928,397,-12,0
947,439,-5,0
981,470,-16,0
916,485,7,0
788,444,8,0
631,376,27,0
559,347,33,0
559,353,7,0
598,420,75,0
865,506,137,0
1077,516,109,0
1000,529,178,0
1061,602,358,0
1289,578,255,0
1091,449,158,0
858,440,219,0
761,523,170,0
714,513,98,0
681,492,82,0
650,545,94,0
643,567,146,0
609,586,190,0
783,657,290,0
996,558,154,0
1222,544,112,0
1257,650,156,0
940,523,83,0
984,572,120,0
1149,606,77,0
1037,500,8,0
884,364,58,0
814,355,104,0
835,345,78,0
850,389,98,0
828,413,90,0
786,403,83,0
756,389,64,0
783,359,41,0
847,386,29,0
938,468,113,0
1128,505,98,0
953,427,128,0
837,484,174,0
1060,583,281,0
1128,537,250,0
921,533,299,0
781,515,269,0
626,459,201,0
544,464,173,0
540,509,169,0
569,525,192,0
562,515,218,0
655,565,275,0
946,618,289,0
949,432,137,0
1134,577,199,0
1191,737,170,0
843,644,106,0
762,610,148,0
1028,613,134,0
1072,518,94,0
916,422,92,0
875,391,147,0
967,397,119,0
942,380,95,0
796,363,111,0
639,342,117,0
618,346,97,0
715,381,93,0
786,449,149,0
970,566,215,0
1207,571,265,0
1018,574,427,0
967,480,525,0
1190,426,393,0
976,369,330,0
733,341,289,0
575,350,182,0
545,322,139,0
547,381,87,0
590,414,138,0
614,396,167,0
611,357,256,0
839,429,329,0
1050,393,288,0
1000,403,298,0
1229,575,364,0
1142,523,255,0
743,399,289,0
910,499,336,0
1213,548,287,0
1047,374,289,0
849,380,307,0
801,383,301,0
770,337,278,0
757,437,153,0
750,418,138,0
650,432,135,0
704,502,104,0
818,493,140,0
762,471,127,0
897,602,178,0
964,550,208,0
860,515,222,0
962,653,387,0
1015,587,419,0
858,484,420,0
692,384,358,0
521,363,286,0
433,374,233,0
490,457,194,0
595,459,204,0
606,484,222,0
639,486,305,0
820,515,316,0
976,537,267,0
909,526,257,0
1067,674,335,0
1014,620,252,0
794,537,157,0
1118,720,264,0
1269,686,215,0
964,414,223,0
722,417,362,0
771,544,292,0
828,555,216,0
756,430,225,0
638,509,122,0
512,447,107,0
505,525,41,0
591,589,44,0
689,597,113,0
924,598,129,0
1162,570,162,0
881,490,204,0
925,643,277,0
1214,685,272,0
891,467,249,0
696,423,271,0
637,404,145,0
650,408,122,0
719,468,140,0
757,511,146,0
563,494,237,0
676,551,273,0
977,600,153,0
863,675,180,0
855,763,183,0
1160,893,80,0
1139,812,48,0
1228,749,-37,0
1382,553,-142,0
1082,215,-158,0
826,332,-80,0
785,351,-150,0
825,309,-197,0
945,310,-199,0
1136,510,-162,0
1585,702,-31,0
1576,487,-39,0
1361,436,96,0
1145,365,146,0
796,214,31,0
652,404,185,0
720,462,205,0
797,338,230,0
803,396,214,0
713,410,191,0
619,436,274,0
601,441,232,0
601,437,168,0
609,400,138,0
700,363,126,0
788,410,187,0
800,360,167,0
747,363,233,0
807,217,185,0
1051,227,121,0
979,299,101,0
1273,616,208,0
1008,592,167,0
1185,490,123,0
1225,473,8,0
950,492,55,0
761,506,118,0
713,442,52,0
705,459,23,0
716,449,36,0
740,467,35,0
761,492,18,0
818,515,19,0
939,475,32,0
994,421,24,0
1035,379,77,0
1135,424,70,0
898,379,103,0
951,562,317,0
1205,512,225,0
907,374,174,0
665,337,183,0
580,465,148,0
684,532,163,0
699,472,204,0
685,481,271,0
780,452,290,0
971,424,209,0
949,442,133,0
950,582,180,0
987,714,162,0
867,574,33,0
1138,627,16,0
1304,595,23,0
1035,335,-52,0
773,422,65,0
797,513,63,0
887,608,-27,0
942,837,-41,0
820,1039,-123,0
587,1000,-165,0
419,321,-58,0
221,362,72,0
193,531,135,0
338,499,319,0
696,556,479,0
907,696,318,0
794,268,372,0
924,550,426,0
1055,598,251,0
909,554,168,0
771,583,125,0
827,563,31,0
860,621,-42,0
841,732,-6,0
737,716,-40,0
713,696,66,0
765,810,88,0
915,733,53,0
1047,663,135,0
1200,803,107,0
939,626,40,0
970,612,88,0
1260,726,70,0
1106,485,34,0
867,346,69,0
836,421,68,0
910,432,39,0
880,508,20,0
796,538,36,0
684,548,6,0
609,552,26,0
579,430,9,0
576,439,-28,0
579,506,8,0
767,587,15,0
922,639,130,0
920,636,228,0
959,605,308,0
1248,573,335,0
1112,502,281,0
808,501,302,0
721,487,209,0
685,427,131,0
643,467,123,0
626,505,149,0
576,546,177,0
623,531,231,0
738,540,297,0
1000,569,326,0
972,471,222,0
1015,513,260,0
1159,660,243,0
955,574,124,0
816,513,144,0
1076,708,207,0
1109,655,154,0
902,408,125,0
774,405,201,0
795,526,212,0
805,546,194,0
767,499,164,0
683,470,149,0
631,472,123,0
652,464,86,0
691,463,48,0
836,464,28,0
982,526,10,0
817,566,205,0
828,563,384,0
1150,569,237,0
1163,514,268,0
945,446,419,0
723,540,428,0
622,395,279,0
578,399,226,0
606,449,249,0
686,507,311,0
691,575,402,0
806,615,545,0
976,502,521,0
876,325,331,0
915,507,359,0
1052,753,330,0
908,618,208,0
1045,534,175,0
1140,523,101,0
912,360,164,0
826,339,208,0
944,466,220,0
899,516,236,0
808,451,257,0
710,470,279,0
663,604,401,0
652,755,528,0
838,784,526,0
950,826,614,0
856,633,873,0
696,327,599,0
1138,116,221,0
888,439,158,0
818,192,22,0
888,391,23,0
686,625,215,0
556,576,272,0
569,547,286,0
639,556,274,0
565,584,281,0
448,679,395,0
448,692,419,0
528,587,279,0
1057,678,266,0
1497,939,346,0
1761,791,331,0
1914,640,401,0
1632,649,323,0
1372,747,304,0
1208,616,288,0
1068,297,181,0
1033,271,80,0
971,258,156,0
990,106,86,0
838,113,-16,0
722,87,-49,0
560,308,-23,0
636,444,41,0
890,556,-11,0
904,745,293,0
1682,613,603,0
1981,731,324,0
1304,493,283,0
811,677,409,0
657,763,152,0
671,617,123,0
650,605,160,0
554,627,179,0
455,660,287,0
583,548,292,0
919,473,200,0
1033,425,78,0
1248,656,131,0
1246,736,86,0
1151,631,62,0
1512,704,124,0
1511,576,143,0
1271,450,225,0
1099,353,227,0
1033,366,239,0
877,437,219,0
651,366,168,0
462,291,191,0
288,241,240,0
337,307,103,0
411,361,82,0
540,538,193,0
806,566,185,0
1026,643,288,0
1124,763,516,0
1479,844,480,0
1296,580,298,0
969,414,312,0
826,479,261,0
739,516,164,0
684,549,129,0
645,592,155,0
588,543,155,0
515,575,236,0
636,590,281,0
891,594,254,0
940,473,199,0
1136,610,307,0
1178,674,263,0
981,611,215,0
1099,662,257,0
1152,707,260,0
1005,554,217,0
839,461,200,0
800,423,195,0
790,422,172,0
799,464,147,0
772,465,149,0
727,450,131,0
726,446,129,0
736,416,109,0
791,414,135,0
1062,479,132,0
961,467,178,0
795,464,333,0
1063,508,286,0
1166,499,228,0
965,488,315,0
795,554,350,0
657,523,267,0
638,518,240,0
678,610,276,0
709,652,288,0
673,671,322,0
592,612,355,0
733,598,336,0
943,605,250,0
1252,703,266,0
1125,695,202,0
933,599,160,0
1170,688,215,0
1310,712,160,0
1149,515,150,0
941,432,142,0
823,433,158,0
782,436,147,0
811,440,117,0
813,435,104,0
809,432,97,0
877,420,63,0
917,359,17,0
780,295,78,0
987,434,239,0
989,470,275,0
647,393,353,0
838,510,413,0
1180,634,402,0
1080,474,367,0
912,431,384,0
813,482,291,0
702,526,205,0
684,625,298,0
678,773,302,0
632,633,295,0
518,690,316,0
652,679,298,0
857,694,140,0
905,820,63,0
1326,1063,3,0
1015,854,-200,0
1071,755,-147,0
1458,885,-300,0
1362,741,-416,0
1031,642,-289,0
842,582,-273,0
668,693,-222,0
508,628,-223,0
322,613,-221,0
191,471,-249,0
-18,679,-275,0
-52,741,-486,0
-76,739,-565,0
-132,872,-775,0
-164,982,-707,0
-226,1040,-636,0
-214,856,-378,0
-290,861,-208,0
-219,892,-135,0
-293,743,54,0
-305,628,151,0
-341,611,220,0
-327,473,207,0
-354,527,297,0
-249,638,388,0
-270,293,1128,0
-325,109,1296,0
-578,685,845,0
-558,899,506,0
-477,1230,37,0
-456,1167,177,0
-452,980,219,0
-396,775,160,0
-417,714,467,0
-412,501,927,0
-443,588,962,0
-310,685,482,0
-379,695,343,0
-393,592,298,0
-447,633,358,0
-524,370,394,0
-331,282,777,0
-428,554,858,0
-431,533,1093,0
-338,462,1048,0
-141,474,1196,0
-111,368,974,0
-24,563,949,0
-88,785,936,0
-162,732,656,0
-167,592,511,0
-207,544,435,0
-231,411,317,0
-365,460,421,0
-346,309,455,0
-379,524,356,0
-409,898,414,0
-382,1066,319,0
-329,1203,-10,0
-317,1372,-131,0
-219,1404,-272,0
-234,1316,-390,0
-179,919,-366,0
-193,850,-508,0
-143,774,-558,0
-61,653,-508,0
-48,667,-424,0
-38,491,-378,0
-101,640,-473,0
-137,531,-571,0
-166,629,-663,0
-196,593,-784,0
-150,577,-828,0
-145,724,-998,0
-66,585,-1158,0
65,445,-1293,0
-53,620,-1003,0
52,500,-901,0
223,373,-943,0
268,395,-921,0
177,229,-937,0
140,197,-838,0
23,111,-905,0
-58,251,-750,0
-87,244,-705,0
-147,379,-635,0
-212,530,-652,0
-260,490,-802,0
-249,417,-861,0
-179,298,-960,0
-111,263,-1068,0
-170,479,-1185,0
-179,561,-1092,0
-228,407,-852,0
-260,308,-956,0
-152,316,-1101,0
-73,313,-993,0
-59,441,-769,0
-75,419,-673,0
-117,412,-585,0
-191,565,-661,0
-243,552,-704,0
-275,670,-620,0
-353,715,-635,0
-310,686,-548,0
-318,837,-513,0
-291,854,-498,0
-232,1003,-623,0
-136,1105,-728,0
-111,989,-554,0
-27,759,-425,0
-19,780,-547,0
4,771,-572,0
-37,652,-524,0
-100,584,-520,0
-137,584,-484,0
-189,643,-475,0
-246,734,-479,0
-261,725,-372,0
-267,851,-326,0
-247,894,-407,0
-214,911,-479,0
-100,852,-479,0
-186,849,-602,0
-354,837,-720,0
-313,1081,-787,0
-317,805,-620,0
-375,635,-634,0
-315,900,-688,0
-154,922,-641,0
-76,688,-519,0
-86,622,-454,0
-96,582,-423,0
-130,758,-354,0
-160,812,-350,0
-231,759,-381,0
-329,841,-381,0
-384,880,-423,0
-313,1115,-434,0
-103,1153,-362,0
83,1226,-422,0
156,1119,-362,0
96,955,-182,0
179,894,-126,0
191,913,-190,0
159,956,-255,0
118,896,-295,0
6,747,-269,0
-45,650,-257,0
-109,727,-254,0
-135,673,-317,0
-162,767,-369,0
-191,818,-259,0
-208,874,-377,0
-121,944,-580,0
-94,999,-523,0
-195,900,-531,0
-215,933,-455,0
-69,866,-411,0
-108,991,-425,0
13,1200,-542,0
250,1305,-568,0
226,1174,-498,0
124,845,-323,0
90,622,-213,0
76,641,-204,0
92,694,-196,0
39,857,-241,0
-22,1099,-218,0
-112,1117,-279,0
-203,1038,-271,0
-300,1106,-192,0
-271,1048,-97,0
-177,1132,7,0
-44,1100,64,0
0,951,201,0
49,1031,217,0
215,1040,57,0
142,832,-43,0
-12,829,-40,0
-87,770,-119,0
-162,699,-195,0
-223,755,-168,0
-217,765,-241,0
-178,797,-305,0
-243,1092,-273,0
-290,985,-372,0
-173,922,-341,0
-188,998,-414,0
41,1510,-648,0
234,1005,-339,0
-64,699,-292,0
-118,747,-457,0
-26,974,-535,0
17,880,-281,0
19,787,-147,0
12,646,-233,0
32,877,-322,0
43,870,-318,0
22,848,-287,0
69,826,-193,0
175,749,-80,0
306,750,-14,0
539,679,-51,0
774,570,36,0
847,658,292,0
1188,889,491,0
1577,841,356,0
1303,607,271,0
955,578,315,0
728,557,215,0
604,610,146,0
584,700,155,0
566,699,163,0
531,658,211,0
473,622,242,0
628,630,319,0
871,409,209,0
920,419,285,0
1366,812,464,0
1035,414,191,0
868,477,304,0
1183,719,343,0
1171,571,183,0
896,464,176,0
750,522,235,0
694,581,189,0
672,601,150,0
624,524,153,0
495,582,174,0
477,669,106,0
576,640,22,0
698,646,-37,0
749,683,-17,0
967,743,-14,0
947,692,-27,0
762,730,123,0
816,681,206,0
1007,654,193,0
959,511,177,0
786,428,181,0
619,445,157,0
583,457,102,0
603,512,110,0
636,573,144,0
619,613,246,0
568,551,385,0
609,392,476,0
1009,356,326,0
946,449,397,0
1199,759,519,0
1261,645,298,0
658,469,314,0
791,533,313,0
1079,616,175,0
992,499,224,0
885,463,250,0
843,495,194,0
836,491,176,0
858,520,128,0
877,571,89,0
842,578,61,0
719,540,69,0
647,513,71,0
687,483,69,0
669,471,168,0
665,503,320,0
911,520,315,0
879,521,382,0
837,469,603,0
1224,532,597,0
1088,468,470,0
799,367,429,0
700,457,338,0
704,560,222,0
687,647,218,0
667,670,224,0
565,559,157,0
600,558,275,0
833,574,220,0
818,610,209,0
1408,954,349,0
1097,633,127,0
792,557,316,0
1264,864,406,0
1309,668,417,0
1043,386,427,0
895,357,482,0
787,382,411,0
685,368,325,0
611,382,257,0
532,529,314,0
447,615,151,0
462,505,80,0
463,434,137,0
581,477,122,0
717,703,251,0
607,676,429,0
822,440,658,0
1169,484,767,0
1014,480,684,0
847,413,580,0
801,428,461,0
676,445,349,0
636,445,262,0
625,499,276,0
630,453,236,0
602,533,293,0
532,547,274,0
571,513,313,0
689,405,378,0
827,336,324,0
825,426,297,0
1063,600,337,0
1209,886,496,0
878,546,239,0
940,558,346,0
1242,732,320,0
1045,545,221,0
732,473,245,0
733,519,210,0
774,488,116,0
724,554,124,0
698,538,77,0
699,529,52,0
715,641,115,0
699,581,125,0
679,550,162,0
768,634,284,0
1105,636,185,0
870,466,120,0
470,574,390,0
962,817,410,0
1027,659,161,0
759,364,223,0
697,539,297,0
658,533,202,0
607,555,192,0
637,615,249,0
562,559,294,0
543,500,309,0
689,481,266,0
732,404,151,0
643,432,95,0
891,677,140,0
1081,766,118,0
1026,599,27,0
1200,703,191,0
1317,731,144,0
1059,567,163,0
843,466,235,0
706,430,264,0
617,398,251,0
581,454,287,0
607,425,274,0
656,383,198,0
652,411,161,0
728,487,147,0
945,575,187,0
1217,574,177,0
1204,416,109,0
902,462,173,0
829,665,399,0
1202,617,269,0
878,385,257,0
528,403,363,0
467,465,285,0
436,509,291,0
466,581,333,0
466,585,359,0
421,601,444,0
632,590,401,0
791,516,297,0
1240,767,404,0
1443,720,253,0
1164,543,158,0
1367,710,322,0
1256,609,137,0
867,310,159,0
672,340,209,0
757,367,163,0
802,374,107,0
714,340,74,0
702,350,70,0
732,359,41,0
725,382,6,0
672,489,129,0
949,599,154,0
741,734,444,0
1065,676,544,0
1564,683,439,0
913,671,617,0
413,431,593,0
529,-6,258,0
626,168,220,0
694,385,294,0
739,362,438,0
651,328,499,0
792,423,456,0
946,444,391,0
764,362,334,0
973,555,345,0
1171,773,309,0
921,532,230,0
1196,506,318,0
1261,505,351,0
998,430,347,0
838,403,347,0
865,413,312,0
871,397,297,0
811,366,282,0
676,318,198,0
583,301,114,0
616,318,75,0
630,461,86,0
563,619,169,0
869,573,242,0
836,660,437,0
875,549,502,0
1435,333,432,0
1171,399,330,0
750,564,317,0
609,614,305,0
617,668,160,0
622,746,166,0
628,619,166,0
561,538,218,0
689,530,248,0
895,474,92,0
734,467,60,0
958,613,139,0
1169,772,44,0
875,628,53,0
1044,730,244,0
1204,715,120,0
907,509,157,0
681,505,268,0
721,522,224,0
805,604,179,0
821,611,126,0
712,546,54,0
606,531,-28,0
527,537,-45,0
523,639,0,0
621,816,156,0
842,795,313,0
1075,759,294,0
819,610,372,0
785,432,585,0
1029,477,484,0
854,306,433,0
566,293,457,0
562,373,315,0
592,435,167,0
587,498,141,0
574,559,120,0
695,827,207,0
791,993,313,0
900,657,375,0
887,746,601,0
841,995,802,0
568,921,693,0
586,1005,708,0
708,1087,764,0
686,1000,635,0
678,901,622,0
774,805,499,0
775,751,524,0
619,697,419,0
391,658,344,0
85,626,350,0
-44,657,417,0
-104,543,357,0
-88,638,394,0
-41,758,317,0
270,1227,353,0
647,255,1753,0
149,486,1390,0
-65,241,797,0
-211,497,475,0
-480,972,174,0
-270,1218,-182,0
-40,690,536,0
-166,597,798,0
-219,272,966,0
-307,668,595,0
-60,76,1331,0
-139,200,1125,0
-247,311,462,0
-676,1241,-381,0
-678,1638,-679,0
-217,1638,261,0
-387,1388,1436,0
-614,553,625,0
-527,367,-75,0
-420,475,11,0
-239,124,-220,0
50,739,-463,0
-216,1364,-63,0
-271,825,-211,0
-561,872,579,0
-791,585,641,0
-710,807,328,0
-515,72,835,0
-420,231,373,0
-233,75,252,0
28,172,221,0
30,1480,1581,0
407,1221,1737,0
263,971,1472,0
121,497,1029,0
22,461,617,0
54,508,458,0
-359,459,987,0
-411,337,568,0
-364,372,710,0
-295,-135,806,0
-127,-526,580,0
460,431,1052,0
55,438,1377,0
-274,731,758,0
-282,1049,636,0
-341,463,559,0
-483,408,884,0
-594,294,791,0
-552,637,661,0
-715,546,595,0
-468,713,780,0
-287,886,595,0
-109,412,523,0
-149,386,569,0
-323,730,427,0
-335,749,306,0
-301,904,250,0
-266,922,150,0
-222,1099,123,0
-118,995,26,0
-62,630,-519,0
-60,1563,-999,0
67,1154,-1114,0
212,1635,-1077,0
298,963,-527,0
47,570,-392,0
-103,417,-475,0
-190,266,-604,0
-235,61,-743,0
-286,37,-954,0
-240,1127,305,0
-445,738,-416,0
-572,866,-215,0
-528,854,93,0
-504,1155,26,0
-492,767,-542,0
-377,1026,-650,0
-793,893,-399,0
-673,442,-220,0
-665,611,-274,0
-719,579,-322,0
-678,941,173,0
-433,693,112,0
-679,900,305,0
-753,721,251,0
-536,576,55,0
-448,484,-240,0
-716,408,-256,0
-834,922,161,0
-713,724,-67,0
-527,614,67,0
-650,574,108,0
-761,1191,841,0
-726,1051,1390,0
-514,944,842,0
-292,1138,366,0
-449,618,7,0
-176,377,-563,0
-377,434,-284,0
-389,304,-115,0
-575,483,328,0
-413,735,1106,0
47,432,1129,0
14,524,643,0
-237,1064,257,0
-564,318,378,0
-915,1072,655,0
-727,1440,509,0
-798,1211,-88,0
-786,1146,51,0
-581,1339,271,0
-324,933,107,0
-372,951,322,0
-331,704,390,0
-366,651,374,0
-399,719,342,0
-474,1059,416,0
-576,1266,456,0
-539,707,266,0
-557,542,313,0
-586,420,612,0
-675,478,895,0
-416,284,914,0
-297,265,668,0
-322,515,469,0
-275,858,396,0
-351,724,50,0
-463,727,-241,0
-620,770,-283,0
-660,741,-474,0
-769,732,-526,0
-646,488,-683,0
-490,350,-569,0
-415,358,-620,0
-421,294,-755,0
31,463,-311,0
-385,703,-1000,0
-542,286,-1663,0
-328,421,-1171,0
-316,179,-1260,0
-320,309,-1267,0
-262,397,-1108,0
-185,303,-775,0
-259,357,-606,0
-333,312,-530,0
-79,222,-303,0
-432,885,-347,0
-782,831,-322,0
-804,687,-360,0
-451,677,-767,0
-548,1024,-466,0
-568,914,-295,0
-387,992,-181,0
-342,1185,140,0
-219,961,122,0
-368,908,-290,0
-432,700,-335,0
-524,635,-298,0
-611,478,-254,0
-738,559,-139,0
-594,552,156,0
-567,973,271,0
-458,858,95,0
-460,915,153,0
-631,801,-138,0
-719,797,-385,0
-767,750,-439,0
-662,723,-490,0
-801,558,-694,0
-782,680,-341,0
-678,796,-90,0
-559,728,-163,0
-415,1030,-225,0
-408,706,-253,0
-359,609,-188,0
-375,396,226,0
-414,326,680,0
-545,364,824,0
-599,277,884,0
-456,390,852,0
-236,422,1004,0
-84,751,1481,0
-185,644,1325,0
-5,543,1003,0
-87,521,1005,0
-137,580,661,0
-173,544,584,0
-187,487,621,0
-313,515,603,0
-348,369,652,0
-410,387,814,0
-439,311,817,0
-405,337,704,0
-459,510,994,0
-519,492,876,0
-524,569,748,0
-635,707,826,0
-599,973,773,0
-549,670,514,0
-508,599,422,0
-437,836,489,0
-241,815,396,0
-150,578,535,0
-186,617,582,0
-131,596,302,0
-261,721,489,0
-363,690,368,0
-538,812,307,0
-550,863,327,0
-463,941,-9,0
-442,1240,33,0
-248,1118,-85,0
-154,1158,-223,0
-81,1049,-216,0
14,878,-192,0
-63,905,-439,0
-144,793,-691,0
-259,722,-693,0
-323,682,-658,0
-292,480,-661,0
-292,397,-494,0
-320,187,-607,0
-393,199,-703,0
-435,321,-431,0
-421,262,-681,0
-330,30,-1006,0
-274,38,-862,0
-51,-249,-1108,0
4,-357,-1248,0
-16,-174,-1314,0
5,-115,-1534,0
26,10,-1376,0
-54,80,-1389,0
-75,74,-1212,0
-83,53,-1057,0
-60,122,-710,0
19,44,-533,0
44,-47,-500,0
130,-63,-457,0
183,88,-801,0
455,-29,-577,0
1217,-525,-1139,0
636,913,-930,0
513,1744,-19,0
1317,1074,-1200,0
1056,1047,-670,0
1146,487,-369,0
1178,448,-60,0
1332,709,-277,0
1022,1090,-327,0
562,1032,-210,0
318,866,-128,0
308,797,-195,0
616,748,-311,0
729,308,-499,0
1142,694,-679,0
1004,864,-621,0
1118,800,-339,0
1552,952,-401,0
1463,749,-513,0
1200,906,-318,0
997,1067,-379,0
978,1010,-466,0
1129,717,-507,0
1037,63,-402,0
655,-191,-122,0
424,-46,32,0
346,265,74,0
410,410,-2,0
346,351,-17,0
554,408,67,0
982,554,144,0
1729,850,243,0
1998,1471,-367,0
1218,1674,-454,0
621,1072,-209,0
595,726,-251,0
683,551,-352,0
733,415,-326,0
613,207,-264,0
523,180,-316,0
446,254,-302,0
565,368,-257,0
627,428,-356,0
382,391,-319,0
451,495,-289,0
943,645,-470,0
1291,793,-387,0
1680,1040,-278,0
1529,1180,-109,0
1108,1125,67,0
928,1074,187,0
948,872,86,0
933,645,114,0
870,546,191,0
709,441,156,0
542,185,3,0
369,212,-96,0
377,393,-125,0
432,496,-218,0
497,727,-116,0
732,810,-120,0
695,833,-86,0
823,728,-22,0
1350,808,-50,0
1569,622,-94,0
1416,509,-142,0
983,675,-109,0
691,820,28,0
686,927,57,0
663,968,74,0
490,912,112,0
396,700,72,0
650,653,-82,0
575,696,-193,0
689,916,-141,0
1150,882,-266,0
986,695,-255,0
1429,849,-418,0
1376,694,-415,0
988,986,-87,0
937,1124,-134,0
985,1183,-225,0
982,1346,-114,0
854,1169,-81,0
648,777,-57,0
435,440,43,0
256,249,75,0
132,-2,57,0
40,-48,130,0
121,212,198,0
193,712,332,0
233,1801,354,0
-130,1997,358,0
-459,1935,148,0
-507,1605,0,0
-318,955,-228,0
-161,365,-338,0
-179,33,-236,0
-201,-159,-228,0
-261,-261,-239,0
-457,-457,-325,0
-672,-366,-564,0
-355,-6,-530,0
-187,-315,-193,0
48,-590,-700,0
179,-3,-915,0
1133,1505,-1857,0
390,1863,-1244,0
7,1837,-782,0
-74,1500,-422,0
-32,1230,-195,0
72,824,-124,0
191,448,-173,0
220,458,-160,0
294,428,-171,0
407,337,-211,0
500,296,-280,0
616,452,-250,0
985,925,42,0
1101,1361,330,0
1285,1140,324,0
1484,398,326,0
1187,180,453,0
933,517,298,0
746,863,113,0
627,851,69,0
544,720,44,0
509,675,46,0
401,675,65,0
360,646,28,0
584,730,-73,0
754,686,-193,0
1060,847,10,0
1326,826,-106,0
973,764,-149,0
1377,720,-147,0
1330,909,-82,0
1186,643,45,0
1026,519,124,0
1007,452,83,0
970,574,137,0
920,435,78,0
726,305,58,0
616,303,79,0
578,203,-10,0
510,310,93,0
586,426,117,0
813,637,291,0
762,640,465,0
1063,718,439,0
1387,817,390,0
1180,658,217,0
934,707,186,0
815,711,106,0
765,718,85,0
646,695,105,0
510,680,122,0
359,632,189,0
340,454,45,0
853,903,-28,0
593,771,11,0
1212,1097,115,0
1011,809,-57,0
1304,834,-26,0
1579,848,44,0
1311,657,129,0
1118,545,138,0
997,548,154,0
904,495,151,0
768,477,154,0
623,329,54,0
452,254,35,0
505,267,-44,0
526,365,-5,0
464,355,17,0
587,569,110,0
876,707,196,0
1047,1049,346,0
1225,1127,333,0
1373,889,112,0
1026,769,130,0
719,755,-15,0
625,622,12,0
537,496,93,0
445,538,92,0
345,578,58,0
344,620,98,0
690,744,96,0
827,740,9,0
1108,726,12,0
1230,783,67,0
930,644,135,0
1198,816,222,0
1124,802,340,0
968,581,336,0
895,531,347,0
908,454,335,0
874,262,241,0
916,432,-58,0
561,681,155,0
636,509,45,0
624,412,4,0
552,370,-66,0
489,505,45,0
631,615,202,0
721,592,337,0
960,568,363,0
1266,656,486,0
992,486,405,0
849,524,345,0
691,692,281,0
582,687,241,0
540,656,208,0
438,667,212,0
356,619,209,0
597,627,191,0
815,543,19,0
977,602,48,0
1226,749,47,0
1044,734,47,0
1254,760,65,0
1293,772,192,0
1147,560,221,0
1006,437,319,0
914,407,342,0
871,410,293,0
717,358,185,0
484,256,121,0
309,222,51,0
255,267,38,0
349,301,10,0
563,462,71,0
1253,677,127,0
1665,756,247,0
1168,732,406,0
1310,612,321,0
1050,533,241,0
835,591,175,0
707,599,106,0
582,615,89,0
530,591,92,0
512,520,93,0
488,526,104,0
385,497,133,0
510,526,131,0
839,616,88,0
816,529,5,0
1084,718,113,0
1001,622,49,0
1117,607,33,0
1471,726,45,0
1360,688,97,0
1050,528,131,0
854,415,161,0
806,402,149,0
719,406,129,0
526,342,130,0
395,340,129,0
449,365,102,0
544,405,61,0
495,467,146,0
960,649,211,0
1371,703,164,0
1030,698,263,0
1154,760,368,0
1213,546,237,0
803,338,271,0
635,435,266,0
582,431,210,0
508,444,220,0
449,412,243,0
380,437,291,0
416,371,281,0
717,589,341,0
942,610,234,0
1125,564,223,0
1107,704,182,0
1067,617,68,0
1333,761,78,0
1133,674,84,0
846,599,198,0
670,457,261,0
649,358,271,0
683,399,276,0
611,407,209,0
458,401,167,0
449,441,143,0
614,418,50,0
700,517,17,0
788,632,154,0
1317,877,66,0
914,681,157,0
1104,892,410,0
1070,799,292,0
829,592,251,0
649,485,225,0
519,363,246,0
466,222,239,0
470,206,207,0
505,312,265,0
572,459,192,0
800,599,193,0
796,619,53,0
625,557,3,0
1115,813,54,0
1308,851,-75,0
1290,632,-50,0
1401,814,126,0
1158,730,183,0
791,560,257,0
698,429,217,0
671,400,162,0
580,447,160,0
504,421,148,0
506,396,107,0
720,480,70,0
770,401,2,0
814,482,136,0
892,584,165,0
735,541,282,0
1131,675,324,0
1240,679,169,0
922,555,203,0
811,568,168,0
738,620,160,0
679,587,111,0
604,652,199,0
562,646,188,0
521,552,343,0
433,422,253,0
657,462,108,0
798,669,42,0
1312,852,-29,0
1162,792,-79,0
1154,671,42,0
1297,743,92,0
1161,635,142,0
837,454,213,0
844,436,225,0
940,433,183,0
841,409,115,0
706,367,117,0
584,270,91,0
494,306,17,0
361,378,110,0
357,437,253,0
799,538,159,0
985,675,286,0
1286,536,360,0
1592,732,328,0
1128,722,414,0
847,550,443,0
622,545,414,0
530,571,387,0
513,595,379,0
472,605,376,0
391,538,335,0
476,491,262,0
818,522,91,0
832,529,14,0
1286,784,101,0
1012,702,10,0
1148,636,-18,0
1375,705,42,0
1265,679,100,0
1045,533,176,0
914,449,226,0
894,473,272,0
841,502,253,0
667,483,207,0
483,332,118,0
444,568,-69,0
365,1350,-230,0
207,1101,-397,0
-83,1103,-397,0
-283,1547,-247,0
-420,1450,15,0
-329,1527,145,0
-276,1593,4,0
-232,1288,-27,0
-363,1023,86,0
-363,584,15,0
-321,275,54,0
-231,95,45,0
-104,-161,62,0
-107,-237,137,0
-240,-334,308,0
-491,-362,484,0
-683,-426,574,0
-1224,-361,580,0
-1233,-337,455,0
-1244,-627,95,0
-1402,-540,126,0
-1186,-578,391,0
-959,-506,301,0
-783,-249,267,0
-666,-237,156,0
-635,-284,102,0
-697,-236,120,0
-853,-296,57,0
-970,-383,82,0
-1068,-416,202,0
-1097,-321,366,0
-1070,-396,387,0
-1083,-96,617,0
-991,-20,707,0
-949,14,570,0
-994,-4,486,0
-778,-50,432,0
-710,-79,491,0
-613,-106,461,0
-549,-190,418,0
-556,-37,442,0
-688,77,567,0
-684,-226,627,0
-762,-145,719,0
-936,-286,545,0
-1230,-495,438,0
-960,-604,370,0
-964,-540,114,0
-942,-568,35,0
-940,-637,63,0
-915,-499,182,0
-884,-250,501,0
-991,-54,391,0
-920,-175,121,0
-911,-133,-80,0
-976,135,81,0
-928,109,42,0
-964,101,-25,0
-951,77,-12,0
-963,277,161,0
-894,404,272,0
-1044,682,82,0
-1046,676,-176,0
-848,662,-196,0
-846,558,-228,0
-858,484,-254,0
-773,417,-259,0
-748,445,-134,0
-728,405,-113,0
-761,413,-99,0
-799,500,-164,0
-876,525,-198,0
-866,488,-113,0
-921,422,-224,0
-906,427,-327,0
-943,428,-178,0
-1039,491,-93,0
-1079,419,145,0
-1146,52,100,0
-1240,-37,-167,0
-1071,260,-159,0
-884,347,-209,0
-705,262,-192,0
-685,238,-132,0
-645,112,-119,0
-739,207,-88,0
-948,95,-231,0
-994,123,-287,0
-1055,234,-302,0
-1067,417,-250,0
-710,336,-308,0
-393,407,-335,0
-222,540,-205,0
-172,415,-555,0
-215,899,-521,0
-213,976,-398,0
-172,754,-302,0
-106,332,-128,0
226,396,140,0
491,588,-308,0
640,996,-633,0
941,921,-836,0
1149,929,-503,0
1355,1102,-396,0
1246,859,-527,0
1134,792,-430,0
1293,882,-471,0
943,266,-709,0
850,972,-566,0
869,1155,-559,0
887,745,-624,0
778,660,-355,0
716,817,-173,0
922,612,-323,0
993,507,-190,0
796,386,-76,0
623,370,-6,0
563,348,42,0
624,242,-2,0
531,274,68,0
747,528,24,0
942,661,91,0
913,771,207,0
1097,726,97,0
1161,719,63,0
1019,633,99,0
803,366,64,0
658,354,185,0
704,47,7,0
899,608,-345,0
221,979,-309,0
458,664,-250,0
663,747,-245,0
806,506,-423,0
1618,-134,-472,0
1182,538,-545,0
1233,826,-367,0
1269,839,-322,0
1063,759,-362,0
836,707,-401,0
849,476,-400,0
840,152,-228,0
735,-43,-59,0
605,195,-44,0
617,424,-46,0
765,500,-64,0
815,381,-97,0
1154,455,-136,0
991,591,-53,0
680,925,383,0
1218,765,282,0
1274,574,-176,0
897,316,-63,0
769,400,129,0
745,430,-17,0
717,657,13,0
636,690,7,0
566,744,-9,0
493,641,10,0
590,673,30,0
812,695,-148,0
771,623,-203,0
1119,838,-23,0
1035,777,-86,0
1283,731,-65,0
1453,720,-139,0
1323,687,-83,0
1134,577,-12,0
999,510,35,0
971,487,82,0
887,433,48,0
681,348,25,0
449,264,33,0
298,262,39,0
296,301,24,0
387,404,31,0
534,526,157,0
933,733,230,0
1344,718,107,0
1450,722,107,0
1314,764,361,0
1258,550,192,0
924,497,123,0
739,480,113,0
694,529,45,0
619,630,24,0
491,593,-14,0
374,652,49,0
383,595,78,0
622,649,67,0
852,538,-53,0
1580,700,15,0
1518,627,-31,0
1307,623,12,0
1353,830,99,0
1107,849,83,0
915,533,205,0
823,408,213,0
862,313,100,0
802,271,96,0
646,314,95,0
513,271,60,0
390,277,0,0
421,279,-127,0
492,442,-122,0
796,647,-2,0
1244,858,137,0
1019,807,206,0
1196,683,449,0
1207,899,330,0
885,657,255,0
678,625,129,0
560,592,89,0
507,560,23,0
498,579,1,0
486,563,23,0
446,605,43,0
594,626,27,0
809,639,-38,0
896,589,-102,0
1250,743,-100,0
925,641,-131,0
954,733,-30,0
1313,805,-19,0
1184,632,-31,0
1048,582,96,0
927,533,138,0
864,568,147,0
805,510,128,0
663,488,114,0
485,335,35,0
386,364,9,0
439,394,-32,0
512,447,-15,0
740,636,35,0
1143,756,58,0
1065,788,113,0
1018,768,238,0
1217,721,111,0
846,574,74,0
691,576,91,0
643,573,25,0
611,536,5,0
606,539,2,0
562,553,41,0
500,580,75,0
613,612,93,0
758,618,31,0
735,518,-56,0
1125,750,9,0
946,648,-93,0
1015,745,29,0
1371,850,15,0
1268,594,-50,0
999,496,81,0
817,501,74,0
781,464,36,0
793,460,28,0
768,417,-2,0
674,395,-10,0
665,392,-16,0
728,358,-34,0
683,341,-81,0
851,487,-34,0
926,617,25,0
731,591,267,0
1038,783,379,0
1207,693,178,0
944,487,208,0
812,588,220,0
672,600,126,0
655,585,103,0
619,581,100,0
560,559,137,0
462,535,190,0
524,542,226,0
777,558,139,0
743,495,17,0
836,619,73,0
1062,766,8,0
1122,723,-72,0
1333,704,-25,0
1324,600,-56,0
1098,529,-11,0
884,440,43,0
801,444,43,0
803,422,6,0
712,423,-2,0
603,421,-44,0
572,436,-70,0
598,494,-115,0
549,571,-107,0
533,577,-28,0
722,754,-31,0
808,812,146,0
864,790,325,0
1228,745,201,0
1046,525,95,0
818,480,143,0
643,523,135,0
589,538,91,0
573,508,79,0
589,537,101,0
507,508,129,0
495,545,172,0
720,566,71,0
612,538,18,0
1015,747,36,0
1527,985,-54,0
1293,544,-92,0
1405,757,-10,0
1079,582,19,0
680,447,130,0
623,420,127,0
666,349,94,0
643,360,47,0
587,404,37,0
595,391,28,0
674,435,-28,0
697,465,-69,0
677,527,31,0
1043,714,104,0
990,740,204,0
884,617,304,0
1205,756,381,0
1058,646,281,0
833,518,261,0
666,451,216,0
495,310,150,0
449,319,141,0
532,418,141,0
582,421,114,0
562,409,125,0
732,440,125,0
864,464,48,0
887,470,17,0
1457,670,-39,0
1031,457,-107,0
1045,508,52,0
1572,887,54,0
1112,632,157,0
724,480,346,0
644,517,341,0
655,420,253,0
604,489,194,0
609,542,87,0
606,505,10,0
641,514,-31,0
807,550,-57,0
866,528,-58,0
1122,508,-41,0
1477,706,-93,0
586,502,305,0
914,265,410,0
1286,272,85,0
905,161,306,0
848,331,197,0
784,443,81,0
732,469,49,0
746,475,46,0
747,558,51,0
625,581,71,0
485,637,123,0
592,632,131,0
800,616,-16,0
1261,822,-38,0
1147,690,-87,0
1165,643,-46,0
1415,730,-90,0
1184,682,-67,0
957,506,20,0
804,382,44,0
779,353,35,0
743,399,-10,0
687,419,-46,0
620,381,-43,0
609,382,-76,0
647,377,-111,0
693,416,-120,0
741,519,-21,0
1014,663,116,0
1010,681,206,0
921,495,194,0
1121,637,403,0
1258,579,323,0
1001,486,269,0
824,498,171,0
685,516,74,0
608,552,69,0
622,616,112,0
552,587,100,0
382,469,137,0
467,456,120,0
734,560,3,0
1007,558,-46,0
1436,827,-58,0
768,573,-113,0
1265,642,-28,0
1554,917,-125,0
1196,569,-22,0
924,449,132,0
885,479,65,0
808,332,97,0
791,343,122,0
754,363,103,0
719,332,73,0
778,309,29,0
759,309,0,0
902,295,-87,0
954,435,-126,0
682,658,309,0
1188,833,465,0
1388,721,189,0
1027,407,237,0
804,473,281,0
659,574,235,0
551,531,150,0
560,562,157,0
566,534,173,0
488,591,173,0
526,574,170,0
774,601,85,0
953,592,-7,0
1397,789,-66,0
1020,686,11,0
1334,834,-15,0
1158,628,-8,0
976,477,58,0
857,427,80,0
798,445,79,0
764,463,51,0
693,414,22,0
596,367,9,0
565,366,14,0
673,379,-1,0
805,418,-38,0
914,521,17,0
1095,628,109,0
991,646,231,0
856,576,334,0
1281,758,279,0
1041,597,194,0
762,485,251,0
718,565,209,0
676,522,120,0
605,553,100,0
546,541,81,0
502,547,70,0
502,638,124,0
673,734,220,0
815,683,64,0
653,610,38,0
955,778,160,0
1172,788,-25,0
1140,722,-48,0
1064,684,85,0
1149,769,141,0
1115,701,156,0
896,469,168,0
806,424,187,0
793,468,190,0
712,408,143,0
559,337,103,0
484,320,102,0
580,340,77,0
677,352,24,0
937,415,60,0
1256,577,117,0
1130,582,339,0
1122,589,483,0
1279,585,286,0
1052,413,158,0
868,418,156,0
729,432,39,0
630,518,-14,0
641,612,13,0
637,559,-45,0
539,546,-140,0
585,826,-78,0
724,889,-170,0
759,723,-149,0
1348,954,-118,0
1182,910,-172,0
1581,829,-176,0
1695,831,-196,0
1515,776,-143,0
1326,532,-128,0
1272,475,-65,0
1186,422,-3,0
1018,386,-20,0
853,312,4,0
698,283,19,0
617,213,-33,0
613,207,3,0
560,231,55,0
682,359,100,0
725,418,200,0
704,409,303,0
1106,698,381,0
1637,725,292,0
1768,653,112,0
1618,754,5,0
1086,761,-93,0
878,766,-20,0
779,851,-84,0
674,769,-207,0
483,609,-192,0
407,654,-106,0
650,766,-187,0
747,640,-306,0
1328,955,-151,0
1006,855,-156,0
1329,845,-92,0
1688,1067,-117,0
1594,702,-149,0
1490,398,-81,0
1377,422,-26,0
1287,450,-36,0
1058,305,-44,0
778,207,-6,0
635,156,-34,0
547,160,-18,0
575,141,-58,0
476,176,-31,0
597,299,90,0
896,521,110,0
1032,464,191,0
1513,697,338,0
1905,889,258,0
1668,747,141,0
1168,748,122,0
789,737,132,0
722,722,128,0
688,778,97,0
578,659,145,0
374,560,177,0
507,657,86,0
708,627,-60,0
1029,621,-78,0
1293,726,-102,0
1258,651,-42,0
1462,745,111,0
1430,854,167,0
1298,658,230,0
1137,430,228,0
1021,338,230,0
847,285,202,0
671,277,215,0
499,213,217,0
427,191,186,0
425,160,83,0
472,210,2,0
659,631,1,0
813,700,277,0
1237,764,481,0
1369,926,306,0
1248,642,162,0
1023,604,183,0
770,715,205,0
653,742,132,0
652,744,106,0
622,658,160,0
542,619,193,0
467,606,245,0
621,548,224,0
880,527,103,0
938,530,40,0
1218,668,58,0
1074,634,15,0
1190,564,-9,0
1376,659,-19,0
1123,701,51,0
810,539,130,0
638,483,148,0
638,456,169,0
658,388,114,0
585,455,37,0
608,430,-26,0
658,383,76,0
796,445,26,0
741,427,-22,0
660,483,140,0
885,520,123,0
828,566,86,0
665,634,357,0
1404,949,466,0
1453,751,146,0
858,458,246,0
682,493,223,0
537,714,119,0
409,734,111,0
364,599,39,0
299,476,38,0
407,516,45,0
379,572,-5,0
901,810,96,0
1672,948,-103,0
1807,791,-71,0
1972,726,138,0
1535,768,81,0
1208,705,220,0
1005,470,240,0
777,248,202,0
680,141,227,0
618,17,99,0
617,25,9,0
493,153,171,0
678,401,53,0
726,461,190,0
1104,442,314,0
1790,744,200,0
1620,743,200,0
1305,659,293,0
985,859,301,0
667,863,229,0
510,722,252,0
429,739,261,0
380,723,298,0
660,615,159,0
803,553,19,0
1199,696,36,0
1348,780,90,0
1196,551,-89,0
1669,973,6,0
1528,583,6,0
1119,525,116,0
900,536,180,0
765,457,204,0
616,396,193,0
476,410,134,0
339,480,113,0
287,487,27,0
383,565,4,0
451,596,2,0
590,661,-12,0
942,779,176,0
918,594,213,0
1066,683,242,0
1455,754,232,0
1106,602,184,0
782,629,188,0
645,604,129,0
634,516,78,0
651,446,40,0
676,611,29,0
524,721,21,0
561,736,-10,0
889,557,-85,0
1093,591,-123,0
1291,762,-73,0
980,656,-40,0
1113,707,-44,0
1279,635,-67,0
989,538,-30,0
753,595,23,0
695,559,45,0
735,471,-71,0
687,551,-58,0
647,583,-169,0
604,488,-98,0
626,468,-190,0
797,546,-221,0
804,537,-118,0
744,658,4,0
1011,639,-44,0
811,500,8,0
663,584,199,0
1045,799,301,0
1011,600,208,0
761,486,200,0
645,525,168,0
664,523,107,0
724,597,106,0
715,617,139,0
616,547,181,0
585,522,225,0
820,413,84,0
755,428,-14,0
1205,676,42,0
1300,772,-147,0
1019,513,-83,0
1193,592,45,0
1031,670,8,0
855,546,149,0
717,592,219,0
723,514,175,0
702,462,178,0
681,466,155,0
648,461,87,0
601,486,50,0
632,494,25,0
715,498,-18,0
806,543,11,0
1019,586,-6,0
1024,684,53,0
757,626,181,0
765,650,327,0
1052,712,255,0
991,568,196,0
822,440,232,0
691,415,139,0
557,423,136,0
508,387,137,0
538,438,139,0
541,451,208,0
569,473,284,0
600,590,355,0
807,467,250,0
869,464,80,0
1138,657,120,0
1122,817,54,0
995,684,13,0
1021,763,60,0
1115,739,88,0
1046,582,160,0
885,532,175,0
803,499,207,0
831,536,132,0
762,471,68,0
654,474,101,0
642,428,39,0
736,428,15,0
733,386,50,0
834,418,87,0
851,533,213,0
809,492,291,0
726,513,413,0
1136,604,363,0
1137,531,321,0
905,507,283,0
784,567,224,0
751,562,151,0
731,587,119,0
685,605,120,0
539,599,139,0
576,655,166,0
827,691,86,0
869,646,-8,0
1105,761,-10,0
982,697,-54,0
1218,687,-70,0
1295,647,-118,0
1226,601,-58,0
1077,528,2,0
944,432,-19,0
901,470,10,0
912,463,0,0
817,447,-20,0
688,399,-21,0
644,351,-37,0
650,364,-65,0
579,319,-17,0
727,413,101,0
931,554,179,0
907,537,267,0
947,505,329,0
1319,616,257,0
1230,598,178,0
979,512,151,0
860,511,69,0
780,569,4,0
702,571,14,0
637,567,23,0
583,546,26,0
586,626,100,0
778,694,130,0
922,658,31,0
1248,736,39,0
1162,703,25,0
1032,539,-81,0
1283,655,-11,0
1254,675,20,0
1088,519,39,0
952,432,22,0
881,365,25,0
836,377,-21,0
823,298,-39,0
762,282,-55,0
789,302,-24,0
785,321,14,0
818,388,26,0
1156,497,-7,0
928,607,126,0
758,574,432,0
1011,592,299,0
982,499,253,0
866,434,161,0
794,578,149,0
691,599,144,0
636,633,86,0
619,621,135,0
580,599,175,0
595,668,207,0
703,614,278,0
865,623,207,0
866,550,172,0
923,604,176,0
1105,705,107,0
1034,629,49,0
802,544,71,0
1018,711,56,0
1164,731,51,0
994,552,71,0
823,630,129,0
845,676,99,0
844,663,108,0
774,613,23,0
630,692,31,0
582,527,13,0
542,383,-12,0
595,352,-52,0
643,432,9,0
837,594,111,0
845,667,235,0
776,499,325,0
1197,536,273,0
1255,562,177,0
943,509,143,0
815,610,158,0
777,627,25,0
733,580,-38,0
710,653,41,0
649,686,58,0
559,713,142,0
706,745,165,0
805,698,38,0
903,719,53,0
1233,823,13,0
1010,667,-99,0
1215,734,-23,0
1409,868,23,0
1340,635,31,0
1153,424,88,0
1036,406,139,0
991,462,103,0
971,457,65,0
807,318,-7,0
615,233,-2,0
594,247,-15,0
607,219,-69,0
547,260,-9,0
827,406,-19,0
895,490,44,0
960,547,219,0
1446,844,295,0
1405,847,283,0
1181,611,234,0
992,600,187,0
750,643,169,0
662,649,228,0
641,686,283,0
543,556,266,0
465,532,185,0
749,597,43,0
742,534,-119,0
843,534,-63,0
1128,730,-10,0
1463,785,-188,0
1555,727,-143,0
1341,678,-11,0
1175,659,73,0
970,516,27,0
832,343,16,0
832,308,11,0
743,332,17,0
758,319,40,0
803,294,24,0
806,282,57,0
797,211,74,0
996,461,64,0
670,569,308,0
851,422,494,0
1326,516,382,0
1233,404,347,0
990,401,346,0
866,605,285,0
786,685,210,0
741,666,171,0
675,653,172,0
588,653,199,0
569,649,245,0
736,648,237,0
848,586,157,0
727,549,158,0
1061,727,202,0
1264,805,108,0
1336,722,113,0
1270,618,141,0
1275,616,166,0
1258,454,114,0
1044,382,133,0
1004,447,151,0
907,440,139,0
721,308,121,0
650,267,133,0
545,271,119,0
510,282,87,0
422,268,61,0
694,490,61,0
807,750,155,0
872,886,339,0
1394,997,253,0
1349,775,114,0
1085,418,216,0
813,528,262,0
605,614,201,0
520,568,157,0
477,518,150,0
485,522,171,0
586,549,233,0
804,495,179,0
847,428,132,0
950,527,219,0
1203,706,229,0
1196,677,67,0
1022,586,16,0
1131,705,81,0
1112,728,186,0
903,544,189,0
749,378,168,0
788,462,209,0
787,539,222,0
684,493,158,0
545,435,160,0
462,429,157,0
457,409,111,0
530,448,56,0
644,543,139,0
1088,639,216,0
1305,765,185,0
917,592,198,0
1073,525,283,0
1273,551,153,0
940,414,164,0
769,450,166,0
685,453,89,0
623,397,75,0
636,466,106,0
653,534,161,0
610,555,232,0
585,606,342,0
815,593,361,0
894,493,238,0
1207,753,206,0
1115,763,131,0
964,626,96,0
1256,724,111,0
1199,593,103,0
960,487,98,0
812,440,94,0
795,402,106,0
817,385,84,0
818,386,70,0
769,355,23,0
748,337,-18,0
789,347,-25,0
821,349,-85,0
796,432,21,0
1101,559,124,0
840,605,364,0
782,444,415,0
1216,518,378,0
1113,390,340,0
940,373,306,0
794,428,253,0
643,404,116,0
546,485,77,0
510,569,94,0
487,544,95,0
450,479,152,0
698,554,237,0
885,452,92,0
1213,525,173,0
1307,610,103,0
1297,365,35,0
1446,490,132,0
1171,494,123,0
786,237,182,0
567,240,131,0
478,228,72,0
427,144,-13,0
569,298,47,0
742,368,64,0
888,358,18,0
1036,427,-27,0
972,378,-77,0
753,200,-89,0
1668,338,-343,0
1401,639,247,0
1314,268,696,0
1644,-857,82,0
838,-233,429,0
520,212,436,0
697,279,251,0
795,431,230,0
797,499,368,0
588,340,348,0
357,423,330,0
552,398,239,0
886,609,410,0
1469,971,283,0
1979,1020,95,0
1977,755,242,0
1462,647,294,0
1059,610,335,0
1016,427,251,0
1004,169,121,0
980,147,125,0
942,197,147,0
749,70,120,0
546,-53,15,0
688,312,-132,0
487,443,100,0
861,740,441,0
1887,1200,253,0
1749,726,390,0
1432,512,595,0
1040,410,384,0
711,747,360,0
566,936,471,0
398,918,430,0
424,624,308,0
618,570,114,0
751,748,87,0
1371,958,83,0
1605,714,-25,0
1994,687,-2,0
1793,811,-65,0
1310,756,145,0
930,468,311,0
756,306,378,0
555,166,449,0
390,84,410,0
358,102,304,0
399,194,215,0
331,293,137,0
332,280,49,0
830,566,-83,0
1000,637,163,0
1701,1077,264,0
1959,1422,-43,0
1176,953,-50,0
360,688,231,0
428,242,443,0
594,578,356,0
566,852,362,0
522,545,473,0
758,291,218,0
888,236,32,0
1029,579,-5,0
1321,952,-13,0
1195,724,-22,0
1559,725,141,0
1336,574,69,0
868,383,259,0
709,460,344,0
711,450,286,0
754,430,205,0
841,429,204,0
950,288,109,0
956,123,-94,0
811,69,-352,0
652,666,-309,0
573,987,-483,0
338,913,-174,0
821,936,-117,0
879,865,-395,0
716,625,-146,0
645,416,-84,0
664,458,-19,0
756,612,1,0
698,743,35,0
558,751,153,0
501,709,202,0
779,616,77,0
904,612,-14,0
1415,852,-88,0
1069,734,-153,0
1241,691,-36,0
1377,788,-47,0
1157,594,-19,0
978,524,108,0
912,461,140,0
984,352,26,0
951,352,-52,0
744,539,-16,0
680,429,-42,0
680,294,-97,0
631,212,-104,0
603,242,35,0
905,400,30,0
819,573,119,0
1023,656,452,0
1634,804,270,0
1326,630,47,0
855,484,152,0
729,565,110,0
670,635,112,0
665,626,174,0
588,632,157,0
520,585,132,0
530,570,133,0
685,586,90,0
916,555,-39,0
978,587,6,0
1473,765,69,0
1218,717,11,0
1057,633,160,0
1357,738,213,0
1264,669,97,0
968,424,138,0
725,408,236,0
631,416,197,0
552,410,200,0
494,395,171,0
438,374,133,0
466,398,59,0
584,501,-4,0
731,633,-32,0
897,704,-37,0
1231,808,-65,0
916,802,137,0
1027,671,160,0
1216,721,82,0
975,551,168,0
740,530,225,0
596,468,173,0
537,414,161,0
505,424,135,0
427,391,130,0
521,528,68,0
986,505,248,0
1272,420,364,0
1129,233,277,0
1139,346,279,0
1080,604,78,0
1056,846,-100,0
1237,896,-62,0
1333,528,-128,0
1392,392,-5,0
1124,494,94,0
927,491,34,0
695,467,-46,0
499,354,-28,0
337,307,-20,0
332,430,18,0
509,560,70,0
634,682,9,0
855,717,79,0
936,597,95,0
784,538,22,0
733,686,111,0
701,536,72,0
561,266,94,0
910,261,-104,0
767,534,-152,0
635,599,253,0
1091,640,258,0
1178,678,173,0
1147,370,157,0
984,479,158,0
849,617,142,0
766,755,161,0
719,765,155,0
647,596,186,0
475,468,255,0
552,438,199,0
672,419,-3,0
491,288,-55,0
887,514,89,0
1635,519,-35,0
1713,618,170,0
1866,749,268,0
1650,568,183,0
1131,287,207,0
926,248,192,0
843,256,76,0
716,220,-42,0
613,250,-30,0
618,281,0,0
688,241,-51,0
715,210,-93,0
569,285,-48,0
624,357,-11,0
773,472,-60,0
751,622,225,0
1128,945,562,0
1636,1049,318,0
1277,543,117,0
881,209,350,0
735,350,341,0
686,526,231,0
618,571,208,0
509,625,208,0
460,621,261,0
443,534,337,0
660,502,236,0
768,443,37,0
690,538,-6,0
1198,836,16,0
1314,796,-176,0
1210,674,-107,0
1516,961,-3,0
1318,767,-34,0
913,379,-26,0
762,405,62,0
730,438,43,0
714,419,55,0
723,402,69,0
686,275,22,0
703,293,92,0
724,235,17,0
833,422,18,0
942,652,209,0
838,734,451,0
1067,550,300,0
1428,296,172,0
1255,340,63,0
967,583,-4,0
774,747,-41,0
759,677,-72,0
704,574,-29,0
592,512,-11,0
498,553,80,0
454,538,119,0
565,431,-4,0
640,551,-52,0
1460,1127,95,0
1475,890,-94,0
1474,565,-67,0
1630,607,40,0
1271,649,26,0
978,441,51,0
874,376,0,0
798,319,-12,0
688,255,27,0
677,226,33,0
658,226,27,0
766,276,-11,0
648,224,-79,0
592,313,2,0
707,473,50,0
873,590,147,0
1160,715,309,0
1611,814,171,0
1529,684,45,0
1091,410,97,0
759,430,253,0
696,559,218,0
619,696,298,0
487,542,276,0
305,621,210,0
408,729,187,0
552,707,56,0
1173,735,9,0
1621,766,-160,0
1460,637,-105,0
1577,602,-133,0
1383,633,-41,0
1046,542,71,0
885,428,59,0
871,330,82,0
795,272,146,0
678,215,133,0
564,220,104,0
556,246,92,0
599,269,63,0
612,349,49,0
648,422,123,0
1074,531,135,0
1381,898,303,0
1047,779,517,0
1485,447,211,0
1216,363,95,0
817,379,173,0
715,463,134,0
718,691,21,0
580,616,154,0
435,530,182,0
383,531,203,0
507,592,216,0
690,526,135,0
646,427,26,0
1032,629,57,0
1348,874,-22,0
1371,813,-115,0
1195,679,-57,0
1181,693,0,0
1077,546,1,0
957,381,21,0
909,387,46,0
890,477,49,0
785,448,36,0
643,322,-9,0
499,283,11,0
493,292,-13,0
505,299,-101,0
515,436,52,0
751,540,143,0
1112,628,64,0
1183,628,162,0
1478,743,229,0
1414,701,112,0
875,511,171,0
674,480,113,0
618,543,149,0
473,554,212,0
295,559,279,0
400,530,283,0
531,470,171,0
753,496,43,0
1820,882,-16,0
1524,554,-285,0
1480,535,-144,0
1511,838,-154,0
1176,616,-103,0
958,510,17,0
944,400,23,0
912,317,57,0
810,278,83,0
627,244,69,0
554,201,36,0
466,158,-11,0
348,260,56,0
629,393,110,0
967,446,10,0
979,556,195,0
1829,816,185,0
1647,746,-7,0
1171,351,94,0
893,550,177,0
673,617,72,0
586,634,79,0
500,616,86,0
429,626,113,0
384,674,187,0
557,592,113,0
908,732,70,0
1669,789,-29,0
1499,578,-146,0
1653,631,-107,0
1556,787,-137,0
1294,512,-138,0
1070,390,-92,0
988,344,-82,0
864,292,-2,0
702,239,-30,0
577,220,40,0
397,134,66,0
316,162,-38,0
189,359,56,0
520,518,81,0
877,705,273,0
1038,634,370,0
1526,758,256,0
1632,848,110,0
1212,713,106,0
739,571,197,0
605,620,144,0
617,581,121,0
539,491,139,0
365,474,148,0
322,579,184,0
419,464,144,0
612,428,102,0
1295,712,64,0
1559,678,-114,0
1456,572,-110,0
1457,781,-45,0
1289,664,-26,0
1006,508,30,0
812,357,114,0
704,321,112,0
611,403,122,0
549,379,84,0
585,364,96,0
681,344,32,0
681,466,101,0
861,366,82,0
884,397,126,0
698,556,407,0
1272,556,213,0
1344,576,133,0
1089,408,205,0
942,575,204,0
733,550,100,0
611,515,69,0
583,512,77,0
531,514,81,0
480,565,159,0
588,568,202,0
735,526,66,0
947,649,72,0
1335,851,111,0
1034,646,-15,0
1299,645,37,0
1565,737,31,0
1350,561,17,0
1032,462,58,0
835,441,71,0
730,394,63,0
649,386,-2,0
553,358,-7,0
505,294,-3,0
562,392,0,0
605,340,-17,0
569,331,-11,0
833,481,177,0
1129,507,86,0
920,522,245,0
1126,461,395,0
1366,553,332,0
1108,559,228,0
886,467,197,0
793,529,118,0
732,525,80,0
667,549,135,0
517,451,122,0
460,530,177,0
609,599,193,0
700,536,87,0
1100,682,66,0
1179,768,33,0
1155,621,-10,0
1561,776,-26,0
1385,758,37,0
1221,601,97,0
1063,440,65,0
919,263,21,0
807,290,48,0
710,307,29,0
616,247,11,0
583,202,-8,0
598,257,-73,0
499,273,-88,0
570,343,-4,0
851,624,111,0
982,636,284,0
1359,781,397,0
1429,750,400,0
1188,434,332,0
841,558,291,0
679,621,245,0
600,572,182,0
532,542,165,0
535,515,218,0
491,381,201,0
471,404,199,0
566,444,184,0
679,417,76,0
589,439,56,0
934,582,120,0
1451,843,30,0
1497,885,-27,0
1448,605,134,0
1327,810,247,0
1028,625,256,0
849,452,292,0
772,433,277,0
696,373,228,0
552,323,186,0
437,334,107,0
378,322,40,0
409,363,-12,0
504,455,40,0
893,623,143,0
1235,803,196,0
905,539,331,0
1328,611,325,0
1255,679,178,0
871,427,184,0
643,487,197,0
566,553,159,0
516,505,153,0
514,504,157,0
488,483,192,0
485,492,245,0
680,542,206,0
681,481,89,0
1043,652,116,0
1329,847,98,0
1151,555,-64,0
1376,791,93,0
1312,691,19,0
1001,463,29,0
784,432,47,0
678,381,53,0
628,367,66,0
551,345,69,0
597,363,4,0
720,337,-12,0
815,369,-71,0
876,421,-42,0
1103,609,29,0
757,579,226,0
875,475,253,0
1419,681,170,0
1137,477,130,0
953,519,183,0
690,584,160,0
513,506,122,0
484,496,139,0
411,456,124,0
354,465,175,0
442,446,168,0
620,509,43,0
766,417,-51,0
1325,722,-14,0
1410,567,-148,0
1539,748,-71,0
1488,707,-104,0
1160,527,-83,0
849,476,-13,0
741,411,-15,0
672,381,-15,0
561,350,-11,0
550,329,-40,0
674,339,-63,0
785,277,-188,0
772,348,-151,0
1020,519,-99,0
925,567,14,0
735,534,143,0
1260,676,72,0
1202,573,103,0
1017,573,124,0
801,604,149,0
570,523,154,0
461,513,180,0
473,548,140,0
449,538,154,0
415,524,223,0
636,561,207,0
798,465,4,0
1253,645,-11,0
1229,738,-32,0
1197,616,-85,0
1408,733,-58,0
1300,601,-76,0
1067,450,-78,0
824,379,-44,0
685,315,31,0
622,376,55,0
567,342,33,0
534,352,-14,0
589,335,-39,0
663,405,-100,0
654,487,53,0
941,535,70,0
1032,700,165,0
1026,648,277,0
1370,774,257,0
1139,700,229,0
895,560,203,0
671,550,178,0
518,510,108,0
457,479,86,0
440,434,89,0
481,459,110,0
527,425,88,0
685,482,100,0
757,548,53,0
939,593,84,0
1174,749,125,0
1064,555,-9,0
1418,726,93,0
1399,742,67,0
1115,505,98,0
880,471,126,0
729,395,113,0
589,368,92,0
480,397,71,0
449,379,14,0
495,390,-37,0
620,392,-49,0
644,432,15,0
1061,582,15,0
1182,731,96,0
950,529,233,0
1360,609,193,0
1222,657,162,0
899,430,164,0
671,463,156,0
522,463,158,0
479,401,143,0
437,443,157,0
385,448,169,0
374,498,204,0
580,664,72,0
615,649,-70,0
1048,788,-53,0
1539,1068,-204,0
1367,792,-278,0
1330,694,-66,0
1064,707,-91,0
780,562,38,0
623,474,53,0
579,413,51,0
528,400,4,0
569,381,-56,0
627,456,-97,0
659,470,-118,0
1029,545,-133,0
927,919,57,0
639,757,93,0
1323,702,-74,0
1248,882,0,0
1020,538,78,0
814,414,88,0
562,493,110,0
413,414,106,0
344,341,88,0
401,336,-38,0
364,923,-49,0
557,898,-234,0
618,856,-331,0
599,816,-348,0
852,983,-355,0
906,657,-357,0
1228,722,-342,0
1192,733,-278,0
977,686,-146,0
791,625,-111,0
642,446,-67,0
532,368,6,0
452,358,46,0
427,288,12,0
491,337,-103,0
635,369,-113,0
852,464,-152,0
1139,671,-81,0
1468,829,-2,0
1013,994,189,0
884,1123,102,0
1251,218,56,0
1056,45,312,0
837,396,331,0
638,386,279,0
523,294,198,0
437,353,211,0
439,419,256,0
464,412,236,0
479,465,213,0
685,585,285,0
895,542,193,0
784,464,101,0
1122,855,154,0
1233,707,-8,0
1206,615,5,0
1267,657,73,0
1117,532,91,0
824,480,163,0
689,411,147,0
717,427,90,0
728,386,91,0
672,351,48,0
599,321,-37,0
634,314,-84,0
577,431,-21,0
678,452,72,0
1069,792,250,0
998,676,323,0
1565,457,167,0
1405,528,219,0
944,385,166,0
687,428,134,0
544,495,83,0
420,460,77,0
383,435,106,0
302,435,160,0
430,459,142,0
660,580,98,0
701,543,21,0
1248,815,97,0
1622,819,-24,0
1486,654,-1,0
1454,751,92,0
1191,609,106,0
836,385,148,0
693,375,128,0
625,358,99,0
477,303,63,0
414,286,35,0
527,294,-7,0
575,309,-86,0
641,374,-28,0
917,616,16,0
934,686,259,0
1294,702,191,0
1339,841,156,0
1127,527,177,0
836,529,207,0
617,622,228,0
525,589,182,0
499,494,208,0
400,451,241,0
371,431,230,0
578,460,128,0
638,382,0,0
1236,608,-16,0
1097,540,-197,0
1263,560,-100,0
1653,911,-116,0
1367,616,-96,0
1029,590,101,0
763,565,148,0
598,374,139,0
543,336,132,0
510,364,100,0
541,346,22,0
588,358,-25,0
674,365,-78,0
674,411,-35,0
1139,571,-6,0
1203,722,53,0
807,555,246,0
1239,521,255,0
1248,704,141,0
1008,383,159,0
776,444,172,0
598,412,138,0
530,299,101,0
515,322,120,0
445,416,132,0
436,524,204,0
593,445,159,0
796,382,52,0
1189,527,50,0
1321,603,21,0
947,422,21,0
1331,640,51,0
1273,664,90,0
1177,558,88,0
1021,454,69,0
850,313,33,0
631,305,45,0
495,341,71,0
510,350,34,0
671,349,-13,0
929,325,-59,0
899,399,-44,0
1097,519,48,0
1010,595,160,0
787,499,269,0
1015,439,337,0
1094,482,305,0
963,323,288,0
895,425,268,0
735,388,251,0
593,379,224,0
539,434,247,0
502,444,242,0
465,439,248,0
461,406,187,0
607,498,208,0
662,513,125,0
1133,561,130,0
1341,631,-59,0
1217,582,6,0
1366,675,66,0
1315,604,-30,0
984,485,103,0
709,490,126,0
628,411,139,0
617,350,117,0
623,377,49,0
678,378,94,0
743,370,20,0
803,426,27,0
750,498,116,0
1062,662,217,0
1250,616,189,0
955,508,255,0
800,532,418,0
1057,496,323,0
929,266,200,0
847,135,82,0
707,229,122,0
582,249,139,0
622,313,191,0
650,382,271,0
554,379,326,0
461,412,398,0
603,400,346,0
767,400,158,0
1271,642,143,0
1143,633,-25,0
914,621,96,0
1418,665,-60,0
1487,651,-134,0
1166,399,-57,0
951,375,41,0
838,366,59,0
693,327,81,0
576,347,114,0
527,339,84,0
626,354,74,0
704,438,77,0
704,400,2,0
1123,605,61,0
1011,605,259,0
1050,300,251,0
1401,483,355,0
1075,483,401,0
822,405,278,0
627,464,280,0
455,406,241,0
414,409,203,0
363,466,206,0
249,498,296,0
430,497,314,0
737,436,76,0
1534,743,42,0
1507,723,-29,0
1266,540,-59,0
1381,603,-34,0
1255,702,24,0
968,534,133,0
688,315,168,0
518,339,233,0
538,378,232,0
570,380,168,0
550,379,140,0
602,450,165,0
658,416,164,0
849,440,205,0
1363,813,427,0
1015,798,926,0
1201,323,751,0
1183,328,598,0
975,243,394,0
731,402,172,0
589,446,246,0
832,304,361,0
758,115,61,0
312,408,-219,0
35,884,26,0
297,901,-222,0
398,436,-332,0
88,218,-399,0
-5,340,-550,0
454,452,-881,0
958,823,-1276,0
1039,1503,-1379,0
742,1911,-999,0
454,1507,-451,0
154,1434,50,0
107,597,262,0
11,74,171,0
44,64,421,0
-36,96,420,0
68,-298,127,0
188,-381,213,0
469,-195,130,0
782,27,311,0
1244,559,671,0
1959,1056,761,0
1998,793,599,0
1998,471,180,0
1895,830,167,0
1386,1167,90,0
878,1139,110,0
560,852,297,0
698,758,-7,0
815,1025,-270,0
521,1037,-57,0
622,1105,-140,0
1041,1090,-279,0
1502,905,-247,0
1964,996,-217,0
1969,565,-101,0
1706,520,82,0
1636,660,145,0
1587,620,156,0
1434,311,137,0
983,170,140,0
637,116,63,0
366,-6,34,0
155,1,22,0
27,80,98,0
253,248,293,0
466,518,804,0
877,133,805,0
1628,-276,642,0
1988,295,627,0
1998,668,104,0
1984,1217,-102,0
1308,1521,-353,0
613,1026,-194,0
570,491,-120,0
326,685,-399,0
244,771,-682,0
502,685,-865,0
1295,996,-819,0
1277,1060,-267,0
1907,1488,-267,0
1998,1562,-209,0
1997,1134,-226,0
1986,569,-60,0
1673,146,-6,0
1242,25,97,0
901,4,81,0
708,18,87,0
611,88,146,0
317,-83,28,0
53,-54,157,0
80,114,224,0
490,384,130,0
809,936,240,0
1381,1396,618,0
1616,1026,258,0
1442,803,432,0
1080,676,257,0
815,703,112,0
667,886,165,0
424,839,123,0
349,750,196,0
530,617,85,0
653,596,-49,0
1142,826,-50,0
1355,914,-110,0
1232,618,-113,0
1484,817,49,0
1305,770,37,0
1065,586,174,0
974,457,180,0
934,320,137,0
841,313,141,0
677,313,107,0
497,267,108,0
437,282,74,0
458,282,-35,0
486,368,-21,0
824,547,-14,0
1120,699,70,0
1126,710,227,0
1320,750,336,0
1197,685,287,0
953,395,205,0
781,423,204,0
647,552,232,0
617,512,199,0
535,545,208,0
431,483,217,0
380,509,216,0
618,476,128,0
729,502,-38,0
1168,787,22,0
1254,808,-55,0
1388,661,-155,0
1454,737,-76,0
1107,612,-41,0
799,564,71,0
704,469,124,0
733,386,75,0
782,347,94,0
750,319,43,0
775,293,33,0
815,314,0,0
827,356,45,0
1054,484,75,0
881,548,188,0
935,469,339,0
1426,716,266,0
1169,603,206,0
945,406,237,0
710,632,294,0
596,645,287,0
606,627,307,0
612,638,344,0
612,621,347,0
659,590,269,0
735,519,270,0
867,492,118,0
1084,643,69,0
1283,727,104,0
1443,565,-46,0
1320,503,-90,0
1315,555,-44,0
1233,505,-82,0
1016,384,-58,0
873,268,12,0
771,209,38,0
667,147,47,0
613,159,60,0
579,237,71,0
569,364,99,0
581,513,137,0
582,553,135,0
548,592,173,0
649,559,144,0
832,595,30,0
1023,713,89,0
1222,887,289,0
1372,888,155,0
1207,643,-11,0
899,633,93,0
627,686,127,0
504,672,192,0
459,622,241,0
419,637,247,0
512,508,251,0
768,526,114,0
815,436,-48,0
810,476,18,0
1300,970,52,0
1402,553,-103,0
1313,512,-112,0
1398,648,-35,0
1081,494,-48,0
884,401,63,0
811,428,88,0
743,402,63,0
626,333,111,0
534,310,153,0
552,336,137,0
556,341,95,0
531,345,84,0
920,518,30,0
786,581,109,0
1051,670,385,0
1611,879,200,0
1396,731,102,0
928,465,272,0
654,558,305,0
533,613,186,0
480,601,160,0
398,526,229,0
361,463,248,0
522,436,158,0
637,434,23,0
867,441,-27,0
1238,648,-48,0
1338,605,-179,0
1521,643,-71,0
1446,752,3,0
1183,603,87,0
902,439,181,0
709,408,248,0
648,388,255,0
625,372,213,0
576,363,146,0
538,342,68,0
577,387,51,0
605,413,-10,0
647,435,27,0
924,588,65,0
1010,740,160,0
1012,639,225,0
1399,684,236,0
1257,655,122,0
883,506,183,0
687,511,183,0
599,527,104,0
519,470,76,0
433,472,124,0
383,467,194,0
458,453,238,0
702,461,166,0
747,429,36,0
1110,574,68,0
1284,747,1,0
1269,578,-83,0
1371,714,38,0
1232,654,40,0
915,475,106,0
673,455,149,0
605,450,139,0
620,390,130,0
608,339,122,0
640,338,58,0
731,375,8,0
839,398,-43,0
769,420,-14,0
962,564,79,0
925,645,171,0
907,454,204,0
1157,736,282,0
1124,681,239,0
933,592,230,0
727,586,212,0
584,488,197,0
519,455,189,0
458,458,217,0
456,458,273,0
546,477,273,0
692,439,216,0
701,379,23,0
680,422,26,0
1109,727,90,0
1162,666,-44,0
1245,600,-9,0
1423,832,120,0
1247,698,101,0
948,494,166,0
724,416,200,0
636,366,163,0
538,319,101,0
447,507,172,0
558,353,71,0
697,414,-44,0
626,377,-56,0
941,506,-22,0
948,612,68,0
774,574,374,0
1304,758,228,0
1236,689,174,0
1011,502,218,0
840,645,234,0
729,484,101,0
625,363,2,0
503,614,265,0
390,403,308,0
354,583,290,0
408,621,197,0
478,659,19,0
599,658,-40,0
1249,819,29,0
1517,899,-196,0
1347,775,36,0
1298,850,18,0
1049,768,54,0
727,594,77,0
715,500,26,0
740,508,66,0
629,417,0,0
485,273,-24,0
444,232,-61,0
495,286,-90,0
524,316,-2,0
888,553,132,0
1088,558,69,0
883,566,249,0
1177,836,378,0
1350,772,240,0
1158,543,111,0
924,552,94,0
645,571,193,0
507,572,161,0
487,531,144,0
408,479,132,0
373,446,147,0
500,487,150,0
664,459,43,0
1018,554,12,0
1245,591,-106,0
1268,619,-111,0
1473,775,-13,0
1296,737,2,0
1082,590,24,0
858,407,6,0
731,380,37,0
654,390,47,0
544,405,37,0
470,272,-48,0
495,282,-58,0
620,352,-74,0
647,335,-97,0
960,464,-80,0
1138,604,-84,0
996,694,149,0
1453,758,104,0
1534,748,48,0
1079,427,252,0
711,480,407,0
611,499,326,0
516,387,242,0
380,300,200,0
293,387,229,0
327,428,241,0
595,416,148,0
688,374,-67,0
1161,770,-147,0
1183,868,-261,0
772,784,-77,0
1201,796,-29,0
1251,823,-284,0
977,708,20,0
760,457,146,0
671,342,270,0
647,300,308,0
597,338,248,0
487,364,164,0
431,326,104,0
550,324,39,0
1284,600,-53,0
1499,676,7,0
801,633,380,0
1200,544,289,0
1179,651,112,0
901,589,171,0
700,590,115,0
605,485,80,0
564,474,114,0
648,501,208,0
500,406,154,0
371,358,169,0
301,412,88,0
457,370,-74,0
1129,620,-102,0
1502,656,-367,0
1724,663,-403,0
1517,842,-276,0
1142,796,-147,0
860,665,-47,0
698,433,39,0
647,336,133,0
638,345,147,0
612,379,104,0
641,335,9,0
708,339,-62,0
769,384,-28,0
967,398,-62,0
1381,614,-27,0
962,518,116,0
1030,627,339,0
1400,641,197,0
1116,457,244,0
722,460,262,0
521,447,210,0
425,383,138,0
404,452,81,0
439,517,57,0
484,501,19,0
551,485,-23,0
721,448,-187,0
656,487,-364,0
954,798,-308,0
1156,953,-410,0
1347,791,-328,0
1411,956,-202,0
1207,927,-93,0
1005,-7,-280,0
587,887,-556,0
270,1263,-72,0
500,553,-203,0
470,461,-247,0
484,503,-218,0
650,322,-405,0
628,130,-488,0
705,98,-250,0
1039,465,-184,0
954,702,127,0
1173,714,212,0
1457,768,4,0
1252,477,77,0
951,484,188,0
688,570,155,0
575,520,235,0
531,372,161,0
482,406,205,0
397,465,251,0
487,570,290,0
677,578,250,0
770,321,12,0
1344,631,55,0
1467,694,-136,0
1570,733,-112,0
1547,745,-30,0
1294,684,-13,0
1105,596,57,0
911,461,-50,0
770,733,-132,0
544,650,-146,0
348,386,-236,0
221,220,-258,0
247,38,-328,0
316,-368,-750,0
221,-93,-953,0
587,90,-890,0
468,-123,-772,0
115,519,-326,0
610,330,-736,0
869,458,-1015,0
962,556,-753,0
742,549,-782,0
421,420,-656,0
304,409,-528,0
384,391,-610,0
438,435,-669,0
632,320,-1135,0
1005,289,-1543,0
845,130,-1243,0
218,-5,-872,0
10,-50,-563,0
302,34,-617,0
848,65,-1011,0
1058,140,-1206,0
1121,-19,-1338,0
777,111,-1358,0
460,175,-1143,0
448,-44,-1288,0
699,-304,-1947,0
618,-158,-991,0
64,92,9,0
-344,343,-39,0
-551,796,-155,0
-716,882,-429,0
-681,134,-445,0
-453,60,256,0
-984,-297,350,0
-644,-138,192,0
-697,146,-259,0
-1020,332,-704,0
-972,903,-622,0
-782,1661,-388,0
-530,573,-739,0
-323,-521,-301,0
-420,-1836,588,0
-622,-194,-697,0
-1173,345,-1121,0
-690,329,-679,0
-993,1186,-61,0
-1082,272,-1187,0
-1668,811,-1789,0
-1516,607,-838,0
-800,-721,-70,0
50,-1574,72,0
-165,-2,-1575,0
-286,1567,-1203,0
-172,1185,366,0
-167,17,-236,0
-211,-470,-398,0
143,-473,188,0
435,304,423,0
803,898,378,0
1499,720,167,0
1997,1367,812,0
1997,1824,620,0
1407,1056,317,0
856,171,345,0
952,179,152,0
914,494,0,0
593,964,49,0
177,475,58,0
-56,546,72,0
233,514,-86,0
668,669,-274,0
1068,732,-282,0
1746,1049,-293,0
1563,907,-69,0
1815,1003,24,0
1763,1090,-109,0
1759,818,-1,0
1626,630,83,0
1437,435,95,0
1012,216,113,0
635,84,130,0
531,25,116,0
403,-53,189,0
277,-100,123,0
300,1,318,0
406,93,629,0
534,167,582,0
1217,434,573,0
1724,332,226,0
1997,710,-108,0
1676,1938,-78,0
95,1241,-76,0
590,-13,291,0
517,724,535,0
507,1198,380,0
658,427,282,0
517,566,206,0
994,932,188,0
1202,882,55,0
1718,763,160,0
1933,644,56,0
1582,741,-40,0
1336,629,13,0
1206,448,47,0
993,193,-36,0
715,-29,-111,0
464,43,25,0
354,62,16,0
369,43,-8,0
339,140,38,0
394,347,149,0
839,309,215,0
1436,370,437,0
1904,389,324,0
1982,1485,205,0
1402,1173,243,0
900,575,73,0
681,542,56,0
658,427,22,0
563,388,-21,0
462,398,-55,0
364,378,21,0
518,345,54,0
714,169,57,0
797,0,-114,0
1053,594,-131,0
1310,1099,227,0
1092,730,423,0
1428,696,242,0
1425,300,159,0
1076,331,404,0
814,239,319,0
713,227,214,0
733,192,206,0
725,243,119,0
675,200,38,0
711,273,-1,0
780,314,-116,0
847,455,-5,0
849,486,92,0
1244,520,122,0
1023,460,162,0
792,443,295,0
1105,477,323,0
1250,442,221,0
1030,369,299,0
871,376,204,0
721,383,218,0
623,412,195,0
609,401,155,0
533,386,196,0
461,355,196,0
635,339,191,0
799,289,98,0
856,273,94,0
1151,450,154,0
1337,318,28,0
1636,452,36,0
1509,459,116,0
1270,405,170,0
1030,315,137,0
759,277,157,0
564,265,135,0
476,330,70,0
471,368,93,0
591,449,17,0
701,450,-5,0
744,497,44,0
740,525,123,0
1093,572,79,0
1279,696,75,0
800,637,282,0
978,642,421,0
1415,495,96,0
1091,127,112,0
837,228,200,0
693,241,124,0
540,264,87,0
517,347,81,0
527,368,69,0
519,394,157,0
635,451,198,0
783,399,88,0
768,400,80,0
1282,714,148,0
1183,552,69,0
1056,537,146,0
1435,698,182,0
1353,497,128,0
1010,370,250,0
801,258,220,0
698,223,206,0
662,160,165,0
671,147,138,0
753,179,124,0
943,226,67,0
812,272,61,0
730,365,121,0
1125,559,51,0
1148,716,219,0
958,868,612,0
1101,469,455,0
1030,98,416,0
882,-34,401,0
818,-43,346,0
779,56,369,0
686,207,320,0
678,166,190,0
707,181,153,0
719,249,207,0
691,448,257,0
723,415,227,0
786,622,250,0
1017,678,183,0
793,606,144,0
1030,824,180,0
1627,903,166,0
1442,583,211,0
1070,461,440,0
1042,538,469,0
1053,474,483,0
896,470,513,0
668,412,443,0
422,261,306,0
305,234,221,0
201,240,178,0
193,317,226,0
582,230,146,0
1174,283,100,0
1395,422,206,0
1479,501,336,0
1720,671,229,0
1316,516,115,0
1105,490,119,0
986,556,85,0
930,656,61,0
834,760,86,0
665,885,171,0
421,873,268,0
382,796,229,0
605,859,105,0
716,792,76,0
1208,1082,35,0
1480,915,-161,0
1905,778,-177,0
1983,703,-93,0
1726,556,-18,0
1391,465,-3,0
1238,466,16,0
1050,373,32,0
849,274,71,0
729,150,59,0
696,30,30,0
589,19,-15,0
532,111,69,0
699,357,105,0
669,495,415,0
946,528,552,0
1555,540,697,0
1850,302,617,0
1808,314,434,0
1367,615,267,0
870,1004,171,0
631,931,156,0
521,887,126,0
378,750,112,0
424,735,76,0
557,684,-92,0
690,619,-86,0
1188,876,-39,0
1179,797,-43,0
1631,847,24,0
1897,1048,83,0
1709,791,193,0
1479,401,341,0
1240,279,518,0
977,94,514,0
719,3,465,0
486,-43,271,0
282,-47,170,0
199,144,185,0
228,209,194,0
449,203,194,0
993,395,273,0
1294,551,358,0
1590,531,459,0
1988,702,291,0
1517,554,231,0
1042,385,282,0
914,518,19,0
724,852,-4,0
539,841,131,0
413,833,193,0
304,751,190,0
597,812,-70,0
665,773,-154,0
1121,860,-40,0
1462,939,-64,0
1673,671,-105,0
1861,757,-6,0
1539,688,30,0
1343,490,63,0
1278,503,62,0
1158,428,69,0
927,124,45,0
639,-164,103,0
543,-118,58,0
511,20,-24,0
542,245,28,0
882,416,37,0
1093,580,126,0
1138,487,434,0
1900,721,325,0
1840,690,165,0
1361,516,210,0
1121,669,206,0
878,750,94,0
656,743,90,0
410,720,84,0
209,687,110,0
330,666,56,0
687,683,-14,0
1150,718,-8,0
1212,572,-78,0
1684,768,-15,0
1592,873,30,0
1296,668,171,0
1037,478,219,0
839,368,194,0
655,178,198,0
483,244,190,0
521,340,179,0
557,302,95,0
599,284,29,0
698,289,11,0
1404,812,-85,0
1278,672,362,0
1877,1218,807,0
1211,817,412,0
853,11,401,0
592,301,403,0
467,460,277,0
453,537,190,0
496,587,219,0
520,541,202,0
623,551,282,0
859,494,103,0
836,547,92,0
1234,803,60,0
1017,722,7,0
1290,679,75,0
1686,790,41,0
1328,602,91,0
909,473,259,0
846,413,243,0
817,396,216,0
795,253,200,0
767,177,152,0
823,207,90,0
769,176,-17,0
739,251,-21,0
798,446,-113,0
652,413,119,0
1496,673,270,0
1601,968,46,0
1235,433,143,0
963,491,269,0
725,570,164,0
661,550,168,0
648,493,199,0
444,468,195,0
368,490,287,0
579,589,305,0
769,536,160,0
1136,672,114,0
1399,846,51,0
1699,712,-102,0
1608,691,-51,0
1385,690,-37,0
1159,582,17,0
1060,448,56,0
953,303,54,0
816,251,97,0
614,138,96,0
450,73,98,0
368,126,7,0
222,181,-7,0
366,265,51,0
788,493,87,0
1200,554,136,0
1953,1221,273,0
1840,891,-206,0
1060,203,-42,0
662,280,357,0
724,754,237,0
781,971,100,0
569,393,196,0
243,160,355,0
266,341,379,0
561,571,298,0
961,604,168,0
1650,887,253,0
1407,734,-128,0
1473,632,-73,0
1185,711,1,0
798,595,122,0
708,406,106,0
815,422,39,0
929,452,26,0
911,336,21,0
810,283,-6,0
672,308,-37,0
550,343,60,0
697,410,98,0
735,486,214,0
674,378,320,0
1347,607,401,0
1476,742,337,0
985,495,361,0
792,441,391,0
714,422,215,0
673,270,290,0
618,296,323,0
493,673,227,0
538,865,212,0
714,520,75,0
676,551,111,0
1236,713,190,0
1379,539,80,0
1660,530,264,0
1703,554,424,0
1253,281,520,0
881,280,536,0
678,212,490,0
599,101,424,0
572,158,317,0
786,144,271,0
1031,91,72,0
617,138,93,0
324,330,319,0
748,494,157,0
966,935,264,0
1110,1196,341,0
1030,1010,267,0
892,935,352,0
742,937,443,0
555,821,431,0
547,782,428,0
542,739,550,0
355,514,638,0
421,272,338,0
471,280,40,0
901,865,-43,0
1406,1062,32,0
1886,649,56,0
1858,244,-96,0
1290,263,45,0
837,623,226,0
580,445,308,0
609,80,264,0
713,83,155,0
705,118,111,0
623,113,140,0
475,158,154,0
478,187,51,0
678,521,186,0
1054,706,722,0
1389,551,534,0
1207,415,258,0
936,329,270,0
741,505,334,0
643,620,310,0
586,572,274,0
461,575,323,0
427,510,239,0
627,536,210,0
710,468,118,0
1468,692,146,0
1738,746,-44,0
1843,711,4,0
1711,832,183,0
1342,628,217,0
996,469,328,0
810,326,327,0
595,204,279,0
472,283,201,0
285,172,212,0
257,145,76,0
178,175,69,0
254,382,173,0
887,609,169,0
1203,607,381,0
1410,905,666,0
1817,1082,258,0
1401,562,107,0
996,629,205,0
753,828,199,0
535,718,160,0
302,451,261,0
90,307,333,0
315,439,168,0
544,457,-42,0
1152,490,-47,0
1372,662,-72,0
1428,499,93,0
1725,738,217,0
1212,392,391,0
950,173,475,0
753,126,486,0
524,121,395,0
271,176,237,0
83,364,100,0
-24,690,-55,0
123,1035,62,0
540,1041,88,0
1071,1488,102,0
814,925,247,0
744,903,281,0
638,929,150,0
333,741,102,0
102,700,130,0
-111,819,110,0
-132,514,141,0
-39,545,219,0
101,618,168,0
180,792,138,0
271,1204,110,0
292,1034,-17,0
491,1093,21,0
646,1251,-13,0
743,1115,-57,0
943,1233,44,0
941,1166,32,0
678,864,75,0
462,629,95,0
376,421,184,0
280,341,236,0
214,227,155,0
242,281,117,0
434,341,38,0
743,423,-1,0
1353,575,-68,0
1549,813,5,0
1118,899,198,0
1547,555,63,0
1548,195,138,0
1173,229,225,0
824,397,122,0
567,545,77,0
469,579,116,0
425,489,148,0
344,458,248,0
436,321,250,0
772,473,312,0
938,380,224,0
1380,517,205,0
1493,455,22,0
1498,422,44,0
1515,432,111,0
1229,139,52,0
920,125,19,0
770,174,-6,0
678,109,-32,0
558,240,63,0
590,146,-117,0
737,73,-62,0
826,233,-99,0
680,257,-94,0
1160,539,-32,0
1064,660,120,0
1213,319,235,0
1586,118,300,0
1120,376,367,0
797,271,341,0
584,346,327,0
493,304,306,0
513,240,330,0
497,316,296,0
550,357,305,0
770,419,299,0
884,378,163,0
1088,500,165,0
1193,625,92,0
1345,667,16,0
1677,841,54,0
1397,638,122,0
1032,402,135,0
950,687,104,0
1240,864,138,0
1957,1656,997,0
1342,1511,1231,0
491,230,559,0
731,16,186,0
599,-144,-169,0
222,-299,-381,0
249,-137,-136,0
155,-155,43,0
-40,-129,215,0
68,224,521,0
261,267,425,0
872,501,418,0
1074,850,329,0
1472,1336,482,0
1283,1826,1273,0
674,1332,1244,0
263,1238,1033,0
123,773,1103,0
-130,527,756,0
-177,644,845,0
-10,801,841,0
71,1157,815,0
334,1376,950,0
524,1637,933,0
441,1423,678,0
321,1060,441,0
192,613,409,0
0,415,570,0
157,-115,707,0
184,-376,529,0
-11,-24,144,0
20,740,777,0
224,874,1452,0
284,759,1324,0
-188,224,1525,0
-521,-262,1311,0
-729,-182,996,0
-726,59,587,0
-694,104,66,0
-524,-69,-271,0
-503,-185,-394,0
-662,-449,-463,0
-836,-949,-429,0
-1007,-1297,-101,0
-1051,-924,25,0
-911,-434,354,0
-564,983,1584,0
-398,923,895,0
73,1712,1240,0
266,1159,1367,0
142,597,1062,0
-48,312,958,0
-84,24,709,0
-46,-180,536,0
-21,-168,263,0
-26,-164,-268,0
-29,94,-522,0
878,1357,57,0
1588,1715,27,0
1870,1632,-652,0
812,1262,405,0
1288,1012,322,0
1324,1020,-128,0
976,785,-212,0
616,273,-114,0
419,325,-76,0
413,404,-136,0
367,416,-212,0
304,600,-103,0
362,892,-67,0
621,811,-408,0
638,840,-236,0
1345,1141,-104,0
1396,917,-401,0
1570,966,-154,0
1431,866,-94,0
1060,740,-15,0
1000,673,105,0
1022,668,99,0
1050,391,5,0
866,192,6,0
683,116,34,0
544,174,38,0
392,220,88,0
435,318,81,0
683,575,-28,0
658,729,88,0
1137,920,436,0
1543,1221,261,0
1253,883,-25,0
925,464,47,0
736,382,128,0
615,517,92,0
493,719,84,0
354,682,56,0
332,700,87,0
226,611,74,0
800,781,108,0
1469,588,-258,0
1815,441,-288,0
1349,709,39,0
1050,852,177,0
843,696,134,0
817,492,122,0
812,275,78,0
718,114,79,0
623,155,2,0
486,291,-1,0
803,523,8,0
1170,1049,137,0
1276,1074,514,0
1474,1048,426,0
884,672,152,0
620,265,238,0
506,310,227,0
527,446,183,0
474,470,155,0
280,417,199,0
294,376,248,0
484,338,86,0
957,447,-55,0
1752,796,-210,0
1533,690,-326,0
1233,756,86,0
1014,831,222,0
672,802,183,0
404,746,266,0
344,722,219,0
418,629,171,0
563,499,121,0
600,542,60,0
568,523,35,0
476,494,59,0
1322,562,-162,0
1280,937,-1,0
1128,844,417,0
1313,428,104,0
891,149,134,0
548,95,219,0
459,311,140,0
502,506,127,0
562,536,174,0
603,476,213,0
555,495,252,0
596,500,246,0
691,517,163,0
647,628,147,0
1007,836,282,0
1068,659,-98,0
1187,664,-3,0
1512,706,-18,0
1383,543,79,0
1089,391,179,0
912,408,178,0
732,478,262,0
569,438,254,0
475,292,160,0
429,296,135,0
450,335,163,0
634,382,105,0
1246,512,-37,0
906,665,213,0
1155,841,537,0
1655,333,-109,0
1095,620,98,0
745,432,240,0
563,476,195,0
484,462,171,0
496,437,186,0
504,465,192,0
508,534,273,0
623,531,258,0
767,464,189,0
693,471,99,0
935,631,117,0
1331,804,16,0
1352,634,8,0
1407,830,101,0
1186,618,63,0
909,488,170,0
819,435,148,0
772,431,138,0
648,392,137,0
508,327,115,0
466,304,147,0
556,298,106,0
514,348,143,0
579,389,133,0
1020,744,232,0
845,721,389,0
1288,475,448,0
1512,201,298,0
1012,254,305,0
778,426,351,0
771,316,327,0
541,-138,190,0
725,521,156,0
302,683,219,0
379,378,247,0
666,360,230,0
949,462,115,0
1585,733,146,0
1194,527,45,0
1188,581,53,0
1331,764,139,0
1133,568,119,0
885,285,157,0
769,367,128,0
667,385,231,0
547,347,123,0
690,434,49,0
714,337,-87,0
696,411,-40,0
871,462,-61,0
1063,754,92,0
698,545,411,0
1366,783,414,0
1233,404,300,0
894,349,344,0
709,585,306,0
610,480,254,0
515,446,246,0
455,368,213,0
463,497,278,0
585,351,236,0
727,329,241,0
1098,520,147,0
1383,668,125,0
1278,650,33,0
1371,755,115,0
1043,650,264,0
781,491,373,0
664,398,384,0
616,347,352,0
545,344,227,0
460,431,163,0
407,473,103,0
461,503,-50,0
655,616,-78,0
747,608,-61,0
926,698,89,0
1222,633,163,0
767,585,342,0
1273,863,249,0
1177,618,162,0
895,637,242,0
668,573,323,0
385,531,339,0
288,478,330,0
315,499,310,0
449,524,183,0
729,729,94,0
728,795,163,0
748,828,90,0
837,815,14,0
1200,861,-45,0
1906,707,-338,0
1858,407,-490,0
1365,431,-277,0
989,355,-245,0
698,344,-32,0
574,199,-74,0
451,288,20,0
389,384,41,0
382,530,87,0
425,610,105,0
503,697,145,0
507,713,108,0
437,684,43,0
359,659,85,0
320,635,156,0
440,625,80,0
644,574,208,0
991,662,399,0
1382,841,397,0
1299,689,343,0
902,450,186,0
686,481,211,0
634,602,182,0
580,405,159,0
509,328,233,0
485,223,232,0
558,239,268,0
804,288,231,0
862,99,40,0
725,747,-89,0
992,703,86,0
1282,890,118,0
1289,587,22,0
1274,751,167,0
1098,737,292,0
793,423,243,0
665,322,290,0
639,379,263,0
582,393,221,0
526,412,160,0
543,414,119,0
731,449,36,0
819,529,-4,0
941,564,91,0
1054,559,108,0
930,531,318,0
995,624,436,0
1228,510,234,0
1016,467,261,0
767,421,202,0
637,482,134,0
573,441,166,0
540,458,175,0
419,479,224,0
386,511,327,0
632,556,294,0
776,482,144,0
1240,715,74,0
1246,791,-5,0
1173,619,85,0
1555,816,52,0
1329,622,31,0
1119,504,124,0
925,376,180,0
813,164,137,0
770,520,60,0
604,225,220,0
479,268,124,0
434,257,116,0
454,280,107,0
421,416,175,0
619,590,301,0
1038,621,244,0
1035,672,387,0
1385,669,494,0
1561,682,213,0
1099,554,228,0
748,450,244,0
601,613,141,0
504,623,120,0
461,562,119,0
398,579,101,0
414,490,113,0
615,569,100,0
696,539,-29,0
1121,793,71,0
1100,522,-35,0
1550,695,74,0
1769,850,-104,0
1400,670,200,0
1004,636,322,0
862,478,367,0
792,320,339,0
674,166,300,0
552,212,243,0
482,229,144,0
502,282,23,0
413,375,62,0
518,458,59,0
904,695,50,0
867,611,208,0
1379,811,189,0
1553,843,180,0
884,675,381,0
596,733,406,0
450,624,330,0
376,539,325,0
377,487,246,0
360,506,176,0
488,462,129,0
689,524,48,0
613,512,-7,0
1213,647,100,0
1615,713,-6,0
1475,686,81,0
1537,800,463,0
1235,694,467,0
843,252,553,0
635,327,569,0
505,335,482,0
371,309,401,0
298,332,293,0
358,339,132,0
473,411,7,0
439,491,-8,0
710,486,132,0
1166,703,198,0
973,537,290,0
1063,596,440,0
1327,745,306,0
1069,545,262,0
889,547,306,0
688,477,238,0
551,478,168,0
480,564,174,0
452,501,174,0
369,519,188,0
527,525,159,0
830,585,75,0
1366,744,21,0
1237,663,-44,0
1324,686,-45,0
1418,630,-131,0
1171,472,-106,0
832,416,-50,0
693,324,-69,0
692,303,-86,0
765,276,-82,0
688,129,-165,0
664,417,-50,0
750,320,-35,0
902,301,-19,0
974,261,27,0
1232,264,-98,0
855,531,192,0
791,414,415,0
1524,546,88,0
1434,438,95,0
1024,316,245,0
774,510,230,0
596,449,287,0
549,352,168,0
595,370,162,0
486,394,243,0
449,423,291,0
538,424,255,0
643,379,155,0
1592,614,146,0
1936,438,-174,0
1616,306,31,0
1545,392,92,0
1331,-62,-18,0
923,61,151,0
764,127,219,0
600,87,219,0
488,121,158,0
503,258,143,0
678,245,98,0
669,324,56,0
1019,576,40,0
1309,690,34,0
907,616,323,0
1371,633,256,0
1185,460,231,0
897,467,238,0
671,495,190,0
513,460,158,0
463,354,143,0
465,303,166,0
475,362,194,0
635,372,268,0
790,331,170,0
1001,306,135,0
1382,468,14,0
1381,750,-102,0
1510,754,20,0
1333,833,210,0
1079,440,91,0
885,346,216,0
791,227,178,0
646,165,190,0
529,264,197,0
503,258,143,0
581,286,72,0
592,380,36,0
505,461,114,0
944,630,176,0
1125,846,275,0
1206,710,336,0
1416,689,323,0
1061,597,320,0
792,421,355,0
648,334,321,0
542,271,221,0
489,319,191,0
484,331,213,0
472,361,202,0
561,470,229,0
721,423,134,0
1047,506,98,0
1317,698,110,0
1185,470,103,0
1403,708,130,0
1264,613,181,0
1040,353,243,0
872,345,237,0
675,294,195,0
567,329,229,0
480,232,126,0
548,328,106,0
754,289,17,0
778,394,0,0
929,470,69,0
1147,749,180,0
880,575,449,0
1243,601,447,0
1268,350,389,0
994,282,363,0
834,334,285,0
634,234,253,0
505,185,187,0
482,227,206,0
453,189,189,0
474,326,251,0
634,302,250,0
658,91,-14,0
1196,729,5,0
1274,855,16,0
1549,806,160,0
1258,615,112,0
954,511,158,0
760,338,203,0
630,207,227,0
541,166,223,0
482,307,151,0
683,372,79,0
878,342,-53,0
820,402,5,0
990,496,53,0
1115,730,256,0
770,659,535,0
1090,449,495,0
1366,186,244,0
1038,230,195,0
806,110,223,0
640,251,224,0
545,363,185,0
503,461,133,0
403,491,102,0
413,474,174,0
626,529,17,0
759,568,-71,0
1263,777,43,0
1398,821,-73,0
1403,748,-29,0
1542,823,-21,0
1387,800,-83,0
1136,444,12,0
1091,258,55,0
1134,407,48,0
1048,362,75,0
822,253,32,0
623,153,32,0
522,-49,-11,0
440,68,-30,0
504,30,147,0
932,290,98,0
1385,587,38,0
1260,666,303,0
1734,792,337,0
1700,852,162,0
1251,627,325,0
812,525,252,0
735,350,64,0
660,460,79,0
461,482,96,0
308,487,149,0
431,574,137,0
644,703,38,0
648,775,45,0
1210,776,105,0
1913,669,-132,0
1975,547,-28,0
1508,508,118,0
1197,573,246,0
1078,403,233,0
956,161,220,0
755,20,16,0
417,-133,309,0
339,88,212,0
229,6,-12,0
311,117,-63,0
922,434,-278,0
885,1122,120,0
1939,1299,208,0
1703,1173,163,0
1148,474,262,0
781,208,565,0
639,460,471,0
554,565,329,0
478,628,367,0
405,654,359,0
498,397,289,0
746,457,100,0
705,518,-56,0
536,566,-80,0
895,811,-235,0
1602,1260,-240,0
1769,546,-192,0
1970,611,30,0
1585,596,82,0
1202,579,185,0
1032,535,316,0
887,518,219,0
707,135,70,0
508,-117,281,0
405,95,235,0
231,319,301,0
247,440,365,0
351,444,519,0
393,1054,550,0
664,876,774,0
644,424,540,0
651,230,390,0
636,291,325,0
624,443,253,0
755,477,217,0
821,441,236,0
811,461,287,0
799,501,299,0
977,543,177,0
945,512,26,0
1158,753,-32,0
1011,807,-157,0
1227,818,-53,0
1493,852,6,0
1296,668,65,0
970,487,245,0
749,445,246,0
756,305,272,0
790,247,160,0
691,268,147,0
618,267,35,0
570,356,-41,0
551,319,35,0
442,358,34,0
823,569,169,0
1165,640,310,0
1243,449,349,0
1493,561,227,0
1187,536,310,0
949,453,251,0
733,461,201,0
593,313,178,0
520,268,168,0
450,343,153,0
386,397,173,0
462,353,226,0
781,434,217,0
982,404,53,0
1408,735,128,0
1388,618,66,0
1483,569,62,0
1512,624,100,0
1178,410,113,0
820,305,178,0
759,279,132,0
741,278,94,0
637,233,66,0
522,198,39,0
587,233,5,0
654,313,-88,0
647,349,-32,0
918,476,16,0
1107,624,154,0
990,485,153,0
1296,399,37,0
1258,538,140,0
1101,449,192,0
938,540,217,0
736,491,286,0
559,427,297,0
460,478,322,0
425,529,364,0
546,528,280,0
835,442,183,0
1287,553,108,0
1274,575,17,0
1365,480,-103,0
1462,814,-37,0
1195,674,-85,0
852,516,87,0
665,370,110,0
659,317,152,0
721,343,115,0
670,408,51,0
586,484,-7,0
645,491,-81,0
700,674,-57,0
868,913,-172,0
869,1053,-199,0
557,1000,38,0
818,931,-202,0
669,364,-216,0
463,1292,-272,0
118,822,-196,0
50,698,-126,0
41,700,-201,0
139,705,-343,0
383,963,-423,0
722,1143,-453,0
480,1466,-381,0
161,1235,-515,0
-73,642,-670,0
-184,382,-702,0
-259,272,-753,0
-133,158,-913,0
437,142,-1337,0
900,405,-1489,0
768,475,-1073,0
581,387,-846,0
357,523,-649,0
227,457,-475,0
119,497,-358,0
81,492,-525,0
94,601,-555,0
90,631,-772,0
95,676,-688,0
27,645,-647,0
9,583,-649,0
40,671,-640,0
-6,842,-736,0
-7,1106,-720,0
-139,1604,-538,0
-140,889,-806,0
-88,1211,-707,0
-230,985,-623,0
-190,666,-592,0
-221,491,-345,0
-279,476,-264,0
-226,622,-19,0
-267,555,205,0
-414,911,266,0
-318,712,341,0
-181,400,361,0
-246,651,511,0
-426,727,416,0
-747,744,305,0
-757,1049,458,0
-474,1084,431,0
-617,972,194,0
-770,903,95,0
-526,951,250,0
-398,689,168,0
-240,584,-12,0
-252,678,-66,0
-333,820,48,0
-471,762,68,0
-500,747,172,0
-544,792,251,0
-554,976,-38,0
-460,999,-45,0
-410,1181,-113,0
-237,1187,-233,0
-73,1104,-128,0
-81,1039,-179,0
-178,1357,-118,0
-280,1288,-146,0
-257,960,-43,0
-280,581,190,0
-398,323,362,0
-507,651,323,0
-481,417,435,0
-424,245,606,0
-449,371,563,0
-352,185,704,0
-536,333,728,0
-655,356,1115,0
-559,401,1183,0
-415,688,1043,0
-425,459,1409,0
-269,338,1434,0
-202,186,1123,0
-116,96,866,0
-107,22,683,0
-143,-142,646,0
-213,-115,645,0
-227,-20,773,0
-208,34,1011,0
-261,140,1036,0
-172,29,1181,0
-39,17,1418,0
3,-96,1140,0
-105,-137,1219,0
-126,70,1302,0
-103,147,1078,0
-127,359,1046,0
-153,59,854,0
-265,16,753,0
-331,-103,575,0
-359,-5,516,0
-447,194,534,0
-466,228,414,0
-656,157,101,0
-956,960,-561,0
-1070,1423,-497,0
-661,721,-642,0
-791,910,-664,0
-907,1069,-627,0
-641,800,-434,0
-528,843,-236,0
-474,646,-132,0
-455,598,56,0
-550,581,-19,0
-572,713,-37,0
-719,870,-146,0
-846,664,-246,0
-853,811,-125,0
-962,711,-155,0
-962,580,174,0
-828,727,274,0
-774,679,551,0
-811,497,399,0
-793,203,234,0
-760,96,269,0
-773,99,171,0
-779,151,52,0
-858,207,173,0
-871,215,189,0
-913,168,186,0
-846,266,187,0
-886,74,43,0
-1156,136,121,0
-1098,73,-37,0
-1293,115,-257,0
-1361,510,144,0
-1161,572,260,0
-1016,348,161,0
-844,308,279,0
-620,124,115,0
-668,110,-7,0
-604,43,114,0
-972,153,50,0
-1195,330,71,0
-1102,86,-60,0
-1322,160,-21,0
-1255,206,256,0
-1061,-135,220,0
-918,-15,603,0
-974,183,604,0
-886,91,346,0
-872,95,254,0
-869,121,282,0
-881,37,51,0
-895,-96,125,0
-973,-65,101,0
-983,64,164,0
-889,140,146,0
-777,157,93,0
-771,153,186,0
-944,205,242,0
-832,-42,83,0
-1119,-108,-11,0
-1301,71,155,0
-1241,175,530,0
-1157,163,638,0
-1212,124,653,0
-1071,-423,335,0
-732,-289,638,0
-724,-165,476,0
-769,162,19,0
-751,202,-117,0
-626,228,-255,0
-610,173,-352,0
-582,183,-198,0
-434,265,800,0
-830,429,1755,0
-783,247,1294,0
176,-1011,1196,0
115,-682,1134,0
284,531,855,0
69,729,311,0
-211,911,-216,0
-395,1055,-465,0
-451,1114,-537,0
-495,846,-630,0
-397,661,-795,0
-263,528,-924,0
-326,419,-1233,0
172,409,-602,0
-236,341,-1641,0
-422,418,-1667,0
-237,565,-1407,0
-163,516,-1060,0
-174,449,-869,0
-107,369,-460,0
-56,422,-216,0
-36,411,-184,0
-177,321,-353,0
-341,278,-656,0
-553,400,-893,0
-642,615,-759,0
-424,559,-1188,0
102,1352,-711,0
141,1055,-448,0
-134,1119,-825,0
-261,1144,-797,0
-182,642,-443,0
-186,735,-170,0
104,367,164,0
59,375,112,0
-147,1039,106,0
-176,546,-355,0
-310,125,-217,0
-476,544,-225,0
-689,1136,-393,0
-631,1763,-589,0
-564,1521,-717,0
-591,1653,-931,0
-193,1300,-604,0
45,1091,8,0
-79,559,164,0
101,353,186,0
25,722,330,0
0,640,248,0
18,554,197,0
-46,751,171,0
-161,887,166,0
-329,1169,203,0
-361,1406,404,0
-280,1226,595,0
-300,1315,760,0
-176,1129,816,0
-262,1506,760,0
-166,937,353,0
-173,497,188,0
-198,294,149,0
-243,174,256,0
-282,197,376,0
-389,248,355,0
-385,314,404,0
-328,376,471,0
-390,596,502,0
-430,708,740,0
-341,892,878,0
-833,930,1048,0
-641,1348,1211,0
-305,1122,1024,0
-153,622,979,0
-122,420,889,0
-164,245,680,0
-126,252,497,0
-36,209,564,0
33,120,566,0
-89,160,702,0
-65,219,788,0
-90,600,1226,0
96,578,1657,0
133,581,1235,0
111,475,957,0
-24,531,1282,0
-95,706,1162,0
-103,588,867,0
-157,350,766,0
-80,327,618,0
-29,260,648,0
-234,344,540,0
-478,156,398,0
-604,128,359,0
-766,440,378,0
-828,811,604,0
-607,1591,765,0
-420,1940,608,0
-326,1202,378,0
-297,978,798,0
-142,366,999,0
-234,302,762,0
-339,467,523,0
-291,475,210,0
-322,570,137,0
-363,685,111,0
-260,1108,53,0
-142,752,28,0
43,324,231,0
-147,596,651,0
-392,1383,632,0
-326,1803,686,0
-495,1363,1141,0
-294,401,809,0
-281,209,376,0
-431,443,222,0
-526,529,120,0
-644,486,-69,0
-865,423,-234,0
-1036,877,-99,0
-678,1839,334,0
-250,1396,557,0
-131,909,577,0
140,735,458,0
253,779,498,0
214,712,474,0
340,564,402,0
552,449,360,0
954,539,390,0
1195,446,268,0
1105,178,112,0
1142,68,-71,0
1375,438,254,0
1611,608,214,0
1815,694,91,0
1568,615,159,0
1339,661,66,0
958,588,44,0
588,517,86,0
215,637,183,0
-148,442,50,0
-91,595,-479,0
880,1068,-778,0
1712,764,-474,0
1480,710,174,0
1252,1017,655,0
1400,464,467,0
1378,-149,448,0
1262,-203,267,0
1151,283,316,0
615,378,392,0
189,-137,189,0
623,-400,-237,0
1062,-257,-320,0
1933,-241,-416,0
1733,637,309,0
1050,686,762,0
592,526,616,0
498,257,758,0
411,112,722,0
254,490,216,0
-117,1262,-482,0
-212,1668,-99,0
1523,1312,-825,0
1997,1326,-1210,0
1983,642,-856,0
1417,569,-247,0
1088,655,-74,0
1019,549,-244,0
859,272,-153,0
639,376,18,0
546,570,6,0
769,242,88,0
816,-203,319,0
774,-33,-272,0
397,438,-339,0
918,1152,90,0
1682,630,-360,0
1575,818,-390,0
1404,796,-252,0
1182,989,-337,0
936,796,-241,0
780,616,-33,0
619,738,-18,0
668,842,-215,0
767,942,-374,0
1317,1151,-362,0
1085,843,-201,0
1177,613,-277,0
1435,664,-377,0
1149,540,-150,0
1108,432,103,0
1208,399,160,0
1204,331,134,0
1057,215,219,0
836,161,81,0
663,216,72,0
585,219,80,0
512,353,78,0
648,385,125,0
789,438,249,0
861,436,375,0
1376,488,444,0
1809,702,263,0
1289,628,173,0
869,437,193,0
795,499,106,0
784,652,50,0
722,693,95,0
553,670,214,0
461,530,182,0
764,574,63,0
880,620,-58,0
1249,792,-6,0
1258,787,-21,0
1129,624,16,0
1193,713,122,0
1113,780,162,0
1020,545,112,0
959,282,102,0
912,241,105,0
793,284,57,0
648,251,33,0
559,142,13,0
711,227,-43,0
718,371,-58,0
716,356,22,0
984,432,-34,0
1102,508,9,0
1429,610,94,0
1490,883,170,0
1204,758,216,0
961,655,322,0
754,622,308,0
558,616,234,0
342,663,244,0
265,618,153,0
66,560,109,0
1864,702,-474,0
1778,444,-143,0
1479,438,133,0
978,774,6,0
768,90,50,0
585,-235,128,0
564,-225,87,0
853,-202,178,0
1221,-193,108,0
1570,51,-131,0
1139,406,223,0
1292,664,702,0
1356,540,464,0
1241,359,258,0
1044,-245,354,0
794,-8,381,0
660,319,364,0
584,542,439,0
672,587,419,0
659,437,367,0
581,287,301,0
594,244,142,0
997,433,220,0
1962,419,-355,0
1994,-77,-786,0
1736,2,-213,0
1605,587,140,0
1349,10,129,0
865,-52,56,0
552,36,178,0
419,173,301,0
388,176,348,0
447,133,335,0
581,329,354,0
803,999,307,0
766,683,210,0
471,465,241,0
502,445,168,0
496,476,-58,0
572,702,-270,0
538,625,-188,0
650,821,330,0
752,902,644,0
849,703,21,0
811,921,-41,0
534,762,213,0
350,393,233,0
394,480,252,0
