AccX [mg],AccY,AccZ,Ground Truth
-781,746,-623,-1
-766,781,-535,-1
-690,730,-475,-1
-648,635,-470,-1
-613,624,-466,-1
-593,618,-426,-1
-606,701,-348,-1
-632,697,-292,-1
-664,597,-258,-1
-680,549,-258,-1
-688,508,-236,-1
-694,479,-250,-1
-682,504,-239,-1
-688,604,-266,-1
-660,801,-458,-1
-460,839,-560,-1
-312,1034,-484,-1
-420,1092,-329,-1
-599,877,-341,-1
-682,815,-332,-1
-557,660,-257,-1
-480,573,-238,-1
-471,601,-243,-1
-514,679,-241,-1
-567,824,-196,-1
-556,974,-92,-1
-495,955,-51,-1
-423,816,-10,-1
-396,766,27,-1
-415,771,54,-1
-473,795,52,-1
-539,895,63,-1
-646,940,61,-1
-727,966,45,-1
-764,974,-124,-1
-776,815,-428,-1
-690,686,-500,-1
-563,903,-135,-1
-523,945,-91,-1
-412,850,-125,-1
-297,670,-53,-1
-289,553,-48,-1
-330,573,-51,-1
-404,605,-38,-1
-484,778,-35,-1
-561,921,-53,-1
-619,967,-124,-1
-621,982,-126,-1
-631,1022,-15,-1
-622,1082,26,-1
-635,905,-200,-1
-581,752,-363,-1
-393,877,-253,-1
-368,936,-159,-1
-522,915,-130,-1
-589,837,-121,-1
-449,727,-37,-1
-288,646,25,-1
-252,675,76,-1
-328,643,48,-1
-415,756,-27,-1
-466,855,-30,-1
-533,1081,6,-1
-606,1197,53,-1
-649,1239,5,-1
-709,1036,-301,-1
-806,630,-352,-1
-846,795,-178,-1
-722,852,-102,-1
-475,722,-108,-1
-359,542,-34,-1
-360,422,-36,-1
-369,408,-30,-1
-442,625,-26,-1
-595,853,-79,-1
-643,903,-45,-1
-661,982,-56,-1
-596,945,-57,-1
-577,958,37,-1
-587,976,99,-1
-653,928,-254,-1
-553,756,-431,-1
-376,1019,-275,-1
-386,1048,-178,-1
-522,883,-129,-1
-528,823,-90,-1
-374,694,-50,-1
-259,642,-48,-1
-269,644,-5,-1
-351,715,2,-1
-446,775,-50,-1
-504,861,-98,-1
-580,992,-126,-1
-614,1100,-124,-1
-684,1226,-322,-1
-812,961,-471,-1
-914,881,-284,-1
-819,802,-327,-1
-591,600,-211,-1
-359,662,-188,-1
-519,322,20,-1
-469,404,3,-1
-425,284,-11,-1
-437,643,-97,-1
-750,1052,-106,-1
-759,840,149,-1
-659,835,-51,-1
-678,867,-31,-1
-713,966,-107,-1
-850,1118,-313,-1
-408,986,-279,-1
-429,871,-293,-1
-489,764,-188,-1
-467,641,-123,-1
-398,536,-98,-1
-330,622,-98,-1
-374,566,-58,-1
-458,713,-65,-1
-546,786,-87,-1
-610,907,-135,-1
-672,944,-205,-1
-657,1019,-102,-1
-636,1062,-85,-1
-842,966,-364,-1
-966,567,-441,-1
-816,796,-219,-1
-615,768,-127,-1
-524,590,-102,-1
-493,497,-80,-1
-489,409,-68,-1
-474,447,-40,-1
-511,594,-20,-1
-640,732,-80,-1
-704,730,-93,-1
-736,912,-79,-1
-736,965,-60,-1
-766,1006,-14,-1
-775,1004,-378,-1
-584,753,-473,-1
-372,946,-219,-1
-451,978,-161,-1
-558,778,-165,-1
-505,671,-118,-1
-428,524,-52,-1
-359,584,-75,-1
-402,649,-59,-1
-459,702,-67,-1
-524,779,-69,-1
-603,853,-128,-1
-652,912,-153,-1
-704,1070,-10,-1
-873,1177,-299,-1
-859,959,-408,-1
-843,805,-252,-1
-749,714,-268,-1
-590,569,-154,-1
-447,512,-108,-1
-370,444,-83,-1
-408,473,-126,-1
-481,490,-103,-1
-500,621,-58,-1
-616,714,-30,-1
-692,817,-48,-1
-757,899,-199,-1
-730,910,-130,-1
-847,1223,-484,-1
-674,823,-755,-1
-491,1199,-285,-1
-635,1233,-145,-1
-653,753,-192,-1
-466,517,-110,-1
-372,358,-4,-1
-243,336,-47,-1
-325,394,-69,-1
-436,621,-51,-1
-580,757,-110,-1
-821,929,-191,-1
-794,1024,-157,-1
-846,1156,-128,-1
-914,1089,-509,-1
-819,654,-521,-1
-780,923,-313,-1
-706,697,-281,-1
-518,551,-209,-1
-404,443,-154,-1
-343,405,-124,-1
-376,381,-142,-1
-442,493,-150,-1
-533,710,-159,-1
-689,853,-203,-1
-782,979,-244,-1
-786,956,-275,-1
-850,1048,-429,-1
-785,786,-727,-1
-492,926,-581,-1
-536,1110,-435,-1
-611,900,-316,-1
-516,650,-228,-1
-337,337,-73,-1
-272,243,-30,-1
-223,391,-22,-1
-347,629,-113,-1
-584,843,-133,-1
-708,932,-224,-1
-803,1045,-246,-1
-871,1043,-114,-1
-819,986,-355,-1
-968,800,-644,-1
-861,710,-462,-1
-811,822,-262,-1
-587,589,-208,-1
-454,435,-125,-1
-326,360,-97,-1
-317,347,-105,-1
-402,428,-97,-1
-557,707,-126,-1
-681,846,-125,-1
-744,1007,-148,-1
-801,960,-174,-1
-928,1102,-205,-1
-873,988,-647,-1
-422,800,-443,-1
-526,1173,-266,-1
-646,826,-309,-1
-576,649,-171,-1
-368,487,-73,-1
-302,345,-43,-1
-277,443,-61,-1
-350,529,-67,-1
-512,744,-90,-1
-643,824,-160,-1
-760,998,-203,-1
-849,1126,-139,-1
-919,1295,-364,-1
-878,838,-608,-1
-816,781,-355,-1
-777,748,-257,-1
-601,562,-193,-1
-442,492,-134,-1
-370,437,-105,-1
-302,349,-99,-1
-402,452,-94,-1
-499,590,-109,-1
-692,714,-108,-1
-801,928,-135,-1
-801,972,-200,-1
-815,1012,-206,-1
-896,1116,-613,-1
-439,807,-641,-1
-366,1141,-443,-1
-583,1018,-292,-1
-566,673,-241,-1
-353,531,-130,-1
-296,439,-47,-1
-276,384,-84,-1
-367,504,-127,-1
-499,646,-148,-1
-629,875,-224,-1
-822,974,-274,-1
-861,1049,-202,-1
-925,1104,-431,-1
-1001,843,-738,-1
-936,683,-551,-1
-767,610,-426,-1
-597,548,-228,-1
-396,439,-167,-1
-294,345,-138,-1
-296,310,-132,-1
-394,389,-196,-1
-541,606,-189,-1
-687,822,-174,-1
-772,993,-210,-1
-796,1036,-278,-1
-766,1024,-261,-1
-707,1142,-707,-1
-752,640,-680,-1
-457,1024,-474,-1
-679,994,-422,-1
-646,719,-250,-1
-432,499,-114,-1
-253,304,-78,-1
-205,318,-60,-1
-288,528,-66,-1
-440,661,-55,-1
-640,797,-145,-1
-777,912,-186,-1
-778,1119,-104,-1
-866,1211,-142,-1
-1028,1109,-614,-1
-930,668,-455,-1
-752,845,-201,-1
-619,739,-94,-1
-460,483,-12,-1
-402,374,-45,-1
-352,322,-23,-1
-358,348,6,-1
-443,590,43,-1
-571,788,34,-1
-687,917,-2,-1
-812,1050,-98,-1
-872,1034,-68,-1
-950,1162,-462,-1
-728,794,-645,-1
-486,1093,-387,-1
-638,1104,-281,-1
-680,782,-201,-1
-474,441,-114,-1
-270,322,-37,-1
-202,271,-24,-1
-270,384,-10,-1
-459,596,-41,-1
-690,859,-116,-1
-860,1079,-170,-1
-832,1146,-88,-1
-877,1108,-170,-1
-984,909,-630,-1
-900,651,-432,-1
-836,848,-311,-1
-703,677,-211,-1
-533,431,-145,-1
-385,357,-105,-1
-343,323,-72,-1
-392,334,-98,-1
-557,521,-84,-1
-669,741,-75,-1
-799,887,-100,-1
-825,890,-204,-1
-854,925,-172,-1
-985,1103,-440,-1
-875,750,-718,-1
-553,902,-553,-1
-577,1019,-359,-1
-686,784,-264,-1
-588,477,-166,-1
-358,375,-64,-1
-248,339,-82,-1
-269,366,-84,-1
-412,590,-45,-1
-612,862,-144,-1
-749,851,-183,-1
-820,1059,-226,-1
-865,1173,-103,-1
-988,1047,-505,-1
-924,676,-665,-1
-843,790,-416,-1
-796,703,-290,-1
-561,552,-170,-1
-373,357,-80,-1
-322,337,-76,-1
-369,295,3,-1
-445,480,-158,-1
-612,618,-92,-1
-795,847,-95,-1
-898,993,-175,-1
-924,988,-277,-1
-980,1047,-531,-1
-788,782,-786,-1
-440,942,-435,-1
-531,1017,-395,-1
-622,752,-348,-1
-497,437,-201,-1
-357,386,-102,-1
-291,370,-26,-1
-325,463,-109,-1
-453,575,-111,-1
-584,745,-128,-1
-729,846,-213,-1
-808,945,-238,-1
-909,1171,-116,-1
-1059,1146,-467,-1
-887,753,-612,-1
-820,699,-394,-1
-778,633,-268,-1
-580,479,-142,-1
-399,354,-82,-1
-320,328,-92,-1
-372,251,-61,-1
-491,414,-112,-1
-646,726,-111,-1
-765,771,-98,-1
-868,1008,-157,-1
-947,998,-234,-1
-1047,1044,-514,-1
-835,790,-781,-1
-434,964,-437,-1
-553,1091,-349,-1
-649,705,-280,-1
-496,409,-189,-1
-313,347,-86,-1
-254,333,-45,-1
-310,448,-99,-1
-499,604,-91,-1
-668,717,-167,-1
-768,826,-222,-1
-840,1090,-225,-1
-945,1232,-298,-1
-1044,1005,-762,-1
-891,727,-588,-1
-805,806,-366,-1
-659,590,-219,-1
-423,401,-132,-1
-288,338,-108,-1
-279,296,-111,-1
-360,379,-115,-1
-554,579,-163,-1
-735,763,-148,-1
-838,961,-154,-1
-896,986,-254,-1
-883,989,-208,-1
-942,1056,-647,-1
-460,917,-401,-1
-611,949,-330,-1
-634,646,-242,-1
-438,479,-125,-1
-322,312,4,-1
-248,378,-45,-1
-330,496,-111,-1
-518,675,-130,-1
-672,883,-187,-1
-783,976,-251,-1
-871,1048,-290,-1
-932,1126,-402,-1
-977,890,-723,-1
-870,685,-553,-1
-791,649,-346,-1
-638,472,-248,-1
-448,362,-181,-1
-337,328,-132,-1
-359,356,-130,-1
-484,424,-144,-1
-638,545,-169,-1
-732,727,-169,-1
-833,943,-189,-1
-846,929,-251,-1
-905,925,-245,-1
-961,987,-639,-1
-622,691,-643,-1
-426,995,-367,-1
-617,899,-332,-1
-628,661,-253,-1
-401,469,-143,-1
-260,449,-120,-1
-257,445,-126,-1
-353,572,-145,-1
-493,673,-152,-1
-653,804,-192,-1
-781,928,-296,-1
-840,1071,-228,-1
-1023,1200,-537,-1
-996,781,-770,-1
-817,711,-422,-1
-738,640,-354,-1
-600,450,-204,-1
-432,345,-164,-1
-321,330,-111,-1
-340,345,-132,-1
-464,474,-174,-1
-621,621,-186,-1
-739,774,-187,-1
-842,1003,-225,-1
-853,925,-270,-1
-988,1113,-427,-1
-877,791,-745,-1
-456,811,-507,-1
-442,979,-429,-1
-595,814,-360,-1
-538,526,-218,-1
-359,419,-128,-1
-275,393,-124,-1
-330,468,-145,-1
-493,637,-182,-1
-578,729,-197,-1
-662,856,-253,-1
-776,960,-284,-1
-860,1069,-245,-1
-949,1040,-559,-1
-855,728,-592,-1
-800,656,-440,-1
-760,657,-318,-1
-596,524,-193,-1
-408,397,-126,-1
-353,378,-129,-1
-401,353,-130,-1
-521,438,-164,-1
-619,600,-133,-1
-768,789,-149,-1
-846,935,-212,-1
-896,936,-223,-1
-980,1062,-288,-1
-945,824,-682,-1
-526,751,-529,-1
-437,868,-375,-1
-645,813,-333,-1
-625,626,-210,-1
-406,466,-137,-1
-327,390,-165,-1
-340,420,-152,-1
-469,587,-136,-1
-587,715,-130,-1
-747,810,-238,-1
-829,889,-309,-1
-901,1125,-183,-1
-1010,1072,-456,-1
-923,577,-696,-1
-797,574,-461,-1
-711,670,-314,-1
-569,642,-212,-1
-386,449,-149,-1
-343,395,-149,-1
-415,377,-149,-1
-551,451,-142,-1
-665,679,-114,-1
-795,776,-135,-1
-890,1017,-245,-1
-998,1036,-273,-1
-982,1016,-577,-1
-695,649,-807,-1
-378,847,-504,-1
-538,959,-423,-1
-635,685,-310,-1
-499,407,-179,-1
-318,325,-138,-1
-294,352,-130,-1
-373,513,-154,-1
-535,648,-169,-1
-644,800,-223,-1
-818,917,-297,-1
-930,1148,-296,-1
-976,1164,-309,-1
-919,807,-613,-1
-777,495,-636,-1
-689,533,-432,-1
-671,587,-314,-1
-536,505,-205,-1
-409,401,-156,-1
-393,397,-190,-1
-472,421,-172,-1
-567,525,-154,-1
-649,657,-116,-1
-735,778,-127,-1
-880,887,-221,-1
-966,927,-304,-1
-1059,1049,-434,-1
-879,847,-662,-1
-525,764,-579,-1
-456,759,-435,-1
-545,726,-300,-1
-520,551,-191,-1
-409,394,-134,-1
-335,367,-142,-1
-346,437,-132,-1
-461,601,-135,-1
-603,779,-186,-1
-723,845,-224,-1
-830,930,-304,-1
-925,1057,-196,-1
-971,1136,-352,-1
-906,740,-612,-1
-820,455,-546,-1
-750,548,-406,-1
-691,551,-292,-1
-565,497,-170,-1
-464,397,-131,-1
-454,336,-180,-1
-464,296,-163,-1
-568,422,-155,-1
-660,565,-104,-1
-757,761,-95,-1
-823,778,-176,-1
-920,858,-339,-1
-975,989,-251,-1
-1037,1081,-515,-1
-824,620,-863,-1
-415,774,-702,-1
-472,842,-571,-1
-652,765,-435,-1
-690,580,-252,-1
-531,414,-184,-1
-375,424,-167,-1
-370,412,-186,-1
-416,462,-228,-1
-532,635,-307,-1
-694,815,-393,-1
-891,1079,-416,-1
-1087,1300,-432,-1
-906,1048,-462,-1
-697,732,-725,-1
-677,453,-952,-1
-672,474,-972,-1
-633,603,-746,-1
-652,602,-556,-1
-650,546,-421,-1
-587,497,-319,-1
-496,391,-282,-1
-385,318,-213,-1
-330,284,-197,-1
-331,305,-156,-1
-442,423,-161,-1
-581,523,-185,-1
-714,646,-225,-1
-785,758,-291,-1
-889,978,-322,-1
-947,1125,-407,-1
-979,1023,-639,-1
-681,862,-582,-1
-430,666,-587,-1
-306,499,-522,-1
-388,601,-348,-1
-572,651,-354,-1
-503,566,-275,-1
-381,469,-241,-1
-340,457,-237,-1
-416,484,-242,-1
-514,604,-219,-1
-609,769,-290,-1
-702,807,-337,-1
-792,955,-421,-1
-905,1085,-348,-1
-983,1108,-543,-1
-819,690,-691,-1
-635,434,-628,-1
-643,241,-499,-1
-670,341,-320,-1
-608,473,-279,-1
-482,442,-237,-1
-488,422,-235,-1
-583,378,-225,-1
-651,447,-237,-1
-744,624,-264,-1
-814,786,-267,-1
-834,848,-362,-1
-890,905,-400,-1
-986,985,-490,-1
-866,711,-746,-1
-407,711,-645,-1
-340,674,-507,-1
-496,635,-389,-1
-597,556,-288,-1
-462,528,-236,-1
-311,459,-211,-1
-293,448,-216,-1
-368,549,-220,-1
-522,750,-238,-1
-656,933,-285,-1
-759,991,-394,-1
-830,1090,-408,-1
-876,1101,-557,-1
-836,700,-667,-1
-757,428,-625,-1
-754,372,-504,-1
-713,480,-334,-1
-540,595,-290,-1
-421,501,-225,-1
-400,410,-183,-1
-479,359,-204,-1
-581,488,-200,-1
-685,684,-228,-1
-768,852,-247,-1
-800,915,-323,-1
-803,898,-355,-1
-867,1040,-364,-1
-842,798,-604,-1
-564,661,-635,-1
-377,681,-538,-1
-508,659,-403,-1
-605,663,-263,-1
-549,558,-217,-1
-413,434,-201,-1
-343,419,-194,-1
-375,506,-177,-1
-482,696,-176,-1
-580,883,-233,-1
-647,945,-306,-1
-734,1038,-370,-1
-822,1093,-362,-1
-891,989,-519,-1
-806,700,-586,-1
-718,449,-556,-1
-688,394,-439,-1
-640,486,-282,-1
-522,540,-236,-1
-439,531,-189,-1
-485,458,-179,-1
-552,443,-204,-1
-645,552,-219,-1
-717,722,-221,-1
-758,842,-262,-1
-779,928,-332,-1
-825,987,-310,-1
-916,1036,-508,-1
-724,737,-654,-1
-391,717,-612,-1
-405,627,-494,-1
-581,635,-341,-1
-609,646,-234,-1
-435,547,-201,-1
-320,462,-207,-1
-320,451,-198,-1
-429,566,-200,-1
-547,772,-217,-1
-612,936,-257,-1
-682,1041,-327,-1
-749,1064,-313,-1
-845,1103,-372,-1
-845,861,-520,-1
-735,638,-517,-1
-691,424,-506,-1
-703,374,-384,-1
-638,501,-259,-1
-507,542,-173,-1
-506,475,-169,-1
-570,489,-169,-1
-640,573,-160,-1
-716,710,-148,-1
-776,844,-183,-1
-790,929,-270,-1
-852,988,-242,-1
-969,1101,-315,-1
-799,808,-516,-1
-442,751,-512,-1
-293,653,-471,-1
-405,622,-319,-1
-599,642,-238,-1
-580,603,-208,-1
-445,550,-203,-1
-378,543,-195,-1
-410,579,-180,-1
-492,663,-152,-1
-572,814,-179,-1
-630,914,-231,-1
-734,967,-311,-1
-795,1044,-217,-1
-917,1100,-323,-1
-838,836,-519,-1
-694,543,-525,-1
-637,473,-453,-1
-612,530,-266,-1
-568,624,-207,-1
-485,597,-165,-1
-465,499,-168,-1
-511,417,-181,-1
-562,474,-150,-1
-621,610,-117,-1
-695,822,-112,-1
-765,930,-196,-1
-807,1001,-254,-1
-877,1004,-206,-1
-964,1018,-354,-1
-692,794,-444,-1
-410,718,-466,-1
-370,613,-364,-1
-498,597,-231,-1
-585,617,-178,-1
-512,551,-153,-1
-418,527,-171,-1
-401,533,-170,-1
-480,639,-153,-1
-565,788,-127,-1
-643,908,-167,-1
-755,902,-267,-1
-807,940,-238,-1
-863,1069,-186,-1
-874,1002,-383,-1
-820,712,-468,-1
-726,477,-473,-1
-695,389,-391,-1
-628,487,-229,-1
-523,575,-165,-1
-470,562,-133,-1
-511,474,-145,-1
-575,432,-187,-1
-640,505,-153,-1
-732,704,-120,-1
-803,835,-133,-1
-826,860,-260,-1
-870,906,-257,-1
-913,1119,-211,-1
-867,863,-440,-1
-552,756,-524,-1
-379,649,-484,-1
-450,635,-305,-1
-587,620,-223,-1
-560,572,-185,-1
-434,499,-175,-1
-395,473,-206,-1
-444,552,-177,-1
-533,684,-137,-1
-635,811,-136,-1
-770,913,-228,-1
-887,913,-317,-1
-882,1006,-203,-1
-947,1031,-396,-1
-844,709,-489,-1
-730,508,-473,-1
-707,399,-427,-1
-653,515,-248,-1
-502,612,-166,-1
-441,560,-112,-1
-458,457,-114,-1
-551,390,-173,-1
-627,488,-168,-1
-708,674,-137,-1
-790,822,-136,-1
-829,885,-211,-1
-856,884,-277,-1
-933,1007,-300,-1
-914,965,-469,-1
-618,850,-492,-1
-411,663,-485,-1
-423,556,-362,-1
-535,579,-214,-1
-546,566,-161,-1
-491,505,-162,-1
-442,470,-169,-1
-498,566,-135,-1
-567,710,-90,-1
-669,847,-82,-1
-764,884,-191,-1
-835,878,-213,-1
-831,951,-116,-1
-888,902,-355,-1
-886,671,-449,-1
-812,556,-414,-1
-713,531,-334,-1
-644,557,-224,-1
-535,558,-214,-1
-479,586,-177,-1
-497,513,-180,-1
-526,472,-165,-1
-571,553,-164,-1
-638,679,-159,-1
-673,744,-114,-1
-730,752,-216,-1
-785,769,-290,-1
-874,956,-264,-1
-949,1040,-438,-1
-783,760,-581,-1
-513,749,-561,-1
-423,602,-443,-1
-538,581,-300,-1
-622,546,-267,-1
-536,539,-227,-1
-433,513,-246,-1
-432,526,-241,-1
-482,607,-193,-1
-552,726,-183,-1
-636,827,-200,-1
-736,859,-276,-1
-798,898,-305,-1
-835,969,-277,-1
-912,857,-570,-1
-862,538,-641,-1
-767,537,-448,-1
-725,594,-355,-1
-617,569,-278,-1
-486,539,-242,-1
-480,477,-224,-1
-470,434,-195,-1
-471,502,-174,-1
-490,637,-156,-1
-575,730,-162,-1
-645,800,-229,-1
-762,814,-314,-1
-902,1037,-370,-1
-912,881,-709,-1
-683,696,-698,-1
-518,800,-523,-1
-596,775,-425,-1
-679,750,-326,-1
-602,635,-289,-1
-447,494,-256,-1
-405,486,-219,-1
-431,498,-178,-1
-470,589,-140,-1
-512,684,-131,-1
-575,841,-222,-1
-660,928,-247,-1
-677,1004,-215,-1
-733,1003,-264,-1
-753,876,-521,-1
-698,619,-557,-1
-694,784,-437,-1
-759,785,-372,-1
-675,778,-333,-1
-546,634,-282,-1
-474,484,-255,-1
-434,433,-257,-1
-471,490,-293,-1
-553,652,-353,-1
-698,819,-356,-1
-786,1019,-260,-1
-820,879,-316,-1
-721,637,-379,-1
-550,615,-342,-1
-453,620,-357,-1
-458,623,-275,-1
-499,694,-290,-1
-516,762,-292,-1
-592,831,-339,-1
-592,902,-326,-1
-531,815,-300,-1
-486,689,-283,-1
-503,634,-273,-1
-553,717,-300,-1
-595,855,-344,-1
-609,866,-339,-1
-627,825,-262,-1
-592,730,-252,-1
-533,633,-269,-1
-524,625,-266,-1
-577,714,-257,-1
-630,783,-236,-1
-627,814,-240,-1
-582,771,-247,-1
-542,720,-240,-1
-553,712,-232,-1
-594,726,-222,-1
-623,755,-231,-1
-632,756,-232,-1
-640,737,-232,-1
-624,717,-241,-1
-615,730,-236,-1
-610,744,-231,-1
-604,760,-233,-1
-599,738,-242,-1
-600,720,-246,-1
-602,731,-240,-1
-611,741,-231,-1
-617,741,-228,-1
-619,746,-239,-1
-613,724,-237,-1
-606,732,-232,-1
-602,730,-232,-1
-605,727,-229,-1
-615,734,-250,-1
-618,736,-257,-1
-611,745,-265,-1
-606,749,-254,-1
-608,753,-238,-1
-600,746,-227,-1
-606,725,-227,-1
-625,723,-233,-1
-637,710,-247,-1
-639,710,-252,-1
-624,723,-245,-1
-611,724,-227,-1
-611,727,-243,-1
-619,724,-241,-1
-634,712,-246,-1
-646,706,-245,-1
-638,705,-230,-1
-628,701,-236,-1
-633,709,-231,-1
-643,705,-259,-1
-642,726,-266,-1
-626,722,-262,-1
-614,714,-249,-1
-618,691,-253,-1
-657,660,-281,-1
-687,653,-280,-1
-675,667,-278,-1
-631,699,-259,-1
-568,720,-244,-1
-540,749,-231,-1
-538,758,-218,-1
-568,785,-227,-1
-621,754,-262,-1
-659,667,-335,-1
-688,650,-334,-1
-664,633,-327,-1
-615,726,-284,-1
-638,691,-293,-1
-663,742,-338,-1
-687,757,-342,-1
-710,686,-347,-1
-693,700,-329,-1
-602,699,-319,-1
-541,728,-311,-1
-546,759,-254,-1
-611,722,-292,-1
-670,708,-487,-1
-484,612,-396,-1
-434,851,-321,-1
-489,951,-255,-1
-541,746,-276,-1
-550,794,-289,-1
-514,727,-246,-1
-517,768,-221,-1
-577,840,-204,-1
-657,826,-207,-1
-676,763,-192,-1
-630,737,-173,-1
-544,717,-162,-1
-505,718,-186,-1
-530,724,-187,-1
-584,757,-187,-1
-645,750,-193,-1
-686,763,-207,-1
-671,777,-215,-1
-643,747,-202,-1
-620,756,-180,-1
-632,798,-193,-1
-667,775,-288,-1
-658,766,-301,-1
-585,717,-206,-1
-561,691,-206,-1
-549,701,-209,-1
-568,743,-230,-1
-644,819,-167,-1
-655,775,-161,-1
-616,728,-218,-1
-607,671,-204,-1
-612,717,-177,-1
-658,758,-186,-1
-705,758,-191,-1
-730,726,-227,-1
-755,769,-248,-1
-745,866,-290,-1
-694,976,-327,-1
-730,1183,-378,-1
-668,1048,-323,-1
-456,829,-310,-1
-306,622,-321,-1
-240,654,-286,-1
-252,750,-201,-1
-402,866,-191,-1
-515,921,-182,-1
-504,927,-214,-1
-418,817,-216,-1
-362,738,-152,-1
-330,724,-130,-1
-339,733,-82,-1
-365,705,-109,-1
-388,696,-117,-1
-363,728,-108,-1
-368,789,-111,-1
-391,855,-92,-1
-433,892,-123,-1
-437,954,-148,-1
-433,1040,-147,-1
-466,1076,-166,-1
-602,1046,-396,-1
-734,822,-435,-1
-704,733,-391,-1
-695,589,-414,-1
-669,578,-341,-1
-612,677,-299,-1
-536,665,-225,-1
-533,623,-189,-1
-527,550,-193,-1
-555,561,-209,-1
-620,683,-215,-1
-657,758,-213,-1
-673,792,-210,-1
-687,791,-217,-1
-673,719,-178,-1
-679,718,-149,-1
-735,724,-131,-1
-887,700,-215,-1
-1033,751,-371,-1
-901,759,-416,-1
-668,657,-459,-1
-428,518,-450,-1
-339,525,-380,-1
-443,609,-320,-1
-578,697,-301,-1
-619,745,-308,-1
-550,739,-347,-1
-500,680,-327,-1
-500,711,-283,-1
-500,754,-263,-1
-506,777,-276,-1
-521,838,-333,-1
-546,876,-345,-1
-557,916,-307,-1
-668,924,-304,-1
-803,891,-512,-1
-707,559,-452,-1
-682,473,-398,-1
-633,487,-368,-1
-551,546,-285,-1
-533,625,-318,-1
-546,610,-293,-1
-604,588,-318,-1
-642,531,-339,-1
-718,647,-372,-1
-793,798,-400,-1
-807,945,-438,-1
-796,1112,-485,-1
-798,1011,-514,-1
-760,806,-674,-1
-521,620,-764,-1
-315,757,-624,-1
-302,831,-498,-1
-441,706,-445,-1
-509,554,-405,-1
-436,525,-338,-1
-355,529,-301,-1
-381,587,-319,-1
-480,706,-346,-1
-582,810,-389,-1
-688,888,-428,-1
-699,908,-450,-1
-765,893,-575,-1
-737,678,-656,-1
-673,436,-547,-1
-643,522,-382,-1
-558,538,-265,-1
-443,500,-282,-1
-408,457,-249,-1
-465,453,-247,-1
-527,477,-272,-1
-655,568,-302,-1
-710,698,-352,-1
-774,843,-416,-1
-782,962,-447,-1
-820,957,-552,-1
-765,866,-711,-1
-513,745,-656,-1
-334,782,-562,-1
-295,759,-440,-1
-360,640,-391,-1
-430,576,-365,-1
-392,586,-328,-1
-372,604,-320,-1
-385,621,-300,-1
-457,707,-331,-1
-569,803,-378,-1
-661,906,-428,-1
-718,892,-478,-1
-780,946,-622,-1
-758,645,-661,-1
-676,450,-571,-1
-643,484,-411,-1
-571,570,-344,-1
-508,583,-339,-1
-460,518,-277,-1
-521,482,-277,-1
-561,492,-286,-1
-609,610,-358,-1
-672,744,-462,-1
-730,877,-484,-1
-773,998,-543,-1
-668,769,-698,-1
-448,635,-671,-1
-299,770,-523,-1
-370,818,-432,-1
-491,641,-404,-1
-483,552,-366,-1
-371,529,-303,-1
-323,590,-287,-1
-343,649,-299,-1
-417,730,-311,-1
-529,831,-391,-1
-664,898,-497,-1
-734,1002,-513,-1
-804,933,-637,-1
-748,606,-697,-1
-691,429,-635,-1
-698,479,-456,-1
-596,579,-362,-1
-492,528,-378,-1
-436,488,-291,-1
-489,471,-281,-1
-543,510,-307,-1
-605,592,-347,-1
-670,744,-439,-1
-747,822,-513,-1
-743,916,-575,-1
-670,806,-739,-1
-463,733,-737,-1
-312,783,-594,-1
-367,780,-514,-1
-449,586,-425,-1
-440,503,-387,-1
-350,505,-352,-1
-308,508,-317,-1
-369,608,-358,-1
-461,692,-382,-1
-528,855,-471,-1
-652,976,-581,-1
-678,1015,-558,-1
-680,878,-700,-1
-635,579,-731,-1
-584,448,-655,-1
-620,497,-463,-1
-596,644,-337,-1
-508,622,-323,-1
-402,462,-276,-1
-339,360,-261,-1
-359,329,-230,-1
-430,422,-221,-1
-550,553,-248,-1
-681,712,-284,-1
-749,820,-334,-1
-726,865,-380,-1
-710,849,-373,-1
-745,848,-527,-1
-582,818,-503,-1
-408,929,-488,-1
-215,705,-477,-1
-99,681,-463,-1
-182,725,-466,-1
-383,767,-515,-1
-388,825,-480,-1
-270,803,-428,-1
-250,700,-389,-1
-333,716,-419,-1
-461,741,-440,-1
-525,859,-482,-1
-563,982,-481,-1
-630,988,-517,-1
-672,830,-806,-1
-499,517,-636,-1
-404,640,-535,-1
-400,709,-448,-1
-390,666,-341,-1
-469,564,-343,-1
-518,410,-374,-1
-552,403,-352,-1
-631,569,-311,-1
-697,766,-311,-1
-669,862,-355,-1
-677,860,-427,-1
-730,855,-539,-1
-785,974,-597,-1
-760,1058,-640,-1
-639,727,-836,-1
-345,500,-894,-1
-137,623,-861,-1
-179,737,-802,-1
-293,719,-756,-1
-331,657,-664,-1
-242,624,-533,-1
-166,556,-477,-1
-159,498,-454,-1
-261,542,-469,-1
-375,599,-489,-1
-463,798,-532,-1
-513,931,-539,-1
-554,967,-560,-1
-600,848,-607,-1
-683,770,-720,-1
-765,628,-785,-1
-752,546,-688,-1
-642,487,-593,-1
-589,469,-461,-1
-546,485,-402,-1
-486,479,-363,-1
-414,394,-322,-1
-405,409,-303,-1
-477,445,-337,-1
-519,531,-377,-1
-598,707,-420,-1
-675,803,-473,-1
-756,906,-519,-1
-803,920,-601,-1
-784,913,-826,-1
-578,714,-802,-1
-381,681,-689,-1
-290,671,-597,-1
-321,646,-471,-1
-414,523,-418,-1
-429,515,-396,-1
-386,461,-412,-1
-380,487,-394,-1
-441,628,-448,-1
-522,714,-490,-1
-591,847,-557,-1
-672,841,-597,-1
-748,843,-836,-1
-761,506,-885,-1
-751,455,-669,-1
-685,545,-504,-1
-502,453,-456,-1
-313,335,-397,-1
-272,341,-317,-1
-392,422,-300,-1
-502,541,-384,-1
-597,672,-458,-1
-738,846,-607,-1
-811,933,-706,-1
-700,934,-833,-1
-499,762,-912,-1
-332,692,-753,-1
-309,744,-645,-1
-359,645,-519,-1
-404,513,-432,-1
-380,422,-376,-1
-308,443,-318,-1
-308,503,-348,-1
-378,589,-376,-1
-500,695,-450,-1
-641,783,-561,-1
-734,875,-624,-1
-800,934,-687,-1
-775,781,-765,-1
-707,465,-718,-1
-707,356,-664,-1
-665,406,-486,-1
-513,440,-402,-1
-443,451,-356,-1
-436,415,-323,-1
-512,481,-370,-1
-552,563,-450,-1
-660,719,-543,-1
-748,823,-631,-1
-699,941,-631,-1
-537,804,-816,-1
-359,653,-813,-1
-285,738,-637,-1
-460,609,-462,-1
-453,518,-443,-1
-404,469,-389,-1
-428,532,-393,-1
-475,597,-429,-1
-564,705,-495,-1
-628,761,-530,-1
-714,784,-595,-1
-781,717,-799,-1
-808,428,-837,-1
-781,407,-643,-1
-711,493,-432,-1
-516,471,-384,-1
-386,383,-346,-1
-373,348,-292,-1
-428,421,-318,-1
-547,502,-367,-1
-724,709,-443,-1
-805,831,-534,-1
-798,904,-617,-1
-798,915,-772,-1
-605,696,-846,-1
-386,716,-704,-1
-285,730,-564,-1
-355,693,-477,-1
-454,479,-460,-1
-455,446,-437,-1
-362,461,-374,-1
-335,543,-339,-1
-410,608,-391,-1
-483,673,-453,-1
-567,797,-536,-1
-631,810,-553,-1
-688,841,-649,-1
-683,745,-813,-1
-710,653,-802,-1
-672,645,-629,-1
-651,602,-469,-1
-561,555,-382,-1
-447,435,-304,-1
-391,350,-249,-1
-365,324,-246,-1
-378,329,-227,-1
-444,446,-263,-1
-513,574,-266,-1
-671,726,-323,-1
-764,840,-374,-1
-722,881,-410,-1
-672,804,-428,-1
-678,717,-526,-1
-658,780,-590,-1
-517,990,-547,-1
-260,878,-551,-1
-103,719,-548,-1
-147,681,-529,-1
-339,689,-512,-1
-425,709,-497,-1
-334,740,-446,-1
-295,663,-419,-1
-322,600,-425,-1
-422,674,-423,-1
-512,758,-425,-1
-563,848,-454,-1
-610,922,-494,-1
-665,1019,-479,-1
-721,920,-627,-1
-603,636,-750,-1
-500,433,-638,-1
-482,508,-548,-1
-538,658,-417,-1
-546,704,-369,-1
-523,648,-368,-1
-522,490,-366,-1
-498,434,-332,-1
-565,449,-305,-1
-721,586,-249,-1
-799,805,-322,-1
-761,849,-375,-1
-734,1019,-447,-1
-740,1064,-488,-1
-759,1030,-596,-1
-630,825,-831,-1
-388,701,-914,-1
-304,745,-786,-1
-370,788,-638,-1
-432,638,-545,-1
-414,525,-466,-1
-360,444,-381,-1
-322,456,-349,-1
-367,540,-370,-1
-495,695,-449,-1
-654,794,-574,-1
-709,832,-595,-1
-753,821,-621,-1
-761,595,-765,-1
-725,438,-588,-1
-687,557,-437,-1
-585,581,-351,-1
-433,488,-292,-1
-388,377,-268,-1
-388,292,-259,-1
-453,386,-274,-1
-608,619,-374,-1
-755,820,-488,-1
-875,1130,-609,-1
-776,1052,-556,-1
-690,822,-722,-1
-487,631,-703,-1
-346,633,-620,-1
-342,709,-548,-1
-391,687,-453,-1
-462,597,-439,-1
-434,533,-399,-1
-393,533,-369,-1
-383,567,-340,-1
-477,626,-370,-1
-574,687,-456,-1
-647,772,-538,-1
-742,844,-567,-1
-817,879,-717,-1
-784,602,-712,-1
-742,432,-599,-1
-703,409,-493,-1
-612,436,-394,-1
-510,413,-376,-1
-431,441,-340,-1
-445,458,-319,-1
-501,566,-374,-1
-623,677,-451,-1
-693,761,-532,-1
-742,880,-584,-1
-704,909,-677,-1
-539,734,-870,-1
-367,783,-748,-1
-342,805,-549,-1
-420,676,-445,-1
-455,453,-412,-1
-393,367,-386,-1
-321,426,-330,-1
-351,571,-341,-1
-446,642,-374,-1
-526,710,-419,-1
-625,790,-537,-1
-712,874,-565,-1
-802,945,-632,-1
-756,779,-740,-1
-732,495,-688,-1
-711,480,-589,-1
-638,512,-431,-1
-527,562,-387,-1
-449,484,-332,-1
-437,445,-297,-1
-448,415,-274,-1
-510,485,-318,-1
-632,674,-409,-1
-728,785,-518,-1
-850,961,-593,-1
-828,951,-687,-1
-594,784,-756,-1
-387,687,-662,-1
-311,703,-559,-1
-338,718,-466,-1
-428,598,-421,-1
-437,499,-391,-1
-377,479,-335,-1
-368,525,-328,-1
-412,635,-351,-1
-494,720,-371,-1
-593,778,-470,-1
-672,848,-518,-1
-705,907,-589,-1
-743,919,-738,-1
-655,623,-721,-1
-589,440,-653,-1
-562,468,-479,-1
-498,528,-369,-1
-454,495,-388,-1
-450,525,-342,-1
-499,516,-363,-1
-539,505,-352,-1
-621,614,-397,-1
-704,686,-482,-1
-775,847,-574,-1
-756,890,-650,-1
-643,905,-749,-1
-396,759,-698,-1
-280,786,-560,-1
-299,747,-500,-1
-394,643,-472,-1
-403,536,-411,-1
-332,486,-368,-1
-271,468,-303,-1
-270,480,-299,-1
-342,532,-289,-1
-407,639,-366,-1
-537,840,-447,-1
-627,1039,-502,-1
-746,1180,-541,-1
-731,1153,-596,-1
-696,887,-720,-1
-657,645,-793,-1
-561,521,-735,-1
-531,477,-522,-1
-533,581,-353,-1
-529,597,-360,-1
-470,484,-295,-1
-437,381,-277,-1
-407,300,-219,-1
-379,300,-189,-1
-436,420,-212,-1
-563,600,-255,-1
-728,804,-360,-1
-770,936,-428,-1
-760,1053,-449,-1
-783,1005,-400,-1
-781,926,-506,-1
-597,739,-666,-1
-303,771,-540,-1
-178,787,-471,-1
-191,729,-399,-1
-357,655,-354,-1
-484,636,-317,-1
-465,638,-270,-1
-393,625,-248,-1
-355,583,-232,-1
-371,649,-234,-1
-425,790,-218,-1
-498,904,-212,-1
-576,950,-277,-1
-620,942,-321,-1
-601,992,-363,-1
-665,1135,-323,-1
-789,1096,-442,-1
-724,807,-574,-1
-562,460,-551,-1
-437,352,-406,-1
-428,491,-184,-1
-476,579,-180,-1
-471,648,-226,-1
-516,643,-233,-1
-566,593,-231,-1
-584,619,-201,-1
-598,708,-188,-1
-612,803,-182,-1
-606,844,-246,-1
-617,913,-341,-1
-701,1022,-435,-1
-785,1180,-576,-1
-592,1002,-683,-1
-363,792,-595,-1
-294,650,-502,-1
-362,597,-342,-1
-461,541,-314,-1
-441,528,-260,-1
-355,585,-240,-1
-314,561,-226,-1
-342,640,-234,-1
-423,781,-244,-1
-544,943,-310,-1
-679,1067,-369,-1
-753,1077,-362,-1
-803,1101,-491,-1
-749,798,-636,-1
-645,530,-557,-1
-641,491,-518,-1
-586,555,-373,-1
-495,644,-294,-1
-448,598,-247,-1
-457,463,-207,-1
-506,375,-226,-1
-553,428,-258,-1
-612,652,-308,-1
-676,841,-298,-1
-717,964,-357,-1
-676,960,-430,-1
-645,913,-382,-1
-733,965,-547,-1
-701,688,-782,-1
-424,698,-642,-1
-345,705,-533,-1
-381,670,-396,-1
-511,682,-367,-1
-513,610,-320,-1
-413,598,-275,-1
-351,583,-252,-1
-355,607,-220,-1
-434,719,-209,-1
-512,823,-248,-1
-593,887,-300,-1
-660,944,-349,-1
-714,1005,-322,-1
-827,1051,-522,-1
-733,794,-527,-1
-645,539,-464,-1
-615,422,-415,-1
-583,510,-263,-1
-522,628,-278,-1
-460,645,-260,-1
-503,619,-256,-1
-536,542,-264,-1
-594,652,-260,-1
-663,762,-252,-1
-690,885,-306,-1
-683,945,-357,-1
-707,929,-361,-1
-729,857,-576,-1
-550,717,-616,-1
-363,752,-518,-1
-331,787,-403,-1
-437,804,-375,-1
-516,714,-349,-1
-494,641,-302,-1
-432,640,-274,-1
-397,655,-245,-1
-423,694,-221,-1
-438,745,-242,-1
-458,829,-268,-1
-510,905,-273,-1
-550,892,-288,-1
-616,871,-352,-1
-692,881,-459,-1
-622,962,-458,-1
-574,856,-400,-1
-586,693,-416,-1
-535,598,-385,-1
-495,642,-357,-1
-455,695,-329,-1
-461,658,-343,-1
-505,616,-371,-1
-567,655,-414,-1
-610,746,-432,-1
-589,828,-399,-1
-561,772,-362,-1
-569,688,-343,-1
-615,636,-362,-1
-635,642,-356,-1
-638,670,-352,-1
-621,684,-372,-1
-597,684,-374,-1
-591,710,-370,-1
-596,746,-363,-1
-592,785,-350,-1
-567,786,-340,-1
-572,754,-325,-1
-588,727,-321,-1
-606,710,-314,-1
-620,745,-291,-1
-626,785,-262,-1
-602,777,-265,-1
-563,721,-272,-1
-514,665,-275,-1
-486,653,-276,-1
-494,731,-260,-1
-527,843,-266,-1
-541,891,-266,-1
-536,879,-261,-1
-511,787,-252,-1
-488,706,-244,-1
-495,697,-242,-1
-533,726,-269,-1
-571,770,-302,-1
-580,783,-324,-1
-576,762,-334,-1
-572,755,-342,-1
-563,746,-334,-1
-598,771,-392,-1
-628,686,-427,-1
-641,575,-332,-1
-682,551,-357,-1
-677,607,-388,-1
-619,688,-424,-1
-636,773,-345,-1
-697,732,-307,-1
-732,622,-329,-1
-695,536,-372,-1
-657,579,-385,-1
-632,667,-353,-1
-622,714,-328,-1
-628,719,-332,-1
-665,680,-343,-1
-688,654,-335,-1
-688,634,-308,-1
-737,654,-389,-1
-652,582,-428,-1
-550,629,-400,-1
-489,663,-377,-1
-487,734,-386,-1
-593,828,-395,-1
-648,846,-351,-1
-597,799,-300,-1
-540,712,-274,-1
-501,640,-243,-1
-503,640,-228,-1
-550,702,-218,-1
-606,788,-218,-1
-613,816,-242,-1
-587,765,-256,-1
-557,741,-266,-1
-561,787,-253,-1
-637,854,-251,-1
-793,872,-399,-1
-873,800,-520,-1
-764,761,-387,-1
-627,541,-342,-1
-586,394,-360,-1
-601,329,-359,-1
-598,479,-330,-1
-617,630,-296,-1
-658,724,-270,-1
-672,665,-298,-1
-630,613,-311,-1
-631,650,-264,-1
-640,736,-244,-1
-636,799,-253,-1
-648,845,-275,-1
-700,862,-265,-1
-771,853,-304,-1
-806,858,-483,-1
-668,697,-465,-1
-563,645,-497,-1
-430,576,-443,-1
-406,654,-337,-1
-462,703,-304,-1
-516,686,-263,-1
-530,685,-263,-1
-519,618,-266,-1
-526,631,-239,-1
-519,705,-197,-1
-526,794,-223,-1
-555,851,-257,-1
-638,859,-262,-1
-689,862,-275,-1
-731,920,-231,-1
-819,964,-410,-1
-769,847,-581,-1
-599,610,-398,-1
-554,448,-322,-1
-515,406,-280,-1
-489,453,-273,-1
-531,498,-306,-1
-653,683,-269,-1
-775,750,-278,-1
-756,688,-284,-1
-682,601,-255,-1
-640,570,-225,-1
-624,622,-239,-1
-646,695,-290,-1
-707,838,-331,-1
-763,958,-307,-1
-849,1020,-447,-1
-764,768,-594,-1
-560,654,-507,-1
-421,609,-474,-1
-396,562,-371,-1
-508,610,-333,-1
-568,633,-295,-1
-560,663,-298,-1
-514,645,-319,-1
-484,641,-298,-1
-492,691,-299,-1
-501,741,-265,-1
-535,821,-271,-1
-587,819,-281,-1
-632,804,-300,-1
-680,791,-320,-1
-731,871,-311,-1
-801,924,-430,-1
-722,848,-538,-1
-577,600,-419,-1
-565,435,-389,-1
-559,415,-333,-1
-551,542,-291,-1
-543,636,-333,-1
-595,711,-322,-1
-636,691,-324,-1
-650,653,-311,-1
-633,651,-281,-1
-622,643,-235,-1
-641,661,-284,-1
-661,684,-318,-1
-707,723,-332,-1
-725,828,-288,-1
-718,900,-287,-1
-762,924,-485,-1
-661,746,-507,-1
-517,612,-429,-1
-466,566,-414,-1
-500,565,-332,-1
-593,595,-291,-1
-667,653,-283,-1
-658,688,-297,-1
-611,667,-297,-1
-579,636,-271,-1
-559,662,-254,-1
-562,709,-246,-1
-600,766,-261,-1
-622,746,-275,-1
-681,740,-298,-1
-708,717,-284,-1
-681,747,-245,-1
-688,771,-204,-1
-826,732,-386,-1
-911,651,-501,-1
-775,648,-400,-1
-674,569,-390,-1
-624,465,-419,-1
-620,385,-449,-1
-639,432,-490,-1
-688,595,-500,-1
-700,705,-506,-1
-687,710,-500,-1
-675,636,-471,-1
-656,555,-474,-1
-635,542,-465,-1
-629,597,-459,-1
-631,640,-440,-1
-612,670,-443,-1
-596,688,-407,-1
-585,704,-352,-1
-586,712,-312,-1
-567,689,-292,-1
-551,640,-290,-1
-520,687,-316,-1
-537,784,-413,-1
-429,840,-438,-1
-420,894,-345,-1
-502,857,-368,-1
-588,785,-365,-1
-639,791,-325,-1
-649,764,-288,-1
-600,700,-282,-1
-567,659,-283,-1
-552,629,-273,-1
-557,665,-255,-1
-547,729,-248,-1
-547,805,-242,-1
-564,838,-254,-1
-600,835,-311,-1
-630,808,-320,-1
-666,824,-285,-1
-763,829,-367,-1
-848,801,-443,-1
-752,786,-434,-1
-615,685,-373,-1
-561,429,-350,-1
-553,341,-341,-1
-567,406,-319,-1
-593,550,-288,-1
-635,718,-259,-1
-677,749,-269,-1
-672,688,-338,-1
-622,605,-335,-1
-613,625,-278,-1
-637,680,-243,-1
-669,730,-239,-1
-692,718,-283,-1
-712,697,-299,-1
-722,711,-308,-1
-740,774,-294,-1
-795,836,-345,-1
-828,828,-502,-1
-647,684,-527,-1
-460,550,-460,-1
-394,543,-430,-1
-424,582,-370,-1
-593,624,-360,-1
-713,715,-354,-1
-678,760,-331,-1
-577,668,-321,-1
-516,605,-286,-1
-503,628,-242,-1
-510,717,-198,-1
-536,796,-205,-1
-573,802,-271,-1
-641,789,-308,-1
-681,770,-356,-1
-675,782,-285,-1
-742,854,-233,-1
-821,898,-398,-1
-738,788,-506,-1
-594,601,-387,-1
-548,454,-335,-1
-543,394,-319,-1
-551,468,-328,-1
-582,609,-361,-1
-637,753,-327,-1
-673,805,-288,-1
-646,695,-292,-1
-612,581,-297,-1
-608,573,-261,-1
-631,642,-257,-1
-644,716,-275,-1
-670,748,-326,-1
-706,762,-344,-1
-722,808,-313,-1
-742,839,-294,-1
-752,839,-377,-1
-716,744,-515,-1
-544,592,-535,-1
-407,560,-436,-1
-548,633,-357,-1
-701,702,-336,-1
-691,700,-338,-1
-600,644,-329,-1
-521,596,-305,-1
-493,605,-283,-1
-504,673,-260,-1
-535,759,-232,-1
-575,812,-262,-1
-605,796,-293,-1
-653,762,-336,-1
-678,755,-329,-1
-694,796,-281,-1
-776,862,-357,-1
-800,884,-521,-1
-657,688,-460,-1
-566,494,-380,-1
-550,399,-337,-1
-542,421,-305,-1
-567,559,-320,-1
-618,691,-347,-1
-643,824,-308,-1
-639,787,-314,-1
-616,654,-304,-1
-594,594,-270,-1
-616,619,-257,-1
-641,653,-270,-1
-662,705,-304,-1
-683,728,-329,-1
-690,743,-313,-1
-697,754,-294,-1
-737,777,-348,-1
-786,799,-471,-1
-702,756,-563,-1
-541,581,-444,-1
-499,538,-448,-1
-487,503,-425,-1
-593,563,-361,-1
-750,647,-357,-1
-777,676,-367,-1
-677,635,-369,-1
-621,562,-356,-1
-611,548,-321,-1
-623,576,-313,-1
-638,643,-331,-1
-655,684,-360,-1
-670,681,-379,-1
-693,681,-385,-1
-708,689,-377,-1
-702,685,-357,-1
-697,680,-334,-1
-688,661,-343,-1
-741,665,-496,-1
-737,606,-514,-1
-659,587,-410,-1
-587,505,-366,-1
-555,409,-358,-1
-566,345,-444,-1
-658,378,-495,-1
-810,571,-527,-1
-857,739,-532,-1
-768,746,-495,-1
-675,630,-464,-1
-640,524,-437,-1
-624,520,-434,-1
-630,602,-428,-1
-637,682,-415,-1
-625,716,-390,-1
-604,689,-371,-1
-588,646,-351,-1
-606,629,-334,-1
-645,623,-334,-1
-680,613,-343,-1
-677,621,-350,-1
-673,640,-342,-1
-681,665,-334,-1
-729,708,-370,-1
-707,732,-372,-1
-699,712,-400,-1
-704,646,-453,-1
-676,559,-467,-1
-596,565,-467,-1
-497,577,-473,-1
-453,649,-454,-1
-500,727,-426,-1
-554,735,-412,-1
-549,691,-408,-1
-529,622,-398,-1
-536,614,-393,-1
-574,649,-385,-1
-600,717,-386,-1
-613,744,-389,-1
-596,732,-383,-1
-585,712,-372,-1
-600,709,-347,-1
-609,723,-346,-1
-607,724,-366,-1
-606,746,-377,-1
-621,769,-345,-1
-709,805,-387,-1
-807,791,-516,-1
-767,725,-532,-1
-599,644,-390,-1
-507,498,-304,-1
-522,362,-320,-1
-611,319,-365,-1
-721,476,-338,-1
-758,680,-353,-1
-679,793,-289,-1
-634,697,-287,-1
-629,538,-289,-1
-651,478,-280,-1
-718,563,-277,-1
-767,675,-284,-1
-743,755,-341,-1
-692,722,-368,-1
-696,728,-358,-1
-734,734,-370,-1
-810,770,-537,-1
-770,716,-638,-1
-664,626,-512,-1
-580,587,-477,-1
-450,464,-453,-1
-392,482,-472,-1
-446,567,-407,-1
-610,669,-397,-1
-707,774,-378,-1
-683,690,-378,-1
-645,575,-395,-1
-597,525,-350,-1
-586,577,-321,-1
-620,663,-313,-1
-671,721,-329,-1
-707,718,-347,-1
-721,679,-361,-1
-705,684,-372,-1
-658,704,-336,-1
-624,723,-307,-1
-710,702,-439,-1
-790,568,-480,-1
-815,613,-468,-1
-733,583,-457,-1
-630,422,-411,-1
-592,312,-430,-1
-628,329,-461,-1
-694,425,-471,-1
-774,574,-470,-1
-808,652,-474,-1
-775,630,-495,-1
-744,499,-506,-1
-722,423,-511,-1
-714,436,-517,-1
-714,511,-485,-1
-716,575,-455,-1
-696,593,-430,-1
-686,565,-405,-1
-672,532,-396,-1
-678,500,-404,-1
-747,551,-467,-1
-727,709,-559,-1
-627,642,-454,-1
-651,632,-484,-1
-585,499,-528,-1
-525,511,-554,-1
-538,618,-517,-1
-604,707,-429,-1
-604,698,-407,-1
-590,606,-429,-1
-583,576,-432,-1
-602,610,-422,-1
-610,655,-415,-1
-598,706,-409,-1
-573,712,-399,-1
-563,712,-368,-1
-571,714,-332,-1
-601,753,-300,-1
-618,768,-298,-1
-634,753,-301,-1
-674,728,-292,-1
-725,758,-285,-1
-787,793,-279,-1
-852,798,-373,-1
-825,740,-491,-1
-677,539,-461,-1
-597,421,-450,-1
-525,379,-406,-1
-473,535,-352,-1
-462,722,-354,-1
-497,820,-347,-1
-529,888,-289,-1
-576,798,-296,-1
-580,653,-298,-1
-566,616,-297,-1
-570,630,-295,-1
-594,682,-296,-1
-645,726,-308,-1
-672,773,-300,-1
-665,750,-288,-1
-646,693,-282,-1
-645,665,-287,-1
-658,693,-276,-1
-715,732,-316,-1
-751,804,-427,-1
-667,856,-468,-1
-529,826,-453,-1
-436,683,-401,-1
-364,601,-396,-1
-361,589,-411,-1
-438,650,-400,-1
-512,792,-403,-1
-505,895,-415,-1
-459,837,-422,-1
-442,726,-423,-1
-431,686,-411,-1
-444,724,-405,-1
-458,776,-397,-1
-481,801,-407,-1
-491,770,-417,-1
-507,747,-393,-1
-515,736,-374,-1
-517,741,-368,-1
-504,767,-369,-1
-500,776,-375,-1
-496,780,-367,-1
-506,776,-360,-1
-519,746,-362,-1
-534,731,-365,-1
-536,721,-369,-1
-541,721,-377,-1
-537,736,-383,-1
-545,738,-380,-1
-537,746,-378,-1
-539,733,-387,-1
-544,727,-382,-1
-546,714,-383,-1
-550,728,-383,-1
-555,715,-392,-1
-566,706,-389,-1
-565,722,-385,-1
-572,707,-372,-1
-569,708,-387,-1
-568,695,-383,-1
-563,698,-381,-1
-569,710,-380,-1
-577,708,-383,-1
-588,698,-384,-1
-586,698,-379,-1
-577,686,-386,-1
-567,692,-374,-1
-557,706,-380,-1
-564,699,-379,-1
-584,700,-402,-1
-592,709,-408,-1
-569,717,-398,-1
-541,737,-376,-1
-521,721,-371,-1
-521,704,-372,-1
-564,695,-374,-1
-573,713,-374,-1
-558,761,-378,-1
-521,754,-378,-1
-509,744,-369,-1
-511,721,-375,-1
-553,713,-377,-1
-578,730,-391,-1
-575,745,-374,-1
-564,722,-350,-1
-572,702,-347,-1
-563,696,-360,-1
-540,672,-373,-1
-532,684,-382,-1
-513,703,-384,-1
-518,742,-386,-1
-532,761,-378,-1
-548,772,-389,-1
-546,758,-372,-1
-563,745,-359,-1
-574,701,-372,-1
-578,703,-384,-1
-561,739,-395,-1
-536,787,-389,-1
-525,819,-370,-1
-533,824,-342,-1
-571,792,-341,-1
-587,741,-381,-1
-560,662,-401,-1
-517,610,-362,-1
-500,599,-340,-1
-529,618,-355,-1
-588,679,-396,-1
-641,739,-389,-1
-700,828,-323,-1
-713,821,-305,-1
-667,682,-320,-1
-632,587,-327,-1
-602,587,-331,-1
-605,596,-315,-1
-678,591,-280,-1
-758,667,-311,-1
-608,764,-291,-1
-535,805,-323,-1
-544,756,-310,-1
-533,839,-270,-1
-520,890,-258,-1
-483,854,-270,-1
-441,805,-285,-1
-418,758,-258,-1
-394,744,-229,-1
-393,754,-232,-1
-419,773,-248,-1
-476,799,-282,-1
-529,810,-306,-1
-567,799,-317,-1
-578,801,-307,-1
-564,799,-312,-1
-533,797,-310,-1
-493,779,-308,-1
-461,798,-322,-1
-458,807,-325,-1
-488,861,-347,-1
-548,894,-457,-1
-561,835,-538,-1
-532,746,-463,-1
-480,633,-433,-1
-490,550,-471,-1
-510,562,-499,-1
-568,717,-443,-1
-558,796,-403,-1
-511,737,-383,-1
-468,666,-389,-1
-470,673,-355,-1
-516,745,-311,-1
-569,801,-303,-1
-616,793,-315,-1
-655,729,-341,-1
-677,678,-402,-1
-686,649,-381,-1
-684,685,-352,-1
-701,707,-390,-1
-664,717,-427,-1
-599,760,-450,-1
-545,698,-384,-1
-503,634,-351,-1
-445,584,-345,-1
-415,611,-343,-1
-456,732,-344,-1
-589,830,-354,-1
-673,834,-368,-1
-650,737,-360,-1
-567,637,-351,-1
-496,598,-316,-1
-471,625,-285,-1
-489,709,-299,-1
-557,768,-320,-1
-621,843,-336,-1
-655,805,-346,-1
-670,757,-363,-1
-613,750,-352,-1
-543,767,-301,-1
-591,800,-381,-1
-646,725,-510,-1
-626,677,-477,-1
-571,700,-398,-1
-532,624,-379,-1
-545,579,-430,-1
-558,617,-446,-1
-576,752,-363,-1
-588,806,-305,-1
-571,703,-318,-1
-532,607,-355,-1
-532,599,-361,-1
-564,646,-369,-1
-599,731,-413,-1
-623,769,-428,-1
-630,754,-456,-1
-643,659,-460,-1
-622,586,-432,-1
-627,573,-480,-1
-506,689,-539,-1
-389,849,-468,-1
-369,968,-481,-1
-368,840,-514,-1
-398,752,-505,-1
-445,730,-457,-1
-455,760,-387,-1
-446,760,-378,-1
-439,716,-416,-1
-478,690,-439,-1
-527,698,-447,-1
-557,712,-446,-1
-556,736,-433,-1
-550,741,-420,-1
-549,754,-402,-1
-540,743,-379,-1
-523,717,-348,-1
-510,695,-338,-1
-523,683,-320,-1
-601,714,-374,-1
-649,656,-366,-1
-631,659,-301,-1
-611,620,-308,-1
-638,599,-348,-1
-696,711,-406,-1
-684,831,-395,-1
-633,861,-312,-1
-611,739,-306,-1
-592,577,-305,-1
-579,532,-306,-1
-594,578,-281,-1
-623,698,-277,-1
-647,808,-332,-1
-661,826,-395,-1
-684,913,-445,-1
-622,495,-241,-1
-631,744,-293,-1
-652,768,-283,-1
-709,738,-245,-1
-632,867,-216,-1
-550,787,-243,-1
-499,736,-223,-1
-490,716,-226,-1
-487,725,-218,-1
-481,759,-205,-1
-469,787,-206,-1
-451,824,-217,-1
-450,818,-227,-1
-498,827,-249,-1
-510,853,-229,-1
-536,857,-232,-1
-540,840,-220,-1
-529,800,-219,-1
-512,777,-234,-1
-513,769,-221,-1
-520,798,-218,-1
-536,812,-209,-1
-558,821,-203,-1
-572,795,-210,-1
-564,786,-202,-1
-568,763,-212,-1
-555,774,-203,-1
-540,784,-196,-1
-546,802,-195,-1
-527,803,-182,-1
-532,790,-190,-1
-531,790,-172,-1
-550,784,-190,-1
-557,778,-195,-1
-563,792,-212,-1
-562,824,-231,-1
-543,849,-254,-1
-523,838,-272,-1
-499,828,-252,-1
-480,801,-241,-1
-492,796,-252,-1
-499,789,-259,-1
-517,798,-268,-1
-520,783,-280,-1
-520,747,-286,-1
-502,711,-286,-1
-520,695,-293,-1
-559,740,-283,-1
-607,841,-266,-1
-602,917,-240,-1
-578,878,-242,-1
-555,770,-254,-1
-553,679,-259,-1
-597,700,-263,-1
-637,740,-242,-1
-656,823,-237,-1
-609,834,-281,-1
-547,699,-306,-1
-498,571,-309,-1
-475,565,-257,-1
-512,721,-233,-1
-595,880,-233,-1
-663,952,-228,-1
-632,922,-243,-1
-559,798,-246,-1
-532,715,-238,-1
-554,687,-215,-1
-597,736,-175,-1
-630,828,-207,-1
-640,834,-213,-1
-652,823,-194,-1
-622,737,-205,-1
-554,660,-231,-1
-486,674,-231,-1
-488,710,-185,-1
-536,789,-174,-1
-599,810,-197,-1
-618,768,-195,-1
-642,734,-217,-1
-630,711,-224,-1
-600,722,-239,-1
-552,770,-241,-1
-521,826,-231,-1
-500,855,-222,-1
-502,853,-202,-1
-502,823,-208,-1
-517,801,-216,-1
-517,788,-218,-1
-520,784,-218,-1
-525,765,-218,-1
-533,760,-223,-1
-530,795,-229,-1
-530,807,-231,-1
-530,811,-228,-1
-529,797,-230,-1
-524,795,-241,-1
-521,794,-242,-1
-521,798,-250,-1
-509,802,-248,-1
-517,808,-245,-1
-515,809,-233,-1
-529,809,-230,-1
-539,778,-244,-1
-548,756,-256,-1
-543,769,-246,-1
-538,785,-257,-1
-538,780,-257,-1
-530,793,-259,-1
-531,785,-268,-1
-524,798,-261,-1
-533,801,-274,-1
-536,795,-266,-1
-542,779,-266,-1
-544,762,-273,-1
-546,759,-270,-1
-540,764,-270,-1
-538,776,-267,-1
-528,790,-278,-1
-526,793,-275,-1
-527,793,-269,-1
-526,769,-264,-1
-535,746,-260,-1
-551,728,-273,-1
-546,742,-275,-1
-536,801,-292,-1
-533,830,-291,-1
-520,838,-284,-1
-531,795,-275,-1
-546,752,-278,-1
-568,744,-282,-1
-577,744,-258,-1
-602,739,-276,-1
-611,731,-288,-1
-582,712,-297,-1
-573,721,-304,-1
-539,728,-315,-1
-538,754,-320,-1
-539,779,-297,-1
-556,786,-301,-1
-572,763,-314,-1
-568,752,-320,-1
-553,764,-320,-1
-542,765,-318,-1
-537,756,-317,-1
-533,761,-309,-1
-543,736,-301,-1
-566,730,-295,-1
-585,738,-293,-1
-578,738,-291,-1
-580,732,-300,-1
-570,716,-310,-1
-578,711,-319,-1
-578,727,-332,-1
-554,758,-307,-1
-533,781,-303,-1
-538,798,-312,-1
-546,820,-301,-1
-523,822,-276,-1
-513,765,-262,-1
-520,701,-278,-1
-563,684,-293,-1
-594,712,-317,-1
-595,753,-325,-1
-577,760,-341,-1
-555,763,-349,-1
-521,778,-331,-1
-508,778,-317,-1
-511,753,-327,-1
-534,744,-343,-1
-536,758,-338,-1
-538,776,-336,-1
-535,755,-335,-1
-542,740,-337,-1
-541,741,-325,-1
-543,755,-315,-1
-539,767,-331,-1
-527,769,-340,-1
-513,764,-334,-1
-521,761,-317,-1
-541,755,-312,-1
-569,754,-331,-1
-569,750,-341,-1
-551,747,-327,-1
-536,739,-317,-1
-546,720,-311,-1
-556,715,-322,-1
-557,770,-328,-1
-531,791,-325,-1
-527,791,-311,-1
-531,761,-302,-1
-542,745,-295,-1
-554,755,-289,-1
-549,752,-292,-1
-532,741,-309,-1
-515,716,-314,-1
-526,704,-327,-1
-554,745,-341,-1
-581,786,-367,-1
-605,801,-391,-1
-584,798,-395,-1
-560,768,-363,-1
-533,715,-370,-1
-490,690,-356,-1
-478,694,-332,-1
-477,692,-302,-1
-501,687,-306,-1
-525,725,-340,-1
-560,788,-366,-1
-592,841,-378,-1
-606,838,-358,-1
-608,774,-337,-1
-590,708,-317,-1
-549,683,-320,-1
-537,680,-311,-1
-534,697,-309,-1
-530,684,-325,-1
-521,641,-348,-1
-552,622,-399,-1
-594,590,-470,-1
-596,542,-471,-1
-647,514,-473,-1
-709,612,-513,-1
-738,706,-576,-1
-718,746,-554,-1
-711,748,-485,-1
-713,675,-486,-1
-692,543,-488,-1
-681,439,-476,-1
-684,421,-475,-1
-692,431,-464,-1
-696,466,-470,-1
-710,477,-485,-1
-738,517,-470,-1
-765,536,-459,-1
-757,515,-429,-1
-745,483,-408,-1
-738,518,-484,-1
-620,579,-559,-1
-464,777,-624,-1
-389,898,-608,-1
-415,952,-534,-1
-427,919,-501,-1
-378,787,-439,-1
-296,674,-357,-1
-274,656,-356,-1
-301,715,-356,-1
-384,798,-371,-1
-476,834,-381,-1
-534,821,-377,-1
-535,781,-356,-1
-521,757,-368,-1
-486,729,-333,-1
-471,743,-332,-1
-488,763,-338,-1
-533,807,-360,-1
-594,899,-382,-1
-659,946,-351,-1
-745,980,-410,-1
-745,901,-623,-1
-551,587,-610,-1
-444,415,-497,-1
-440,458,-429,-1
-458,560,-310,-1
-469,654,-322,-1
-498,676,-357,-1
-531,643,-363,-1
-579,631,-360,-1
-598,685,-316,-1
-592,722,-278,-1
-608,693,-306,-1
-633,697,-362,-1
-672,706,-415,-1
-689,845,-433,-1
-696,993,-386,-1
-680,1034,-501,-1
-544,820,-622,-1
-331,599,-595,-1
-226,588,-521,-1
-263,668,-383,-1
-486,646,-360,-1
-639,621,-389,-1
-569,663,-363,-1
-457,677,-358,-1
-409,660,-335,-1
-412,659,-295,-1
-476,707,-266,-1
-544,803,-293,-1
-627,837,-343,-1
-718,874,-398,-1
-764,937,-377,-1
-834,955,-449,-1
-814,805,-588,-1
-653,559,-550,-1
-576,383,-476,-1
-563,332,-422,-1
-561,427,-332,-1
-528,528,-330,-1
-536,575,-326,-1
-595,610,-336,-1
-624,580,-382,-1
-614,595,-375,-1
-621,680,-324,-1
-644,733,-333,-1
-628,769,-390,-1
-617,827,-418,-1
-644,940,-369,-1
-743,1009,-432,-1
-758,818,-609,-1
-554,629,-637,-1
-360,561,-590,-1
-304,573,-493,-1
-408,637,-401,-1
-598,666,-341,-1
-629,674,-314,-1
-544,653,-311,-1
-493,585,-341,-1
-471,589,-340,-1
-482,646,-308,-1
-547,740,-307,-1
-616,790,-333,-1
-654,789,-361,-1
-661,750,-362,-1
-643,738,-308,-1
-679,802,-324,-1
-744,829,-489,-1
-775,726,-514,-1
-707,569,-414,-1
-688,407,-434,-1
-663,344,-431,-1
-643,458,-388,-1
-613,595,-346,-1
-629,671,-301,-1
-661,593,-339,-1
-672,498,-385,-1
-682,508,-385,-1
-705,583,-345,-1
-733,651,-366,-1
-727,669,-397,-1
-738,691,-415,-1
-747,774,-437,-1
-763,770,-524,-1
-733,724,-584,-1
-570,570,-477,-1
-491,550,-494,-1
-472,546,-461,-1
-583,597,-403,-1
-730,661,-379,-1
-705,670,-344,-1
-629,573,-362,-1
-580,516,-379,-1
-548,518,-364,-1
-548,602,-357,-1
-558,718,-369,-1
-548,778,-374,-1
-534,794,-362,-1
-518,780,-347,-1
-516,760,-340,-1
-522,760,-342,-1
-555,791,-337,-1
-599,830,-309,-1
-660,858,-293,-1
-690,850,-329,-1
-714,803,-430,-1
-705,707,-449,-1
-645,662,-406,-1
-599,536,-369,-1
-570,427,-441,-1
-607,411,-459,-1
-626,507,-386,-1
-635,673,-325,-1
-692,690,-253,-1
-597,623,-337,-1
-643,601,-305,-1
-624,625,-271,-1
-665,739,-226,-1
-693,727,-207,-1
-677,724,-218,-1
-664,723,-226,-1
-671,703,-237,-1
-714,670,-275,-1
-746,729,-249,-1
-783,769,-270,-1
-753,863,-284,-1
-692,847,-316,-1
-616,692,-300,-1
-541,669,-277,-1
-511,623,-281,-1
-492,636,-226,-1
-554,663,-185,-1
-628,882,-113,-1
-634,728,-96,-1
-811,658,-178,-1
-685,601,-157,-1
-695,573,-195,-1
-666,725,-200,-1
-649,594,-156,-1
-698,721,-130,-1
-703,790,-88,-1
-696,734,-103,-1
-688,765,-83,-1
-668,822,-68,-1
-701,795,-43,-1
-678,801,-109,-1
-635,729,-121,-1
-589,728,-63,-1
-531,854,48,-1
-631,805,83,-1
-702,732,-224,-1
-597,588,-196,-1
-519,711,-209,-1
-523,775,-177,-1
-538,686,-292,-1
-579,644,-209,-1
-561,826,-275,-1
-544,824,-385,-1
-532,765,-384,-1
-566,679,-326,-1
-590,803,-370,-1
-579,848,-451,-1
-567,799,-406,-1
-568,747,-368,-1
-582,742,-457,-1
-566,690,-455,-1
-498,547,-360,-1
-372,581,-470,-1
-206,743,-525,-1
-227,668,-422,-1
-251,704,-528,-1
-348,636,-547,-1
-484,654,-553,-1
-486,660,-597,-1
-456,732,-624,-1
-367,582,-593,-1
-333,547,-568,-1
-288,437,-651,-1
-224,532,-711,-1
-198,716,-696,-1
-191,679,-608,-1
-105,767,-669,-1
-117,927,-601,-1
-122,624,-739,-1
-2,834,-713,-1
-4,763,-434,-1
123,826,-415,-1
123,1138,-364,-1
202,1015,-288,-1
188,1180,-282,-1
185,1048,-219,-1
107,1120,-175,-1
106,994,21,-1
96,1120,104,-1
80,964,207,-1
94,959,249,-1
114,904,343,-1
179,635,402,-1
356,1057,251,-1
496,899,435,-1
563,1095,361,-1
377,995,-6,-1
274,840,-443,-1
364,1018,-348,-1
387,914,-381,-1
324,783,-546,-1
231,692,-439,-1
174,573,-463,-1
118,621,-482,-1
84,727,-534,-1
31,839,-437,-1
15,842,-510,-1
-60,978,-519,-1
-56,933,-553,-1
-60,1012,-643,-1
-9,942,-651,-1
56,986,-643,-1
111,736,-650,-1
173,841,-671,-1
183,670,-647,-1
223,703,-658,-1
274,790,-653,-1
317,631,-590,-1
299,642,-621,-1
215,565,-640,-1
208,658,-713,-1
187,655,-709,-1
197,693,-739,-1
229,643,-665,-1
192,715,-645,-1
217,636,-650,-1
188,695,-701,-1
150,673,-730,-1
134,622,-742,-1
119,574,-797,-1
185,641,-776,-1
259,630,-737,-1
269,609,-684,-1
247,567,-651,-1
236,582,-728,-1
232,583,-817,-1
206,584,-799,-1
153,527,-793,-1
125,559,-732,-1
163,549,-740,-1
166,511,-787,-1
97,580,-819,-1
81,550,-831,-1
62,605,-770,-1
43,586,-799,-1
64,525,-778,-1
61,523,-766,-1
73,561,-770,-1
103,538,-796,-1
151,508,-819,-1
199,515,-799,-1
218,494,-790,-1
227,516,-776,-1
233,518,-831,-1
253,545,-832,-1
280,512,-776,-1
234,540,-804,-1
200,524,-768,-1
192,538,-791,-1
191,537,-789,-1
205,548,-780,-1
185,555,-785,-1
228,529,-780,-1
205,549,-786,-1
183,577,-754,-1
184,619,-728,-1
214,606,-711,-1
261,665,-659,-1
298,684,-644,-1
342,794,-668,-1
307,811,-592,-1
195,1045,-473,-1
30,963,-511,-1
-112,1025,-434,-1
-120,1060,-432,-1
-114,803,-349,-1
-31,816,-391,-1
54,914,-260,-1
114,790,-215,-1
204,785,-252,-1
319,937,-252,-1
359,896,-321,-1
450,1227,-126,-1
325,833,-176,-1
261,806,-184,-1
227,962,-157,-1
211,985,-92,-1
212,879,-28,-1
214,828,-29,-1
220,905,-44,-1
280,920,-79,-1
345,1077,-209,-1
370,1134,-166,-1
336,1041,-168,-1
218,955,-159,-1
115,899,-116,-1
63,830,-136,-1
78,883,-179,-1
112,1019,-172,-1
118,931,-197,-1
150,910,-229,-1
143,920,-232,-1
125,906,-203,-1
124,922,-186,-1
124,934,-177,-1
109,921,-193,-1
100,940,-208,-1
78,941,-190,-1
58,949,-196,-1
64,997,-192,-1
64,984,-195,-1
47,961,-206,-1
42,965,-205,-1
42,921,-239,-1
35,923,-235,-1
41,941,-225,-1
53,921,-231,-1
57,889,-221,-1
67,890,-231,-1
82,890,-219,-1
98,903,-220,-1
107,913,-213,-1
88,928,-203,-1
77,940,-203,-1
45,947,-180,-1
17,976,-188,-1
-12,958,-189,-1
-20,996,-188,-1
-42,978,-212,-1
-50,988,-224,-1
-30,999,-213,-1
-1,998,-213,-1
31,1008,-212,-1
82,1020,-201,-1
141,1015,-188,-1
176,987,-177,-1
173,928,-161,-1
156,869,-148,-1
143,886,-177,-1
140,899,-218,-1
138,921,-231,-1
122,936,-251,-1
111,942,-252,-1
106,928,-257,-1
110,927,-261,-1
111,930,-256,-1
116,921,-261,-1
112,904,-254,-1
104,907,-253,-1
101,900,-265,-1
101,909,-259,-1
104,923,-269,-1
114,937,-279,-1
128,956,-276,-1
138,967,-289,-1
137,969,-294,-1
108,937,-278,-1
78,930,-266,-1
56,913,-252,-1
45,921,-256,-1
43,919,-264,-1
41,935,-263,-1
48,942,-274,-1
55,940,-266,-1
66,937,-257,-1
74,931,-255,-1
84,925,-263,-1
86,925,-264,-1
76,920,-261,-1
67,925,-265,-1
63,938,-267,-1
64,952,-277,-1
67,960,-287,-1
64,959,-274,-1
53,946,-270,-1
45,934,-273,-1
43,922,-263,-1
34,936,-276,-1
11,944,-274,-1
-20,918,-289,-1
0,887,-310,-1
28,893,-304,-1
59,922,-288,-1
94,957,-264,-1
102,948,-250,-1
91,945,-253,-1
77,920,-244,-1
69,928,-231,-1
63,940,-225,-1
68,958,-228,-1
79,973,-238,-1
98,984,-249,-1
96,944,-252,-1
81,929,-256,-1
68,934,-255,-1
65,935,-259,-1
76,936,-259,-1
81,920,-267,-1
81,937,-275,-1
85,940,-270,-1
84,934,-271,-1
71,921,-266,-1
57,927,-258,-1
53,946,-254,-1
43,928,-250,-1
41,918,-242,-1
38,919,-236,-1
37,925,-245,-1
44,928,-242,-1
55,945,-244,-1
61,950,-242,-1
68,951,-237,-1
75,943,-226,-1
76,925,-218,-1
73,927,-218,-1
71,938,-234,-1
69,945,-253,-1
66,955,-260,-1
65,956,-247,-1
74,952,-243,-1
88,949,-236,-1
103,947,-232,-1
104,938,-238,-1
89,920,-236,-1
68,923,-229,-1
46,923,-232,-1
34,933,-234,-1
33,953,-236,-1
36,957,-241,-1
42,948,-233,-1
47,952,-231,-1
48,936,-236,-1
47,937,-244,-1
49,941,-244,-1
54,942,-252,-1
60,940,-257,-1
64,935,-252,-1
65,932,-254,-1
68,928,-255,-1
67,934,-251,-1
68,930,-259,-1
60,920,-259,-1
45,922,-263,-1
37,925,-266,-1
39,934,-271,-1
48,942,-275,-1
58,946,-268,-1
90,985,-265,-1
108,958,-255,-1
113,938,-249,-1
109,935,-253,-1
82,908,-273,-1
39,894,-285,-1
-5,903,-299,-1
-41,932,-311,-1
-51,955,-317,-1
-70,933,-315,-1
-85,945,-330,-1
-98,933,-350,-1
-87,956,-355,-1
-76,954,-357,-1
-64,953,-364,-1
-50,927,-351,-1
-36,905,-341,-1
-33,876,-325,-1
-42,858,-323,-1
-58,842,-318,-1
-77,850,-336,-1
-84,863,-359,-1
-101,868,-361,-1
-116,924,-378,-1
-88,978,-391,-1
-56,948,-359,-1
-23,984,-361,-1
-7,930,-324,-1
-11,889,-312,-1
-29,881,-298,-1
-36,909,-299,-1
-37,909,-306,-1
-37,912,-320,-1
-50,894,-320,-1
-63,905,-335,-1
-59,916,-343,-1
-36,961,-334,-1
5,972,-313,-1
33,955,-285,-1
33,901,-275,-1
-2,852,-267,-1
-32,897,-264,-1
-46,901,-270,-1
-50,918,-277,-1
-58,920,-285,-1
-68,910,-292,-1
-76,911,-301,-1
-91,891,-302,-1
-99,902,-312,-1
-90,930,-331,-1
-69,950,-339,-1
-39,979,-342,-1
-23,967,-333,-1
-10,945,-327,-1
-3,919,-316,-1
0,913,-313,-1
1,914,-316,-1
-1,911,-321,-1
-13,904,-322,-1
-24,900,-332,-1
-33,903,-334,-1
-38,914,-336,-1
-32,931,-340,-1
-35,927,-334,-1
-30,932,-332,-1
-24,911,-328,-1
-36,908,-324,-1
-42,921,-332,-1
-36,904,-326,-1
-46,901,-325,-1
-48,929,-336,-1
-31,928,-333,-1
-31,943,-335,-1
-35,945,-322,-1
-51,900,-318,-1
-91,845,-320,-1
-125,860,-343,-1
-82,943,-350,-1
-40,963,-357,-1
-20,939,-335,-1
-15,917,-319,-1
0,916,-319,-1
21,905,-302,-1
31,915,-318,-1
28,891,-324,-1
5,886,-322,-1
-21,886,-330,-1
-47,877,-331,-1
-70,878,-339,-1
-108,881,-382,-1
-176,857,-340,-1
-199,718,-261,-1
-169,718,-184,-1
16,830,-265,-1
97,811,-224,-1
233,1068,-137,-1
340,1331,66,-1
396,1173,17,-1
364,957,208,-1
355,805,323,-1
308,859,375,-1
315,905,436,-1
353,832,410,-1
359,919,341,-1
377,1259,339,-1
284,932,576,-1
287,806,566,-1
187,732,769,-1
37,730,843,-1
-15,485,773,-1
47,405,770,-1
245,323,682,-1
371,143,573,-1
607,196,767,-1
861,154,648,-1
977,329,798,-1
781,235,1136,-1
563,283,910,-1
465,174,825,-1
404,231,743,-1
556,172,935,-1
484,41,1010,-1
487,277,780,-1
487,289,944,-1
479,96,990,-1
430,319,940,-1
390,214,842,-1
384,187,936,-1
342,290,777,-1
306,348,692,-1
294,297,870,-1
307,205,938,-1
317,261,920,-1
361,371,868,-1
374,353,836,-1
373,344,857,-1
356,298,795,-1
382,211,774,-1
420,211,877,-1
404,278,903,-1
389,288,831,-1
405,369,776,-1
405,555,726,-1
529,702,754,-1
512,643,718,-1
499,341,662,-1
558,107,579,-1
574,-6,855,-1
460,140,847,-1
439,-72,815,-1
475,27,815,-1
535,181,823,-1
532,145,732,-1
521,63,729,-1
681,197,795,-1
740,294,903,-1
668,179,871,-1
630,138,859,-1
587,109,846,-1
607,174,818,-1
638,198,777,-1
623,490,772,-1
648,335,694,-1
732,270,697,-1
726,401,720,-1
684,394,690,-1
595,431,668,-1
544,382,686,-1
448,408,704,-1
227,588,709,-1
-102,660,748,-1
-189,667,977,-1
67,535,1074,-1
164,248,980,-1
304,99,937,-1
505,284,936,-1
530,288,778,-1
515,248,618,-1
571,740,714,-1
572,500,804,-1
386,547,810,-1
312,408,916,-1
309,379,831,-1
375,345,730,-1
518,338,730,-1
683,497,743,-1
814,431,612,-1
822,404,596,-1
749,357,656,-1
588,109,683,-1
447,310,744,-1
423,363,762,-1
400,277,832,-1
342,266,883,-1
369,448,1038,-1
353,327,948,-1
277,265,866,-1
292,376,905,-1
352,386,870,-1
310,359,841,-1
343,462,836,-1
371,492,853,-1
284,337,860,-1
330,420,845,-1
337,427,845,-1
324,369,839,-1
333,501,800,-1
280,461,772,-1
368,637,783,-1
413,657,819,-1
360,516,819,-1
394,707,740,-1
465,919,691,-1
358,913,691,-1
331,978,521,-1
290,967,477,-1
198,932,432,-1
122,657,461,-1
37,622,551,-1
-86,328,639,-1
-72,273,760,-1
-153,269,889,-1
-124,202,1104,-1
-144,300,1096,-1
-159,202,1001,-1
-133,282,958,-1
-120,233,959,-1
-155,207,974,-1
-182,96,1011,-1
-262,171,960,-1
-291,112,875,-1
-153,430,923,-1
-131,501,814,-1
35,455,640,-1
360,1054,807,-1
952,938,1315,-1
579,818,725,-1
41,774,566,-1
-30,849,426,-1
-197,874,136,-1
-266,908,111,-1
-227,1122,172,-1
-224,882,346,-1
-113,689,372,-1
-39,815,317,-1
78,954,188,-1
110,1039,743,-1
-171,919,319,-1
-257,1135,56,-1
-347,970,-11,-1
-315,853,25,-1
-204,845,-3,-1
-117,823,252,-1
-53,792,121,-1
-7,825,145,-1
10,814,-148,-1
-34,766,-446,-1
-117,739,-601,-1
-115,640,-839,-1
-124,428,-963,-1
-149,227,-1070,-1
-148,78,-1241,-1
-123,111,-1150,-1
-56,146,-998,-1
-35,134,-944,-1
36,299,-918,-1
180,372,-952,-1
298,287,-1072,-1
283,269,-1035,-1
282,217,-1053,-1
265,158,-1025,-1
339,266,-868,-1
363,292,-875,-1
429,292,-862,-1
372,366,-787,-1
371,300,-842,-1
395,434,-814,-1
371,349,-895,-1
365,417,-845,-1
386,408,-850,-1
413,433,-850,-1
438,506,-797,-1
482,314,-758,-1
463,333,-644,-1
379,306,-599,-1
332,394,-618,-1
247,312,-891,-1
175,248,-1017,-1
165,215,-1066,-1
228,234,-986,-1
386,236,-941,-1
264,78,-1098,-1
280,194,-886,-1
325,232,-855,-1
368,175,-851,-1
393,162,-876,-1
378,215,-890,-1
383,146,-843,-1
399,239,-910,-1
429,292,-961,-1
428,298,-873,-1
450,456,-818,-1
539,429,-830,-1
540,433,-827,-1
548,455,-807,-1
429,564,-576,-1
310,707,-598,-1
132,739,-610,-1
-5,628,-486,-1
49,784,-293,-1
248,1064,-347,-1
393,862,-418,-1
411,953,-73,-1
331,835,-15,-1
317,924,143,-1
237,595,173,-1
211,890,288,-1
171,947,235,-1
139,944,150,-1
401,1167,245,-1
483,898,349,-1
360,723,304,-1
392,852,165,-1
330,767,147,-1
338,897,238,-1
309,908,258,-1
322,1030,357,-1
350,939,454,-1
443,943,376,-1
515,854,389,-1
521,843,468,-1
352,594,633,-1
234,589,480,-1
116,529,497,-1
43,672,506,-1
110,684,485,-1
238,820,688,-1
589,742,1124,-1
393,673,879,-1
429,570,797,-1
471,358,603,-1
555,491,599,-1
627,743,567,-1
702,624,739,-1
707,586,645,-1
507,666,535,-1
276,942,498,-1
25,1160,252,-1
-87,989,205,-1
-185,1005,219,-1
-163,1133,105,-1
-162,940,79,-1
-165,950,-14,-1
-73,1053,-122,-1
-5,972,-109,-1
0,880,-219,-1
-2,730,-306,-1
19,935,-396,-1
62,961,-377,-1
79,983,-383,-1
93,911,-455,-1
101,828,-596,-1
105,886,-593,-1
97,769,-601,-1
32,612,-834,-1
-46,608,-759,-1
-68,461,-666,-1
-141,563,-761,-1
-131,474,-798,-1
-170,535,-838,-1
-241,561,-969,-1
-233,386,-852,-1
-237,352,-913,-1
-278,322,-885,-1
-258,282,-813,-1
-334,174,-958,-1
-347,336,-910,-1
-369,389,-1136,-1
-387,383,-1158,-1
-283,470,-956,-1
-233,419,-705,-1
-273,356,-689,-1
-339,422,-732,-1
-353,470,-791,-1
-320,519,-813,-1
-275,510,-756,-1
-264,512,-744,-1
-270,550,-744,-1
-260,578,-707,-1
-254,608,-674,-1
-248,623,-642,-1
-240,665,-625,-1
-239,670,-626,-1
-263,697,-637,-1
-288,745,-726,-1
-290,760,-799,-1
-251,704,-693,-1
-277,678,-542,-1
-318,790,-535,-1
-324,802,-559,-1
-290,804,-569,-1
-288,772,-574,-1
-311,734,-560,-1
-332,691,-540,-1
-365,667,-515,-1
-402,666,-520,-1
-430,659,-546,-1
-447,645,-584,-1
-457,624,-599,-1
-461,611,-623,-1
-471,606,-621,-1
-466,627,-663,-1
-443,655,-694,-1
-396,724,-745,-1
-373,808,-806,-1
-276,796,-782,-1
-236,702,-717,-1
-234,654,-704,-1
-241,598,-705,-1
-246,564,-682,-1
-256,528,-666,-1
-296,505,-673,-1
-350,554,-725,-1
-390,587,-780,-1
-398,606,-815,-1
-385,683,-891,-1
-349,741,-884,-1
-326,683,-820,-1
-305,668,-758,-1
-298,662,-708,-1
-293,630,-659,-1
-297,620,-612,-1
-335,673,-649,-1
-308,634,-612,-1
-309,571,-530,-1
-347,641,-498,-1
-414,658,-529,-1
-448,722,-554,-1
-443,809,-585,-1
-378,892,-603,-1
-335,834,-495,-1
-331,797,-433,-1
-354,789,-442,-1
-376,769,-461,-1
-377,753,-479,-1
-383,720,-485,-1
-380,744,-516,-1
-360,744,-523,-1
-328,759,-524,-1
-304,775,-520,-1
-296,758,-494,-1
-305,759,-454,-1
-336,767,-442,-1
-370,782,-447,-1
-402,795,-452,-1
-423,795,-469,-1
-438,793,-477,-1
-456,776,-498,-1
-523,776,-558,-1
-519,824,-653,-1
-422,734,-588,-1
-392,675,-526,-1
-399,722,-571,-1
-373,701,-604,-1
-340,696,-598,-1
-346,704,-569,-1
-342,678,-516,-1
-365,650,-479,-1
-395,663,-464,-1
-413,669,-459,-1
-420,664,-452,-1
-430,699,-459,-1
-441,695,-464,-1
-461,711,-481,-1
-477,755,-495,-1
-466,764,-492,-1
-522,787,-574,-1
-482,915,-745,-1
-342,759,-592,-1
-259,622,-432,-1
-308,745,-474,-1
-325,772,-548,-1
-303,738,-552,-1
-323,730,-464,-1
-387,692,-380,-1
-454,681,-386,-1
-494,730,-423,-1
-508,747,-424,-1
-498,767,-470,-1
-459,778,-506,-1
-427,751,-492,-1
-428,775,-500,-1
-441,820,-543,-1
-397,868,-625,-1
-332,839,-618,-1
-299,744,-576,-1
-322,729,-588,-1
-335,680,-591,-1
-338,609,-548,-1
-381,622,-564,-1
-423,675,-633,-1
-400,670,-643,-1
-369,629,-587,-1
-367,635,-554,-1
-393,608,-535,-1
-419,625,-550,-1
-428,686,-562,-1
-411,741,-578,-1
-383,789,-581,-1
-367,779,-536,-1
-357,759,-485,-1
-365,750,-447,-1
-393,732,-446,-1
-446,775,-508,-1
-447,803,-571,-1
-399,765,-556,-1
-388,785,-555,-1
-379,758,-535,-1
-360,693,-520,-1
-354,647,-512,-1
-382,655,-545,-1
-400,681,-578,-1
-396,688,-564,-1
-392,688,-526,-1
-402,705,-501,-1
-418,707,-499,-1
-430,709,-510,-1
-433,707,-516,-1
-423,713,-531,-1
-421,715,-536,-1
-423,740,-552,-1
-419,743,-577,-1
-395,761,-623,-1
-375,765,-632,-1
-344,703,-580,-1
-346,661,-564,-1
-364,636,-583,-1
-377,635,-606,-1
-372,619,-631,-1
-376,603,-658,-1
-387,607,-663,-1
-401,606,-659,-1
-411,618,-667,-1
-414,632,-674,-1
-405,642,-678,-1
-397,675,-703,-1
-380,700,-716,-1
-369,667,-685,-1
-375,651,-652,-1
-391,635,-622,-1
-419,617,-607,-1
-437,643,-603,-1
-448,655,-597,-1
-449,663,-606,-1
-451,692,-606,-1
-418,656,-555,-1
-418,625,-532,-1
-424,666,-556,-1
-422,677,-521,-1
-420,666,-529,-1
-433,657,-505,-1
-454,655,-504,-1
-478,674,-516,-1
-487,699,-535,-1
-484,722,-563,-1
-458,745,-549,-1
-442,784,-540,-1
-422,806,-558,-1
-434,794,-595,-1
-443,713,-642,-1
-466,615,-714,-1
-464,545,-726,-1
-444,458,-715,-1
-429,421,-709,-1
-415,430,-677,-1
-408,453,-641,-1
-403,484,-621,-1
-393,534,-624,-1
-387,616,-596,-1
-380,693,-616,-1
-397,736,-736,-1
-385,763,-835,-1
-367,733,-721,-1
-347,632,-616,-1
-366,589,-562,-1
-409,637,-654,-1
-409,653,-727,-1
-375,641,-732,-1
-337,642,-689,-1
-331,674,-659,-1
-328,694,-646,-1
-303,692,-592,-1
-278,685,-544,-1
-260,685,-529,-1
-269,720,-540,-1
-283,758,-544,-1
-294,781,-520,-1
-303,761,-487,-1
-335,724,-475,-1
-366,726,-463,-1
-395,722,-483,-1
-421,691,-518,-1
-435,709,-555,-1
-434,730,-594,-1
-418,742,-625,-1
-406,734,-616,-1
-404,705,-590,-1
-420,693,-586,-1
-438,682,-570,-1
-442,689,-564,-1
-444,682,-576,-1
-439,696,-603,-1
-422,709,-616,-1
-411,684,-605,-1
-410,669,-601,-1
-417,667,-612,-1
-420,692,-662,-1
-361,675,-606,-1
-311,678,-568,-1
-294,736,-591,-1
-258,793,-628,-1
-196,846,-651,-1
-135,842,-636,-1
-99,793,-545,-1
-93,779,-462,-1
-106,790,-444,-1
-125,800,-447,-1
-160,825,-433,-1
-202,837,-467,-1
-237,816,-480,-1
-273,788,-470,-1
-314,785,-481,-1
-352,780,-505,-1
-365,752,-527,-1
-363,741,-555,-1
-354,759,-570,-1
-330,765,-555,-1
-304,772,-538,-1
-275,785,-514,-1
-261,787,-482,-1
-257,804,-485,-1
-255,849,-507,-1
-240,865,-525,-1
-257,869,-577,-1
-307,878,-672,-1
-341,812,-737,-1
-374,696,-697,-1
-401,538,-644,-1
-458,480,-657,-1
-498,474,-733,-1
-513,461,-782,-1
-470,403,-742,-1
-446,391,-701,-1
-460,425,-691,-1
-466,468,-737,-1
-458,513,-792,-1
-412,559,-769,-1
-390,579,-743,-1
-386,596,-725,-1
-388,622,-717,-1
-400,686,-746,-1
-427,721,-813,-1
-425,779,-909,-1
-295,681,-681,-1
-243,572,-469,-1
-279,649,-500,-1
-289,663,-577,-1
-265,651,-644,-1
-250,643,-690,-1
-269,635,-646,-1
-288,637,-622,-1
-296,629,-613,-1
-297,640,-607,-1
-274,680,-609,-1
-244,716,-582,-1
-211,755,-576,-1
-202,747,-544,-1
-246,759,-568,-1
-279,758,-596,-1
-329,735,-605,-1
-427,785,-722,-1
-426,865,-827,-1
-343,660,-669,-1
-353,618,-649,-1
-381,663,-719,-1
-353,629,-739,-1
-300,568,-688,-1
-273,568,-643,-1
-292,522,-585,-1
-341,480,-632,-1
-378,492,-601,-1
-378,450,-580,-1
-429,514,-638,-1
-426,545,-672,-1
-442,608,-712,-1
-448,643,-781,-1
-460,662,-875,-1
-401,676,-818,-1
-331,611,-688,-1
-343,584,-719,-1
-296,612,-753,-1
-277,577,-717,-1
-295,435,-658,-1
-287,494,-615,-1
-383,438,-664,-1
-399,388,-695,-1
-422,424,-758,-1
-418,489,-785,-1
-411,562,-757,-1
-420,571,-746,-1
-405,598,-778,-1
-410,639,-746,-1
-427,634,-760,-1
-430,648,-760,-1
-476,648,-797,-1
-532,648,-871,-1
-458,559,-719,-1
-435,457,-628,-1
-493,478,-743,-1
-524,528,-810,-1
-479,475,-765,-1
-452,428,-727,-1
-479,419,-675,-1
-493,474,-643,-1
-473,524,-581,-1
-462,589,-560,-1
-473,663,-576,-1
-529,715,-596,-1
-545,763,-592,-1
-508,755,-617,-1
-444,746,-610,-1
-415,732,-478,-1
-403,667,-420,-1
-431,644,-391,-1
-380,762,-393,-1
-351,742,-305,-1
-311,687,-306,-1
-355,689,-314,-1
-403,664,-266,-1
-489,672,-327,-1
-648,821,-476,-1
-540,880,-577,-1
-579,760,-531,-1
-537,1006,-587,-1
-395,902,-383,-1
-367,789,-401,-1
-410,850,-334,-1
-297,644,-305,-1
-250,659,-397,-1
-324,792,-496,-1
-315,779,-494,-1
-332,921,-462,-1
-339,967,-531,-1
-254,785,-562,-1
-286,860,-571,-1
-287,794,-595,-1
-298,709,-619,-1
-357,683,-623,-1
-402,609,-559,-1
-385,582,-567,-1
-425,518,-619,-1
-470,457,-638,-1
-528,413,-631,-1
-546,433,-622,-1
-666,386,-561,-1
-872,383,-464,-1
-621,352,-564,-1
-753,386,-616,-1
-711,511,-650,-1
-651,515,-729,-1
-655,780,-953,-1
-462,870,-1106,-1
-298,698,-917,-1
-134,460,-751,-1
-210,774,-824,-1
7,643,-660,-1
-19,516,-711,-1
13,444,-616,-1
-76,504,-663,-1
-108,406,-747,-1
-178,481,-787,-1
-212,522,-793,-1
-256,488,-834,-1
-238,478,-891,-1
-219,506,-821,-1
-156,510,-862,-1
-108,509,-761,-1
-65,591,-980,-1
60,586,-1040,-1
153,685,-943,-1
167,813,-764,-1
187,917,-703,-1
210,876,-711,-1
193,772,-591,-1
183,659,-576,-1
190,637,-555,-1
223,625,-471,-1
275,638,-539,-1
310,648,-494,-1
346,691,-453,-1
388,660,-411,-1
436,585,-452,-1
474,585,-597,-1
487,633,-832,-1
454,587,-821,-1
436,651,-671,-1
445,643,-602,-1
475,663,-581,-1
502,639,-517,-1
535,540,-480,-1
558,557,-498,-1
580,611,-459,-1
595,614,-433,-1
606,583,-487,-1
605,558,-474,-1
592,586,-450,-1
613,553,-492,-1
614,586,-532,-1
610,626,-545,-1
600,629,-566,-1
584,633,-602,-1
567,632,-593,-1
549,638,-546,-1
548,600,-546,-1
556,603,-513,-1
559,610,-465,-1
566,591,-463,-1
581,603,-436,-1
599,618,-438,-1
607,587,-448,-1
597,602,-415,-1
603,654,-399,-1
621,650,-375,-1
654,617,-348,-1
677,591,-342,-1
717,551,-368,-1
716,534,-352,-1
727,559,-335,-1
734,574,-345,-1
721,583,-325,-1
730,589,-300,-1
742,573,-282,-1
758,569,-265,-1
766,575,-252,-1
769,577,-228,-1
776,507,-227,-1
784,515,-231,-1
795,554,-214,-1
788,543,-199,-1
772,523,-192,-1
768,539,-188,-1
766,565,-186,-1
764,578,-185,-1
760,574,-187,-1
760,570,-172,-1
775,560,-163,-1
778,583,-153,-1
774,559,-159,-1
771,542,-162,-1
770,560,-156,-1
771,553,-165,-1
767,551,-179,-1
766,563,-187,-1
765,568,-175,-1
780,571,-175,-1
795,554,-172,-1
794,553,-152,-1
804,563,-153,-1
811,554,-146,-1
811,552,-124,-1
800,545,-136,-1
787,550,-143,-1
783,541,-132,-1
778,523,-141,-1
779,526,-143,-1
782,511,-122,-1
789,494,-116,-1
817,468,-117,-1
850,451,-107,-1
869,422,-115,-1
864,407,-121,-1
844,456,-128,-1
887,516,-143,-1
922,466,-134,-1
952,398,-125,-1
928,374,-118,-1
881,428,-102,-1
869,436,-95,-1
833,442,-90,-1
836,484,-99,-1
827,521,-103,-1
804,494,-123,-1
765,512,-139,-1
732,561,-130,-1
715,599,-134,-1
706,620,-126,-1
685,593,-104,-1
676,605,-127,-1
690,676,-163,-1
688,678,-183,-1
648,680,-229,-1
609,713,-272,-1
591,723,-255,-1
569,706,-228,-1
591,724,-235,-1
639,723,-277,-1
648,781,-314,-1
593,757,-325,-1
570,741,-382,-1
535,736,-426,-1
515,728,-494,-1
454,704,-611,-1
357,704,-650,-1
274,671,-693,-1
217,621,-689,-1
193,600,-722,-1
180,624,-731,-1
168,591,-720,-1
178,592,-706,-1
169,562,-702,-1
139,553,-722,-1
120,586,-716,-1
72,618,-725,-1
44,662,-724,-1
18,674,-748,-1
11,702,-771,-1
18,713,-796,-1
50,740,-813,-1
103,731,-867,-1
168,743,-901,-1
202,697,-724,-1
261,690,-632,-1
261,650,-595,-1
165,588,-599,-1
61,674,-655,-1
-24,677,-662,-1
-78,658,-634,-1
-107,676,-600,-1
-141,676,-588,-1
-168,720,-584,-1
-182,765,-559,-1
-196,774,-580,-1
-208,785,-543,-1
-198,779,-551,-1
-209,798,-605,-1
-136,954,-706,-1
10,1104,-806,-1
61,933,-648,-1
60,654,-493,-1
-13,556,-409,-1
-52,669,-507,-1
-127,813,-569,-1
-93,907,-583,-1
-94,931,-470,-1
-111,872,-330,-1
-107,818,-283,-1
-96,833,-254,-1
-121,837,-231,-1
-158,954,-241,-1
-192,1025,-198,-1
-226,963,-190,-1
-271,927,-227,-1
-313,875,-218,-1
-360,883,-183,-1
-408,906,-214,-1
-507,851,-240,-1
-430,961,-272,-1
-251,1171,-270,-1
-48,1126,-256,-1
79,963,-276,-1
165,935,-303,-1
90,768,-460,-1
129,789,-557,-1
80,772,-517,-1
-12,800,-656,-1
-78,765,-658,-1
-254,719,-780,-1
-279,838,-703,-1
-245,608,-675,-1
-248,451,-612,-1
-260,515,-606,-1
-303,584,-562,-1
-341,628,-572,-1
-388,635,-583,-1
-455,654,-662,-1
-509,652,-639,-1
-565,703,-659,-1
-587,697,-668,-1
-507,664,-660,-1
-444,623,-664,-1
-396,556,-627,-1
-388,554,-604,-1
-377,614,-554,-1
-344,601,-508,-1
-347,607,-503,-1
-390,630,-520,-1
-389,628,-468,-1
-402,634,-474,-1
-424,647,-512,-1
-446,649,-533,-1
-448,690,-596,-1
-458,738,-625,-1
-456,743,-665,-1
-473,805,-821,-1
-370,806,-807,-1
-278,802,-691,-1
-194,833,-606,-1
-131,696,-507,-1
-163,641,-513,-1
-254,637,-545,-1
-304,593,-556,-1
-334,561,-589,-1
-368,589,-560,-1
-401,631,-534,-1
-434,668,-538,-1
-451,696,-573,-1
-448,721,-599,-1
-429,794,-641,-1
-419,790,-683,-1
-456,791,-762,-1
-464,882,-841,-1
-362,777,-711,-1
-334,679,-592,-1
-351,680,-588,-1
-336,665,-613,-1
-297,611,-575,-1
-284,585,-556,-1
-286,608,-579,-1
-287,605,-568,-1
-280,598,-575,-1
-296,580,-550,-1
-336,639,-550,-1
-367,653,-577,-1
-379,664,-556,-1
-376,673,-536,-1
-432,707,-592,-1
-470,737,-676,-1
-460,774,-710,-1
-359,798,-640,-1
-301,784,-570,-1
-246,902,-596,-1
-163,860,-608,-1
-139,744,-613,-1
-192,667,-546,-1
-252,637,-487,-1
-301,651,-462,-1
-357,669,-482,-1
-396,696,-521,-1
-410,748,-582,-1
-396,784,-613,-1
-387,744,-567,-1
-406,729,-549,-1
-418,718,-573,-1
-409,683,-581,-1
-422,683,-611,-1
-443,737,-679,-1
-409,715,-699,-1
-384,701,-672,-1
-365,675,-598,-1
-381,630,-584,-1
-417,683,-650,-1
-410,687,-675,-1
-379,679,-714,-1
-342,635,-662,-1
-328,549,-581,-1
-360,558,-588,-1
-399,573,-604,-1
-414,600,-621,-1
-423,639,-637,-1
-412,680,-659,-1
-400,692,-628,-1
-389,687,-571,-1
-392,707,-547,-1
-391,731,-531,-1
-378,746,-513,-1
-409,726,-557,-1
-418,723,-560,-1
-416,689,-549,-1
-407,679,-528,-1
-398,741,-521,-1
-348,777,-547,-1
-274,860,-636,-1
-225,837,-595,-1
-219,770,-532,-1
-259,732,-470,-1
-292,678,-425,-1
-322,676,-437,-1
-370,716,-451,-1
-372,735,-478,-1
-364,758,-513,-1
-371,808,-544,-1
-366,802,-519,-1
-422,831,-618,-1
-443,976,-789,-1
-330,901,-771,-1
-246,746,-603,-1
-251,742,-578,-1
-231,790,-680,-1
-160,744,-702,-1
-127,629,-668,-1
-141,638,-619,-1
-163,671,-649,-1
-123,667,-666,-1
-99,649,-680,-1
-115,689,-715,-1
-120,749,-733,-1
-152,779,-778,-1
-155,788,-748,-1
-171,627,-583,-1
-247,581,-486,-1
-379,649,-533,-1
-409,719,-540,-1
-382,764,-550,-1
-359,826,-549,-1
-380,784,-491,-1
-379,734,-450,-1
-398,772,-407,-1
-422,758,-437,-1
-445,787,-477,-1
-408,862,-477,-1
-367,969,-569,-1
-366,1033,-709,-1
-318,902,-718,-1
-286,744,-631,-1
-321,605,-560,-1
-365,544,-525,-1
-402,472,-506,-1
-443,540,-547,-1
-472,637,-589,-1
-469,648,-650,-1
-452,760,-681,-1
-387,850,-600,-1
-335,866,-478,-1
-316,927,-437,-1
-298,957,-419,-1
-275,955,-419,-1
-264,860,-419,-1
-313,814,-481,-1
-329,874,-561,-1
-219,944,-584,-1
-105,878,-437,-1
-52,787,-338,-1
-78,751,-370,-1
-99,708,-393,-1
-151,664,-380,-1
-220,659,-402,-1
-288,691,-416,-1
-349,717,-381,-1
-407,798,-375,-1
-445,855,-367,-1
-485,864,-412,-1
-525,940,-505,-1
-492,1057,-603,-1
-497,958,-624,-1
-507,1073,-715,-1
-377,981,-627,-1
-289,804,-542,-1
-273,768,-509,-1
-262,793,-530,-1
-244,770,-539,-1
-201,718,-477,-1
-176,692,-387,-1
-192,686,-345,-1
-200,646,-348,-1
-199,606,-290,-1
-209,660,-288,-1
-244,730,-356,-1
-296,824,-381,-1
-328,893,-434,-1
-379,968,-512,-1
-360,1032,-591,-1
-336,1084,-560,-1
-262,1113,-467,-1
-195,946,-406,-1
-188,779,-375,-1
-209,729,-387,-1
-238,677,-392,-1
-272,647,-432,-1
-320,646,-414,-1
-360,702,-344,-1
-429,733,-312,-1
-490,823,-306,-1
-512,838,-368,-1
-513,866,-466,-1
-503,950,-549,-1
-526,1067,-588,-1
-397,1066,-588,-1
-231,935,-518,-1
-225,776,-445,-1
-188,772,-372,-1
-144,804,-400,-1
-140,739,-397,-1
-185,713,-318,-1
-214,851,-312,-1
-264,904,-276,-1
-230,877,-236,-1
-234,1072,-177,-1
-274,866,-191,-1
-289,927,-125,-1
-290,984,-91,-1
-283,969,24,-1
-230,1052,12,-1
-90,1135,0,-1
7,1082,60,-1
72,1012,121,-1
156,818,123,-1
82,567,135,-1
12,797,141,-1
-60,924,128,-1
-56,959,119,-1
-72,880,137,-1
-112,872,204,-1
-180,945,253,-1
-230,913,251,-1
-276,910,205,-1
-263,1085,115,-1
-226,1260,38,-1
-215,1254,31,-1
-133,1363,-31,-1
0,1306,-33,-1
103,1263,-35,-1
90,1020,-24,-1
85,990,-2,-1
155,894,-80,-1
236,1083,-25,-1
298,1066,-7,-1
327,954,58,-1
286,848,111,-1
318,772,177,-1
360,776,135,-1
404,699,83,-1
512,692,149,-1
546,816,-13,-1
730,533,116,-1
516,449,238,-1
338,1421,143,-1
350,1578,24,-1
171,1247,-26,-1
200,707,174,-1
223,855,269,-1
216,882,264,-1
250,795,389,-1
515,1017,447,-1
541,824,427,-1
339,891,415,-1
257,892,360,-1
267,850,379,-1
139,906,327,-1
-71,861,303,-1
-119,1120,365,-1
-150,1025,261,-1
-175,964,224,-1
-220,981,154,-1
-221,962,90,-1
-166,863,58,-1
-142,1018,-71,-1
-57,1077,-133,-1
93,921,-73,-1
54,1192,-122,-1
-24,796,-137,-1
-51,915,-159,-1
60,1017,-137,-1
92,969,-181,-1
151,973,-193,-1
133,988,-159,-1
86,1014,-126,-1
60,929,-133,-1
99,891,-112,-1
92,924,-106,-1
103,950,-100,-1
60,975,-89,-1
40,1036,-55,-1
19,977,-69,-1
-16,990,-73,-1
46,1010,-112,-1
44,939,-99,-1
40,986,-125,-1
71,913,-153,-1
46,948,-179,-1
73,1008,-194,-1
67,962,-214,-1
79,962,-218,-1
58,950,-215,-1
41,941,-215,-1
34,945,-212,-1
54,978,-214,-1
85,1009,-182,-1
-5,932,-154,-1
26,1074,-102,-1
168,886,33,-1
122,587,34,-1
292,707,-187,-1
465,429,10,-1
590,981,114,-1
400,1291,-158,-1
597,1016,-40,-1
445,1853,-3,-1
172,1113,-299,-1
327,965,118,-1
296,1198,-122,-1
294,1207,-70,-1
253,1236,44,-1
151,1580,-90,-1
117,1473,-215,-1
46,1403,-209,-1
20,1145,-222,-1
90,948,-109,-1
94,673,117,-1
-5,857,173,-1
-77,422,-34,-1
-222,642,344,-1
-314,849,384,-1
-392,536,382,-1
-414,517,560,-1
-350,638,566,-1
-518,645,425,-1
-491,700,443,-1
-463,526,439,-1
-419,501,649,-1
-427,635,818,-1
-495,682,659,-1
-403,216,654,-1
-333,462,863,-1
-326,513,909,-1
-365,528,873,-1
-315,439,829,-1
-334,531,727,-1
-297,747,921,-1
-345,142,1182,-1
-361,411,1035,-1
-449,434,805,-1
-279,120,877,-1
-350,131,784,-1
-287,98,958,-1
-350,226,1133,-1
-373,301,802,-1
-451,435,1104,-1
-420,240,944,-1
-465,213,841,-1
-508,177,773,-1
-497,275,684,-1
-411,263,589,-1
-557,9,856,-1
-488,325,867,-1
-670,218,890,-1
-576,263,785,-1
-724,193,765,-1
-683,218,629,-1
-649,293,787,-1
-539,-83,812,-1
-430,188,960,-1
-340,169,781,-1
-413,194,899,-1
-400,404,640,-1
-438,674,578,-1
-569,780,498,-1
-769,702,572,-1
-710,394,722,-1
-625,195,685,-1
-541,278,687,-1
-477,-262,595,-1
-385,163,488,-1
-219,248,366,-1
14,580,413,-1
82,1326,197,-1
-249,572,-207,-1
-53,681,-223,-1
404,954,456,-1
815,1702,1014,-1
600,1086,884,-1
790,907,1009,-1
914,616,967,-1
1014,797,876,-1
955,951,741,-1
768,856,603,-1
303,1039,370,-1
-106,1214,144,-1
-300,958,85,-1
-228,689,234,-1
-90,490,458,-1
-2,540,655,-1
241,-250,614,-1
264,1134,864,-1
60,1024,536,-1
-220,587,-86,-1
-300,1067,120,-1
-158,1034,180,-1
-406,1067,143,-1
-389,1045,163,-1
-92,700,300,-1
-159,1111,413,-1
-260,973,153,-1
-383,978,113,-1
-409,890,201,-1
-349,872,292,-1
-310,816,334,-1
-253,802,356,-1
-296,870,345,-1
-339,844,323,-1
-378,891,312,-1
-380,819,307,-1
-344,865,378,-1
-317,867,392,-1
-281,896,406,-1
-275,912,417,-1
-298,920,438,-1
-342,906,478,-1
-403,981,464,-1
-424,789,534,-1
-397,919,597,-1
-350,702,707,-1
-297,624,774,-1
-286,506,883,-1
-283,333,844,-1
-297,221,861,-1
-299,138,869,-1
-324,58,877,-1
-298,24,942,-1
-339,28,875,-1
-308,-49,942,-1
-318,-109,902,-1
-282,-146,1006,-1
-340,-183,910,-1
-342,-242,904,-1
-314,-308,907,-1
-335,-213,931,-1
-379,-276,832,-1
-356,-334,895,-1
-373,-359,843,-1
-344,-362,889,-1
-376,-338,849,-1
-386,-403,885,-1
-396,-447,848,-1
-412,-421,768,-1
-412,-417,812,-1
-405,-511,768,-1
-407,-480,747,-1
-412,-499,761,-1
-424,-524,743,-1
-397,-551,781,-1
-448,-452,728,-1
-440,-510,783,-1
-413,-596,740,-1
-434,-535,780,-1
-440,-486,783,-1
-440,-535,759,-1
-423,-598,726,-1
-425,-574,741,-1
-442,-504,726,-1
-455,-499,728,-1
-397,-621,759,-1
-442,-495,763,-1
-454,-495,747,-1
-414,-630,739,-1
-444,-501,755,-1
-462,-441,769,-1
-406,-582,779,-1
-438,-457,777,-1
-425,-495,774,-1
-400,-553,772,-1
-421,-483,794,-1
-443,-474,781,-1
-422,-599,792,-1
-466,-448,816,-1
-462,-469,809,-1
-446,-474,799,-1
-415,-499,804,-1
-425,-408,808,-1
-410,-418,803,-1
-382,-466,822,-1
-407,-351,839,-1
-388,-391,843,-1
-385,-345,850,-1
-382,-316,858,-1
-359,-338,868,-1
-351,-257,889,-1
-357,-292,891,-1
-332,-241,906,-1
-359,-200,899,-1
-324,-169,919,-1
-342,-150,902,-1
-329,-142,941,-1
-316,-118,931,-1
-304,-46,894,-1
-289,-7,909,-1
-291,21,889,-1
-268,108,846,-1
-318,103,796,-1
-313,143,791,-1
-330,158,637,-1
-300,294,625,-1
-256,602,526,-1
-265,682,472,-1
-110,1080,565,-1
-102,1073,415,-1
-15,1263,583,-1
-8,1136,488,-1
-12,1112,578,-1
-40,1076,412,-1
-14,1267,616,-1
-50,748,306,-1
-1,1091,357,-1
94,794,483,-1
124,933,449,-1
162,1032,386,-1
227,1059,411,-1
299,701,304,-1
419,778,241,-1
351,880,185,-1
41,1015,264,-1
-349,1009,241,-1
-569,974,198,-1
-471,893,738,-1
-266,743,878,-1
25,176,896,-1
469,744,1125,-1
445,338,896,-1
633,151,599,-1
736,257,641,-1
907,270,633,-1
1104,469,767,-1
841,535,748,-1
729,328,657,-1
824,608,743,-1
936,548,1045,-1
783,883,1204,-1
444,594,1240,-1
160,699,1212,-1
-54,295,1050,-1
-179,129,804,-1
-302,213,616,-1
-328,207,496,-1
-441,128,324,-1
-361,550,473,-1
-302,613,633,-1
-392,280,537,-1
-406,259,557,-1
-278,395,849,-1
-237,228,949,-1
-277,287,892,-1
-226,410,1016,-1
-205,208,1130,-1
-292,307,970,-1
-377,247,871,-1
-261,249,933,-1
-197,189,1121,-1
-222,85,1043,-1
-248,217,791,-1
-231,149,879,-1
-220,168,854,-1
-220,368,686,-1
-175,301,831,-1
-217,326,874,-1
-256,628,869,-1
-369,394,960,-1
-304,218,970,-1
-335,282,919,-1
-299,339,929,-1
-330,305,1049,-1
-320,240,1004,-1
-321,269,962,-1
-276,280,944,-1
-246,306,911,-1
-294,43,961,-1
-255,124,969,-1
-296,155,894,-1
-288,103,937,-1
-256,72,983,-1
-247,120,951,-1
-291,88,895,-1
-279,221,892,-1
-234,173,950,-1
-238,43,832,-1
-265,124,793,-1
-250,335,825,-1
-303,498,831,-1
-266,575,865,-1
-303,575,797,-1
-309,732,801,-1
-311,708,855,-1
-330,689,779,-1
-305,720,741,-1
-326,691,728,-1
-303,741,651,-1
-285,727,679,-1
-251,655,684,-1
-250,636,680,-1
-259,673,712,-1
-265,574,800,-1
-287,609,730,-1
-299,636,701,-1
-283,659,682,-1
-289,634,644,-1
-271,589,681,-1
-247,644,689,-1
-259,577,663,-1
-277,602,655,-1
-293,699,707,-1
-302,710,685,-1
-282,680,734,-1
-277,610,763,-1
-249,758,723,-1
-274,680,672,-1
-267,744,639,-1
-277,822,622,-1
-283,766,591,-1
-279,785,548,-1
-272,707,568,-1
-269,750,615,-1
-283,792,554,-1
-276,741,555,-1
-298,803,546,-1
-331,676,494,-1
-284,705,534,-1
-255,767,628,-1
-269,795,620,-1
-269,764,571,-1
-269,713,576,-1
-264,754,596,-1
-294,795,581,-1
-281,786,572,-1
-270,735,565,-1
-262,769,611,-1
-257,817,591,-1
-268,833,554,-1
-259,799,494,-1
-264,780,495,-1
-255,808,508,-1
-280,867,495,-1
-283,824,447,-1
-279,762,424,-1
-272,813,481,-1
-264,856,547,-1
-272,766,519,-1
-282,835,529,-1
-272,852,520,-1
-268,734,510,-1
-257,743,529,-1
-259,817,528,-1
-247,816,509,-1
-210,781,572,-1
-219,810,557,-1
-216,814,542,-1
-226,747,477,-1
-241,862,524,-1
-228,876,579,-1
-225,843,502,-1
-207,840,475,-1
-197,832,470,-1
-203,932,450,-1
-209,851,416,-1
-203,828,447,-1
-181,869,498,-1
-166,817,480,-1
-157,837,468,-1
-152,786,466,-1
-150,873,498,-1
-145,864,482,-1
-130,799,503,-1
-107,866,509,-1
-98,845,531,-1
-95,879,521,-1
-74,824,531,-1
-116,795,531,-1
-108,762,598,-1
-90,727,668,-1
-104,683,653,-1
-114,595,630,-1
-173,750,711,-1
-202,685,720,-1
-214,621,652,-1
-251,805,650,-1
-126,758,799,-1
-3,467,906,-1
-147,952,591,-1
-209,885,670,-1
-215,770,859,-1
-316,633,885,-1
-382,630,1036,-1
-395,491,1031,-1
-378,268,947,-1
-413,286,948,-1
-493,330,818,-1
-558,294,732,-1
-606,246,718,-1
-637,307,666,-1
-642,290,643,-1
-577,145,691,-1
-589,22,677,-1
-592,220,724,-1
-597,150,731,-1
-590,-42,682,-1
-533,38,768,-1
-451,309,928,-1
-454,133,802,-1
-348,164,725,-1
-310,395,707,-1
-272,188,678,-1
-135,210,1010,-1
-193,334,1220,-1
-267,965,1378,-1
-406,564,976,-1
-403,-69,567,-1
-418,-55,762,-1
-344,213,1221,-1
-242,436,878,-1
-219,114,916,-1
-261,330,1402,-1
-321,138,758,-1
-362,132,693,-1
-259,215,794,-1
-219,40,812,-1
16,123,585,-1
29,626,1259,-1
23,316,1186,-1
-28,203,1233,-1
-35,-47,1003,-1
-61,-62,1043,-1
-224,-51,867,-1
-396,277,718,-1
-597,662,458,-1
-602,1202,312,-1
-476,1032,80,-1
-335,1052,-422,-1
-4,1368,-1,-1
24,1385,-103,-1
142,963,-35,-1
38,1059,-337,-1
252,869,-12,-1
262,1203,453,-1
0,955,-116,-1
235,834,61,-1
180,992,-195,-1
169,1216,-138,-1
94,931,49,-1
98,903,134,-1
-5,951,-30,-1
-45,939,32,-1
-22,980,-68,-1
84,1118,-191,-1
98,1068,-220,-1
146,952,-200,-1
159,982,-240,-1
218,1006,-86,-1
233,899,-40,-1
224,895,56,-1
269,991,164,-1
242,819,177,-1
272,796,332,-1
201,706,611,-1
162,904,528,-1
135,910,434,-1
287,851,503,-1
292,980,430,-1
219,1062,382,-1
258,942,413,-1
268,696,428,-1
256,698,512,-1
269,848,486,-1
279,788,455,-1
290,767,482,-1
286,807,496,-1
266,734,481,-1
277,736,506,-1
284,813,517,-1
287,790,501,-1
301,865,483,-1
255,846,489,-1
267,771,535,-1
379,630,571,-1
454,607,598,-1
617,941,293,-1
-26,897,243,-1
274,819,19,-1
187,555,-65,-1
164,664,109,-1
276,1134,209,-1
576,477,-107,-1
784,877,-22,-1
821,1135,-123,-1
716,1200,-209,-1
602,1089,-638,-1
551,1329,-463,-1
513,1342,-424,-1
549,880,-404,-1
502,772,-373,-1
381,840,-457,-1
261,882,-483,-1
239,898,-518,-1
118,850,-521,-1
211,993,-412,-1
188,839,-484,-1
245,889,-406,-1
283,748,-321,-1
205,813,-475,-1
287,779,-523,-1
379,968,-407,-1
187,882,-403,-1
121,759,-495,-1
3,676,-562,-1
-37,610,-599,-1
-94,570,-726,-1
-56,666,-821,-1
-30,697,-792,-1
-78,635,-839,-1
-87,583,-842,-1
-112,434,-845,-1
-159,466,-818,-1
-219,536,-854,-1
-261,640,-858,-1
-279,600,-903,-1
-302,561,-873,-1
-345,583,-964,-1
-395,660,-1105,-1
-259,659,-901,-1
-196,509,-642,-1
-201,483,-626,-1
-264,580,-719,-1
-239,667,-897,-1
-175,646,-882,-1
-103,545,-724,-1
-88,528,-631,-1
-97,566,-625,-1
-105,604,-617,-1
-84,668,-601,-1
-87,749,-623,-1
-55,843,-607,-1
-3,860,-518,-1
-31,832,-475,-1
-119,867,-520,-1
-202,921,-543,-1
-203,972,-407,-1
-190,941,-345,-1
-192,951,-340,-1
-161,854,-293,-1
-169,804,-293,-1
-216,778,-301,-1
-273,756,-264,-1
-312,756,-259,-1
-333,809,-231,-1
-318,875,-182,-1
-305,940,-184,-1
-271,994,-141,-1
-243,951,-129,-1
-213,1063,-147,-1
-152,1053,-205,-1
-197,1408,-168,-1
-161,1527,-201,-1
-175,720,-174,-1
-60,756,49,-1
-167,832,72,-1
-138,993,-17,-1
-164,971,-68,-1
-121,846,-78,-1
-104,809,-103,-1
-85,869,-52,-1
-75,884,-23,-1
-42,992,-52,-1
-30,1080,12,-1
-73,1126,100,-1
-27,1069,177,-1
-29,982,277,-1
16,838,418,-1
39,685,589,-1
102,476,756,-1
178,563,921,-1
300,503,954,-1
286,389,879,-1
235,514,884,-1
292,524,915,-1
351,460,892,-1
372,382,817,-1
303,372,754,-1
231,459,746,-1
239,460,701,-1
209,491,711,-1
229,551,736,-1
197,581,683,-1
94,734,556,-1
-4,955,422,-1
-63,1192,264,-1
-17,1322,100,-1
59,1236,-31,-1
87,1176,-115,-1
87,1030,-165,-1
23,856,-268,-1
-124,986,-331,-1
-136,1156,-422,-1
-138,1147,-480,-1
-78,986,-418,-1
-132,831,-400,-1
-187,824,-406,-1
-214,789,-361,-1
-226,882,-364,-1
-262,997,-378,-1
-242,880,-490,-1
-204,906,-468,-1
-212,837,-480,-1
-168,890,-434,-1
-170,918,-394,-1
-124,874,-396,-1
-32,999,-397,-1
15,1100,-291,-1
5,1062,-215,-1
-28,953,-199,-1
-64,899,-165,-1
-119,926,-176,-1
-170,920,-145,-1
-222,953,-143,-1
-285,898,-145,-1
-297,883,-158,-1
-291,985,-112,-1
-253,993,-56,-1
-245,962,-62,-1
-254,810,16,-1
-282,831,39,-1
-327,922,58,-1
-335,898,86,-1
-369,896,41,-1
-469,1014,6,-1
-412,1082,-82,-1
-343,848,-39,-1
-343,900,-76,-1
-341,937,-103,-1
-263,955,-83,-1
-270,855,-44,-1
-299,889,-17,-1
-308,835,27,-1
-340,802,26,-1
-348,846,16,-1
-334,802,30,-1
-356,835,43,-1
-385,909,0,-1
-416,884,-6,-1
-421,952,-42,-1
-411,919,-35,-1
-379,941,-60,-1
-410,993,-139,-1
-387,917,-224,-1
-294,1048,-178,-1
-224,946,-132,-1
-220,956,-131,-1
-208,955,-169,-1
-169,937,-149,-1
-175,912,-120,-1
-178,800,-73,-1
-196,786,-83,-1
-204,885,-101,-1
-206,866,-84,-1
-237,913,-111,-1
-205,950,-95,-1
-206,861,-118,-1
-180,980,-210,-1
-89,934,-225,-1
-44,961,-285,-1
-19,967,-369,-1
38,856,-410,-1
41,865,-418,-1
-31,955,-410,-1
-56,1001,-400,-1
-94,940,-365,-1
-81,1009,-375,-1
-86,925,-345,-1
-94,890,-344,-1
-64,935,-355,-1
-59,860,-376,-1
-51,902,-412,-1
-65,883,-443,-1
-94,904,-450,-1
-109,978,-455,-1
-131,986,-433,-1
-161,989,-417,-1
-193,931,-404,-1
-237,903,-407,-1
-261,894,-427,-1
-288,827,-376,-1
-247,784,-415,-1
-219,802,-389,-1
-133,815,-476,-1
-107,833,-422,-1
-61,820,-487,-1
-52,800,-512,-1
-63,827,-498,-1
-87,843,-476,-1
-87,864,-488,-1
-82,861,-430,-1
-111,906,-417,-1
-115,889,-427,-1
-77,844,-346,-1
-83,848,-407,-1
-122,1070,-384,-1
-127,930,-384,-1
-133,910,-384,-1
-135,858,-379,-1
