AccX [mg],AccY,AccZ,Ground Truth
1100,453,411,0
1354,426,403,0
1395,251,446,0
1293,281,487,0
959,339,469,0
1014,399,381,0
1140,435,321,0
1212,357,270,0
1018,252,235,0
811,183,198,0
684,210,166,0
642,244,174,0
657,243,188,0
682,213,203,0
761,187,310,0
761,187,310,0
761,187,310,0
934,223,323,0
982,266,358,0
1191,400,391,0
1223,529,588,0
1181,647,654,0
1092,618,519,0
1087,300,389,0
949,24,362,0
788,118,309,0
690,417,251,0
641,631,206,0
578,665,219,0
606,605,352,0
894,546,435,0
1137,479,401,0
1402,490,415,0
1254,377,475,0
1254,377,475,0
1071,373,427,0
1060,380,367,0
1113,381,299,0
1135,321,259,0
1023,261,244,0
862,211,179,0
737,211,161,0
701,244,171,0
756,244,165,0
783,203,174,0
791,187,193,0
756,206,231,0
755,246,325,0
891,241,346,0
902,258,332,0
1054,346,399,0
1067,422,524,0
1141,520,589,0
1117,459,446,0
1117,459,446,0
946,203,367,0
827,175,350,0
764,368,319,0
726,582,290,0
676,673,330,0
648,626,424,0
848,586,495,0
1035,491,481,0
1268,428,481,0
1289,258,465,0
1416,324,487,0
1156,326,486,0
1047,367,397,0
1044,379,311,0
1047,339,238,0
994,296,226,0
797,229,202,0
610,237,194,0
610,237,194,0
644,232,188,0
724,202,205,0
773,180,231,0
768,165,248,0
808,214,280,0
1028,279,319,0
1130,316,320,0
1236,411,417,0
1024,437,566,0
1007,459,603,0
1130,420,501,0
1174,303,398,0
950,213,433,0
760,273,404,0
685,453,345,0
654,569,322,0
682,586,357,0
963,464,447,0
963,464,447,0
940,405,443,0
1016,414,467,0
1118,409,445,0
1268,418,423,0
1238,357,441,0
1147,316,365,0
1109,320,297,0
1181,289,259,0
1071,268,257,0
828,241,272,0
615,238,237,0
529,238,225,0
541,230,239,0
539,192,235,0
611,171,240,0
737,165,256,0
857,197,286,0
1065,284,302,0
1385,495,452,0
1385,495,452,0
1249,594,618,0
1046,581,601,0
975,415,471,0
1022,93,380,0
880,55,354,0
701,228,305,0
576,482,269,0
512,616,263,0
558,623,313,0
748,546,346,0
1012,525,411,0
1049,482,479,0
1181,454,495,0
1182,375,477,0
1289,284,467,0
1105,231,441,0
1095,256,349,0
1092,345,299,0
1092,345,299,0
905,308,256,0
703,254,212,0
591,240,209,0
597,250,226,0
639,226,235,0
666,178,246,0
718,141,268,0
829,171,320,0
992,211,332,0
1091,307,335,0
1171,440,493,0
1121,514,640,0
1102,507,606,0
1122,374,458,0
1057,152,394,0
849,154,363,0
687,294,282,0
642,669,279,0
642,669,279,0
642,669,279,0
798,690,341,0
1044,822,435,0
1253,764,435,0
1277,460,429,0
1440,262,450,0
1220,237,447,0
1214,290,379,0
1176,382,314,0
1254,403,282,0
1152,334,204,0
967,257,144,0
843,232,149,0
771,219,156,0
750,199,169,0
724,143,177,0
698,101,181,0
652,99,205,0
757,165,205,0
958,243,180,0
1056,385,268,0
1247,551,470,0
1546,588,576,0
1439,549,381,0
1148,391,351,0
992,27,395,0
908,203,391,0
866,507,350,0
733,696,324,0
677,804,355,0
797,877,498,0
1011,1022,585,0
1200,716,488,0
1331,291,469,0
1538,181,489,0
1445,205,407,0
1475,315,372,0
1562,388,342,0
1507,376,226,0
1277,367,107,0
985,317,77,0
770,311,80,0
759,283,96,0
786,165,104,0
746,74,137,0
673,-7,205,0
696,-38,213,0
734,4,176,0
861,185,228,0
953,375,298,0
1306,532,392,0
1877,640,569,0
1967,846,710,0
1353,969,549,0
890,384,383,0
890,-130,513,0
868,-26,352,0
866,617,205,0
868,1145,67,0
890,1437,115,0
924,1189,228,0
1292,698,325,0
1495,340,431,0
1846,301,432,0
1725,437,337,0
1681,413,213,0
1565,352,237,0
1394,299,239,0
1017,228,124,0
797,183,108,0
628,165,120,0
510,182,148,0
573,186,196,0
543,130,229,0
513,76,264,0
565,85,257,0
782,142,285,0
1068,222,284,0
1652,425,288,0
1991,724,571,0
1968,1191,783,0
1133,1107,294,0
1102,97,402,0
989,-431,407,0
848,23,274,0
724,701,96,0
540,912,8,0
483,892,128,0
709,873,307,0
1114,851,452,0
1303,561,418,0
1416,268,441,0
1447,321,458,0
1434,378,367,0
1272,413,393,0
1198,326,343,0
1057,296,232,0
1074,358,179,0
969,301,92,0
797,234,64,0
683,218,93,0
713,237,106,0
783,254,123,0
849,228,147,0
823,177,168,0
821,173,214,0
852,180,272,0
957,225,273,0
1052,331,309,0
1159,495,504,0
1382,622,709,0
1387,627,710,0
1075,537,589,0
841,220,518,0
818,195,427,0
806,387,336,0
702,629,325,0
681,796,345,0
845,870,349,0
1013,776,366,0
1271,628,388,0
1281,373,381,0
1357,416,405,0
1370,407,379,0
1382,412,297,0
1322,376,251,0
1233,292,237,0
1004,257,207,0
833,245,153,0
697,226,131,0
586,208,144,0
565,179,161,0
568,150,185,0
604,148,302,0
799,212,374,0
1024,220,395,0
1386,324,466,0
1600,458,638,0
1421,572,723,0
1144,598,584,0
1030,348,431,0
905,119,331,0
777,180,283,0
680,407,225,0
658,620,183,0
623,667,215,0
667,632,308,0
877,573,389,0
1048,512,384,0
1309,504,416,0
1246,380,457,0
1302,388,495,0
1209,341,468,0
1177,329,379,0
1159,313,325,0
1114,272,285,0
912,234,211,0
773,229,168,0
661,238,151,0
636,268,168,0
689,245,183,0
737,213,199,0
815,171,199,0
825,144,197,0
962,233,216,0
1004,302,242,0
1220,450,314,0
1117,503,443,0
1088,532,553,0
1143,470,524,0
1137,347,413,0
958,172,400,0
785,213,401,0
678,388,367,0
623,540,332,0
597,585,361,0
678,566,429,0
884,551,469,0
1037,532,449,0
1209,520,463,0
1153,358,436,0
1259,356,445,0
1212,328,425,0
1215,343,310,0
1251,322,234,0
1194,261,199,0
1013,268,195,0
824,269,160,0
700,292,142,0
742,284,162,0
748,232,180,0
741,171,210,0
713,116,238,0
710,102,253,0
843,170,261,0
920,239,255,0
1165,384,302,0
1265,533,496,0
1298,633,661,0
1259,533,513,0
1191,377,341,0
1043,47,366,0
911,110,364,0
768,346,282,0
670,591,206,0
611,655,218,0
578,580,313,0
734,526,408,0
919,512,466,0
1033,568,493,0
1143,530,484,0
1188,442,479,0
1229,318,488,0
1090,268,465,0
1085,311,395,0
1202,327,342,0
1259,327,332,0
1151,245,317,0
936,177,233,0
762,200,210,0
708,242,208,0
700,225,194,0
665,186,212,0
630,153,224,0
657,179,279,0
718,196,318,0
843,206,299,0
996,275,325,0
1287,361,377,0
1453,489,498,0
1511,596,505,0
1324,662,439,0
1101,317,339,0
968,89,356,0
843,230,253,0
727,481,167,0
620,631,166,0
532,696,260,0
575,675,383,0
867,746,474,0
1119,743,465,0
1278,434,373,0
1311,293,376,0
1175,257,409,0
1026,333,380,0
1090,412,327,0
1138,407,240,0
1123,378,182,0
1047,288,178,0
867,192,135,0
735,189,140,0
717,240,155,0
693,241,150,0
775,223,148,0
848,186,152,0
804,178,201,0
740,225,284,0
758,286,371,0
1094,373,439,0
1269,457,581,0
1193,478,677,0
1016,436,595,0
1027,375,485,0
958,168,414,0
838,178,394,0
719,322,352,0
650,497,337,0
654,579,363,0
643,569,379,0
782,556,425,0
1010,589,487,0
1406,606,481,0
1515,413,407,0
1331,167,383,0
1130,163,368,0
1148,253,294,0
1192,379,244,0
1156,399,221,0
981,323,168,0
813,270,135,0
743,252,140,0
738,235,153,0
699,190,166,0
671,160,190,0
677,157,221,0
699,175,253,0
787,211,272,0
950,254,270,0
1159,351,329,0
1344,470,446,0
1306,560,568,0
1223,592,495,0
1124,574,389,0
1084,207,332,0
912,137,388,0
741,339,340,0
648,584,305,0
606,671,313,0
637,635,397,0
836,574,485,0
1117,490,506,0
1156,398,491,0
1223,331,480,0
1192,346,444,0
1208,387,451,0
1202,394,412,0
1197,367,284,0
1185,315,207,0
1111,234,166,0
912,225,145,0
741,235,125,0
643,259,106,0
611,266,111,0
665,261,142,0
730,235,176,0
748,180,218,0
728,144,275,0
882,197,335,0
929,239,410,0
1046,353,403,0
1313,432,545,0
1337,489,693,0
1230,499,582,0
1072,352,494,0
943,102,396,0
838,142,306,0
724,312,215,0
646,525,143,0
615,620,168,0
707,644,273,0
906,619,379,0
1102,644,423,0
1262,590,424,0
1224,443,439,0
1243,333,448,0
1138,317,431,0
1136,325,385,0
1170,357,342,0
1174,345,319,0
1043,265,234,0
879,206,159,0
803,210,168,0
741,216,145,0
731,224,154,0
795,220,183,0
777,187,195,0
724,151,201,0
773,163,210,0
776,224,198,0
960,379,302,0
1108,473,433,0
1328,588,621,0
1454,697,726,0
1208,671,562,0
866,116,479,0
776,-124,504,0
713,66,373,0
660,495,305,0
618,710,324,0
639,749,421,0
903,617,503,0
1092,392,432,0
1259,339,426,0
1272,294,431,0
1181,415,408,0
1193,404,382,0
1075,357,325,0
992,321,246,0
963,314,221,0
988,345,228,0
850,303,177,0
701,231,164,0
612,195,170,0
654,227,180,0
763,229,197,0
832,208,222,0
863,190,243,0
886,229,293,0
1013,278,344,0
977,318,333,0
1202,400,409,0
1168,464,520,0
1059,503,549,0
979,459,482,0
983,336,413,0
893,212,349,0
765,229,316,0
683,350,284,0
671,496,259,0
664,524,290,0
656,472,369,0
820,485,429,0
1033,461,420,0
1165,424,406,0
1213,358,458,0
1152,362,457,0
1170,417,449,0
1064,382,406,0
989,349,321,0
997,300,254,0
996,285,240,0
901,272,228,0
766,248,190,0
663,250,179,0
654,251,189,0
713,244,208,0
807,234,243,0
890,193,255,0
959,179,296,0
1003,212,353,0
990,240,290,0
1105,327,247,0
969,413,307,0
891,538,423,0
943,625,444,0
1082,559,389,0
1014,382,380,0
840,206,406,0
718,289,391,0
682,429,368,0
641,530,379,0
651,555,425,0
843,562,501,0
1016,493,490,0
1099,455,502,0
1233,372,448,0
1203,366,415,0
1176,364,392,0
1180,381,320,0
1137,323,243,0
1068,271,197,0
902,245,161,0
752,248,128,0
659,256,106,0
646,263,113,0
717,226,150,0
747,183,158,0
748,172,180,0
767,209,235,0
802,258,309,0
941,302,330,0
1058,363,359,0
1414,519,495,0
1339,600,686,0
1051,619,613,0
900,559,496,0
1035,138,375,0
970,10,338,0
808,172,290,0
658,477,276,0
603,644,247,0
559,623,253,0
592,516,312,0
856,497,392,0
1146,421,371,0
1131,339,367,0
1251,313,457,0
1135,349,447,0
1104,371,400,0
992,345,394,0
1027,317,292,0
1057,298,220,0
1120,254,184,0
969,241,172,0
771,253,149,0
674,295,145,0
713,321,150,0
748,275,174,0
743,213,192,0
723,166,208,0
754,174,256,0
835,223,285,0
996,290,291,0
1207,386,360,0
1301,493,496,0
1153,546,626,0
1005,543,573,0
965,387,449,0
1058,72,416,0
943,35,404,0
747,221,307,0
626,440,225,0
630,574,260,0
569,555,340,0
503,466,379,0
630,440,429,0
856,413,432,0
1114,382,425,0
1231,302,435,0
1133,313,453,0
997,316,433,0
899,340,383,0
974,384,330,0
1018,373,303,0
1010,340,301,0
894,262,284,0
757,227,231,0
665,247,219,0
666,259,230,0
687,241,253,0
707,240,250,0
856,241,289,0
922,222,337,0
912,241,345,0
981,286,377,0
1176,368,410,0
1108,418,490,0
854,420,455,0
805,422,446,0
912,359,379,0
918,285,348,0
796,261,361,0
675,343,347,0
597,429,345,0
664,477,378,0
767,462,415,0
921,443,446,0
1043,412,462,0
1094,421,480,0
1267,433,471,0
1169,417,448,0
1105,402,440,0
1098,370,347,0
1063,359,278,0
1019,283,228,0
827,252,219,0
715,264,181,0
687,281,153,0
714,264,169,0
746,245,204,0
775,218,236,0
809,193,265,0
797,161,290,0
873,175,325,0
933,219,366,0
955,315,370,0
1043,419,457,0
1084,491,581,0
1096,523,574,0
1065,435,432,0
961,203,378,0
871,130,374,0
751,256,352,0
670,465,311,0
639,562,315,0
638,529,371,0
804,508,428,0
1012,475,459,0
1175,502,447,0
1255,437,449,0
1180,349,448,0
1179,343,465,0
1096,344,409,0
1056,355,313,0
1096,326,257,0
1095,276,261,0
933,221,220,0
755,208,157,0
667,253,151,0
662,282,159,0
662,245,172,0
687,205,186,0
716,185,224,0
764,197,286,0
907,233,327,0
992,266,347,0
1152,361,373,0
1188,450,514,0
1192,503,624,0
1125,522,544,0
1059,410,482,0
921,106,452,0
788,131,436,0
716,317,355,0
668,510,290,0
640,561,318,0
551,511,386,0
748,539,477,0
1087,526,467,0
1193,399,366,0
1273,293,408,0
1177,249,464,0
1270,367,457,0
1091,400,402,0
984,392,305,0
1003,337,238,0
1021,269,223,0
916,241,224,0
808,205,189,0
710,210,167,0
660,245,190,0
667,234,197,0
701,214,204,0
732,198,225,0
804,152,274,0
941,257,319,0
1036,347,323,0
1156,442,346,0
1268,499,428,0
1198,528,483,0
1087,562,467,0
969,432,391,0
950,232,329,0
849,234,319,0
735,356,313,0
694,489,283,0
691,526,307,0
633,443,367,0
703,439,460,0
875,467,513,0
1031,453,480,0
1198,382,472,0
1142,243,460,0
1182,304,444,0
1126,358,426,0
993,373,363,0
997,349,294,0
1045,306,245,0
1085,296,247,0
979,240,249,0
848,218,230,0
799,251,254,0
824,256,270,0
837,219,279,0
810,167,296,0
770,128,280,0
716,143,251,0
754,227,246,0
914,327,279,0
1090,416,334,0
1427,433,333,0
1338,378,298,0
1110,384,267,0
1022,415,279,0
1083,582,259,0
1059,661,231,0
940,549,233,0
799,480,303,0
696,469,359,0
684,531,392,0
744,578,439,0
746,553,496,0
767,500,552,0
862,410,550,0
968,345,514,0
1123,367,506,0
1308,433,547,0
1248,459,492,0
1021,367,361,0
938,299,289,0
1047,330,232,0
1151,312,184,0
1083,267,158,0
894,230,158,0
766,254,170,0
718,314,148,0
733,312,128,0
751,257,152,0
787,207,197,0
807,207,271,0
868,202,299,0
935,189,310,0
995,287,341,0
955,423,498,0
1007,575,706,0
1021,553,749,0
1060,374,638,0
986,32,570,0
807,-63,497,0
725,165,428,0
655,451,431,0
610,599,440,0
660,576,425,0
828,560,399,0
1026,514,398,0
1046,411,353,0
1209,381,326,0
1183,326,307,0
1252,352,331,0
1023,400,349,0
909,474,290,0
974,484,227,0
1131,436,198,0
1113,323,214,0
930,184,205,0
775,146,212,0
699,194,225,0
686,239,228,0
698,228,247,0
733,224,296,0
783,210,363,0
802,163,414,0
887,138,411,0
892,167,410,0
1071,292,418,0
1235,434,524,0
1312,555,528,0
1230,651,481,0
1007,615,458,0
823,260,335,0
740,155,324,0
689,313,276,0
654,485,253,0
588,617,373,0
577,681,653,0
830,569,840,0
921,263,762,0
1083,213,654,0
1175,247,574,0
1309,312,476,0
1147,273,476,0
958,297,424,0
972,373,322,0
1008,433,205,0
937,431,190,0
831,305,211,0
709,208,260,0
658,160,274,0
661,178,309,0
678,190,354,0
734,202,388,0
818,213,436,0
947,265,535,0
1091,341,700,0
1274,301,737,0
1208,298,723,0
1140,313,576,0
1047,328,426,0
997,182,371,0
876,156,309,0
763,329,239,0
662,504,142,0
577,564,119,0
527,518,191,0
627,465,260,0
881,512,342,0
1068,577,446,0
1121,568,513,0
1315,488,528,0
1112,285,465,0
996,214,463,0
1183,286,465,0
1221,329,396,0
1267,336,361,0
1102,225,353,0
850,220,282,0
725,254,200,0
676,266,173,0
703,260,205,0
660,206,207,0
649,167,215,0
697,163,257,0
805,196,293,0
956,229,311,0
1136,313,325,0
1298,426,442,0
1258,532,550,0
1173,560,492,0
1071,511,437,0
935,202,334,0
877,121,360,0
781,291,341,0
724,501,266,0
668,623,284,0
580,591,354,0
703,563,439,0
947,526,444,0
1076,443,389,0
1134,363,441,0
1303,325,490,0
1145,361,440,0
1045,396,442,0
1090,417,427,0
1145,394,360,0
1077,273,271,0
943,223,292,0
823,235,284,0
707,229,238,0
618,219,231,0
639,223,249,0
658,215,259,0
723,212,265,0
807,199,296,0
845,218,346,0
970,269,377,0
1048,296,334,0
1254,418,417,0
1104,483,521,0
1043,545,539,0
967,500,499,0
935,279,384,0
845,132,383,0
747,267,401,0
706,462,377,0
715,574,394,0
653,530,457,0
670,501,488,0
964,546,515,0
1074,498,468,0
1232,433,474,0
1292,271,507,0
1211,306,478,0
1058,357,414,0
1016,405,335,0
982,416,293,0
969,345,302,0
849,265,273,0
723,213,251,0
653,197,243,0
639,202,258,0
616,198,280,0
675,208,307,0
743,191,322,0
806,179,362,0
919,194,397,0
1026,234,407,0
1235,338,377,0
1192,440,474,0
1039,531,524,0
995,656,542,0
1019,596,451,0
1004,339,387,0
859,207,451,0
691,353,448,0
627,512,412,0
626,606,421,0
686,549,456,0
840,483,468,0
1076,408,452,0
1090,277,401,0
1189,296,425,0
1257,317,432,0
1171,382,383,0
1106,404,365,0
1058,372,351,0
993,317,281,0
974,269,232,0
924,240,263,0
814,223,267,0
691,205,268,0
610,210,292,0
621,215,287,0
629,206,292,0
666,187,307,0
718,178,316,0
826,223,372,0
1060,294,421,0
1258,367,467,0
1400,463,534,0
1165,492,577,0
956,567,555,0
881,529,450,0
969,189,308,0
965,89,328,0
813,228,341,0
674,438,267,0
605,547,236,0
558,528,296,0
505,422,348,0
622,404,382,0
871,442,435,0
1131,478,477,0
1358,476,498,0
1228,435,490,0
1112,332,455,0
1031,315,435,0
1075,342,372,0
1117,339,316,0
1085,308,294,0
927,274,297,0
775,279,267,0
667,280,243,0
636,262,234,0
674,238,244,0
693,185,265,0
709,142,272,0
753,165,316,0
889,239,334,0
982,295,361,0
971,345,382,0
1143,410,465,0
1183,479,565,0
1177,511,521,0
1060,401,457,0
971,172,392,0
840,179,347,0
742,301,295,0
680,489,240,0
645,563,233,0
580,533,316,0
610,489,405,0
854,545,466,0
1021,513,436,0
1112,412,393,0
1182,267,422,0
1095,315,436,0
1187,422,455,0
1063,479,418,0
952,463,328,0
966,375,279,0
1079,330,261,0
1006,263,243,0
835,207,223,0
732,237,216,0
725,269,208,0
700,257,207,0
707,221,208,0
758,206,239,0
790,210,277,0
790,216,318,0
894,237,319,0
957,279,330,0
1182,365,335,0
1082,449,435,0
1013,548,506,0
1003,591,523,0
1059,461,457,0
975,140,444,0
816,159,442,0
720,328,415,0
670,517,391,0
641,582,421,0
589,508,485,0
734,469,515,0
1024,461,508,0
1149,381,428,0
1240,306,396,0
1077,251,380,0
1150,338,351,0
1110,410,357,0
1023,414,287,0
1018,391,208,0
1094,359,212,0
1081,296,207,0
861,209,168,0
687,202,170,0
616,257,215,0
626,283,253,0
627,271,308,0
624,195,321,0
727,124,324,0
874,126,385,0
1023,210,406,0
1079,287,404,0
1266,383,402,0
1256,490,440,0
1162,606,455,0
987,708,445,0
881,502,316,0
921,171,327,0
829,145,334,0
732,355,302,0
675,494,260,0
607,533,277,0
570,462,358,0
554,391,420,0
750,422,462,0
977,449,507,0
1199,452,499,0
1270,376,489,0
1368,389,493,0
1131,318,458,0
928,299,382,0
964,349,324,0
1084,371,263,0
1123,348,259,0
1014,254,261,0
843,206,234,0
740,234,217,0
691,248,220,0
655,227,241,0
632,188,264,0
657,167,296,0
718,177,336,0
823,208,351,0
914,229,359,0
1093,302,346,0
1410,413,405,0
1476,558,494,0
1365,683,464,0
1059,588,385,0
1042,172,407,0
1016,-13,398,0
880,264,261,0
698,460,111,0
542,529,116,0
477,524,180,0
421,468,248,0
474,496,276,0
691,594,348,0
1016,745,440,0
1230,897,453,0
1215,562,307,0
943,72,378,0
995,27,437,0
1068,266,476,0
1210,494,503,0
1117,524,507,0
930,321,407,0
809,239,305,0
815,215,260,0
813,210,267,0
781,168,240,0
711,134,196,0
726,177,204,0
867,259,186,0
933,298,135,0
778,403,209,0
894,571,472,0
1059,505,435,0
1201,303,553,0
1053,179,703,0
918,308,763,0
834,411,806,0
785,387,822,0
728,305,723,0
755,243,623,0
913,258,530,0
1140,323,395,0
1384,317,364,0
1219,248,317,0
1329,279,315,0
1162,374,234,0
1197,453,114,0
1153,380,70,0
1061,261,41,0
962,238,64,0
882,250,79,0
751,255,55,0
653,235,60,0
591,245,131,0
603,279,254,0
683,300,357,0
773,229,418,0
910,125,488,0
1146,60,532,0
1294,50,534,0
1337,169,513,0
1271,325,521,0
1465,492,546,0
1233,506,464,0
1007,443,308,0
957,376,238,0
946,345,143,0
841,329,86,0
736,356,74,0
627,427,83,0
545,444,100,0
595,429,180,0
623,406,302,0
634,421,413,0
754,454,534,0
915,470,650,0
976,394,628,0
1052,340,591,0
1026,316,556,0
1187,354,560,0
1055,328,539,0
1037,325,503,0
1083,355,456,0
1111,379,403,0
1028,335,384,0
866,253,348,0
699,215,288,0
658,228,280,0
676,228,284,0
661,207,282,0
671,201,281,0
727,203,289,0
815,252,315,0
902,276,318,0
1069,298,331,0
1108,346,383,0
1233,360,353,0
1042,440,401,0
893,547,436,0
807,581,431,0
873,426,412,0
888,293,474,0
804,286,489,0
733,343,455,0
669,378,463,0
638,383,501,0
567,346,517,0
653,353,489,0
895,369,459,0
1033,352,411,0
1101,378,378,0
1095,397,399,0
1260,485,409,0
1055,425,389,0
938,372,324,0
971,380,294,0
1099,361,292,0
1071,294,298,0
956,253,313,0
847,331,310,0
784,137,361,0
745,148,393,0
719,148,386,0
684,190,352,0
673,174,342,0
691,191,376,0
790,236,369,0
867,260,343,0
1192,351,319,0
1405,446,427,0
1297,539,455,0
1039,719,489,0
856,587,376,0
914,252,359,0
863,149,387,0
792,316,379,0
724,472,380,0
627,592,419,0
576,578,500,0
595,499,554,0
820,441,540,0
1109,358,495,0
1050,227,449,0
950,253,444,0
998,338,431,0
1285,477,411,0
1202,383,416,0
1002,265,347,0
968,278,274,0
1016,322,254,0
1080,345,274,0
921,276,285,0
720,212,289,0
620,200,300,0
606,180,305,0
601,200,330,0
589,216,329,0
669,220,339,0
756,198,376,0
868,231,384,0
1099,281,405,0
1234,378,469,0
1393,515,526,0
1149,610,570,0
892,661,559,0
806,449,445,0
882,173,415,0
924,104,394,0
831,232,392,0
739,409,403,0
704,511,398,0
691,473,427,0
642,362,437,0
642,271,431,0
781,273,453,0
903,279,441,0
998,330,455,0
1044,348,486,0
1203,408,468,0
1139,370,455,0
845,324,409,0
774,316,339,0
904,344,309,0
1030,320,300,0
945,242,293,0
785,214,291,0
692,262,281,0
698,298,256,0
692,270,248,0
684,227,250,0
761,234,268,0
828,258,294,0
836,280,349,0
945,299,378,0
1025,360,415,0
1220,439,461,0
995,482,533,0
869,513,544,0
876,447,469,0
1021,277,380,0
1026,116,374,0
822,187,379,0
683,342,342,0
631,458,299,0
611,471,306,0
565,387,343,0
628,363,395,0
848,394,442,0
974,378,417,0
1144,397,421,0
1086,351,444,0
1166,371,400,0
1196,329,429,0
959,323,389,0
847,365,316,0
870,370,257,0
964,375,250,0
909,317,269,0
786,237,240,0
722,220,233,0
712,254,234,0
716,229,238,0
703,215,250,0
740,215,288,0
835,233,328,0
911,230,347,0
1073,248,365,0
992,288,386,0
958,401,391,0
1010,514,468,0
1050,548,480,0
1020,492,439,0
966,268,384,0
845,158,353,0
744,209,335,0
690,337,312,0
659,459,291,0
637,461,315,0
597,373,378,0
727,391,441,0
924,417,473,0
1005,379,414,0
1154,358,420,0
1144,305,446,0
1226,391,404,0
1075,386,380,0
931,406,335,0
900,418,274,0
988,396,243,0
1026,335,248,0
896,241,227,0
756,210,203,0
699,254,219,0
683,258,227,0
670,246,235,0
703,232,250,0
800,230,271,0
868,205,297,0
1016,246,319,0
1030,303,355,0
1176,436,402,0
1034,496,527,0
933,476,531,0
919,393,468,0
1003,234,405,0
921,145,387,0
740,229,379,0
640,375,348,0
604,453,323,0
595,421,362,0
631,374,452,0
816,421,569,0
996,402,577,0
991,285,456,0
1097,228,426,0
1059,271,450,0
1157,428,465,0
1010,452,476,0
850,376,396,0
829,309,351,0
964,273,336,0
932,231,344,0
806,210,343,0
714,216,347,0
673,229,341,0
637,219,324,0
676,210,345,0
776,184,334,0
834,168,291,0
806,215,304,0
887,281,362,0
1028,356,366,0
1053,434,363,0
930,484,439,0
876,529,492,0
983,485,455,0
1096,278,430,0
894,157,470,0
698,244,469,0
605,358,423,0
587,464,394,0
561,470,442,0
683,441,528,0
922,427,546,0
1098,402,505,0
1287,387,490,0
1201,385,491,0
1246,391,479,0
1113,385,439,0
1060,373,344,0
1085,328,277,0
998,270,244,0
851,246,231,0
735,255,208,0
663,271,185,0
673,275,197,0
700,256,238,0
696,206,258,0
713,154,247,0
757,159,279,0
826,267,369,0
968,332,438,0
1015,344,430,0
1252,418,581,0
1004,432,579,0
901,424,460,0
984,410,409,0
1025,303,349,0
841,265,324,0
730,413,293,0
654,552,281,0
601,605,269,0
617,554,331,0
731,473,414,0
974,440,470,0
1114,354,444,0
1260,341,427,0
1310,301,472,0
1269,348,422,0
1056,338,374,0
1000,340,299,0
1019,358,244,0
1050,335,206,0
961,272,195,0
831,224,179,0
718,228,175,0
642,251,190,0
606,254,218,0
602,242,254,0
673,227,281,0
773,208,348,0
929,197,376,0
1047,195,405,0
1244,314,419,0
1250,427,500,0
1071,467,439,0
928,494,386,0
969,376,365,0
943,282,336,0
854,305,342,0
739,362,291,0
699,457,252,0
675,493,290,0
650,495,364,0
718,547,446,0
934,634,527,0
1071,569,492,0
1261,439,460,0
1331,277,470,0
1320,252,472,0
1105,349,428,0
1152,405,377,0
1188,400,294,0
1157,369,249,0
999,259,235,0
781,202,194,0
665,209,189,0
635,215,202,0
615,202,216,0
599,181,233,0
633,164,250,0
688,159,269,0
816,211,302,0
971,267,352,0
1206,373,361,0
1431,509,503,0
1401,610,658,0
1138,688,578,0
900,485,459,0
952,16,430,0
855,18,404,0
731,321,336,0
638,595,270,0
579,689,327,0
539,599,425,0
643,489,484,0
933,460,489,0
1132,404,429,0
1190,351,418,0
1133,292,445,0
1219,381,458,0
1148,396,468,0
1028,378,387,0
935,358,311,0
1034,325,296,0
997,303,304,0
849,241,275,0
698,184,240,0
598,187,231,0
623,238,240,0
639,235,248,0
696,220,253,0
799,216,261,0
856,225,271,0
1046,289,296,0
1111,340,362,0
1159,442,448,0
1017,490,553,0
950,527,575,0
980,463,489,0
1052,195,405,0
911,141,388,0
790,261,383,0
716,383,388,0
679,449,341,0
668,437,385,0
617,348,406,0
682,401,475,0
871,475,531,0
1047,441,474,0
995,287,352,0
1190,245,381,0
1251,267,380,0
1159,408,367,0
981,504,383,0
937,500,314,0
1001,407,228,0
1116,264,204,0
1039,152,233,0
843,152,234,0
685,215,200,0
647,278,215,0
689,273,224,0
707,234,244,0
729,197,280,0
753,177,307,0
808,191,340,0
1015,242,366,0
1163,325,375,0
1195,447,451,0
1000,517,565,0
960,518,567,0
1025,465,428,0
1026,193,306,0
851,72,319,0
702,217,328,0
634,461,291,0
604,582,274,0
559,539,312,0
595,439,376,0
839,433,443,0
1086,452,455,0
1355,488,476,0
1180,383,493,0
1221,325,493,0
1120,321,454,0
1098,340,357,0
1123,366,309,0
1109,294,302,0
940,235,267,0
781,224,215,0
725,249,221,0
754,254,229,0
775,239,251,0
794,191,249,0
785,135,228,0
718,124,228,0
738,214,249,0
753,280,272,0
958,362,271,0
1251,420,314,0
1285,521,448,0
1245,669,533,0
987,633,423,0
1004,271,370,0
1015,58,433,0
848,243,384,0
713,443,340,0
601,595,401,0
555,636,520,0
602,574,571,0
861,527,560,0
1080,406,492,0
1179,300,441,0
1250,267,463,0
1298,352,486,0
1159,423,435,0
1141,403,335,0
1179,382,242,0
1190,335,205,0
1061,257,209,0
834,203,183,0
680,210,178,0
635,244,191,0
629,229,211,0
627,190,227,0
630,148,255,0
667,144,303,0
718,176,352,0
883,224,345,0
1060,322,370,0
1508,797,593,0
1324,1006,700,0
1014,725,583,0
908,466,575,0
897,166,550,0
736,221,547,0
529,313,417,0
398,568,215,0
413,700,284,0
558,724,441,0
769,671,511,0
999,586,478,0
968,465,394,0
1081,417,332,0
1130,363,332,0
1075,344,325,0
1091,387,363,0
1112,389,308,0
1126,380,252,0
1024,287,232,0
826,253,252,0
674,267,266,0
573,274,298,0
555,258,309,0
625,249,330,0
703,214,359,0
782,168,362,0
868,151,376,0
1054,232,402,0
1261,342,442,0
1349,492,523,0
1125,518,597,0
935,463,508,0
915,272,373,0
926,95,292,0
823,172,295,0
691,345,240,0
547,505,147,0
480,524,156,0
451,501,185,0
650,505,215,0
1031,593,270,0
1136,667,330,0
1119,670,390,0
1143,598,498,0
1285,495,529,0
1221,370,480,0
1194,366,355,0
1117,345,290,0
1061,347,324,0
951,332,326,0
780,318,207,0
692,301,163,0
683,261,151,0
698,208,159,0
752,152,187,0
816,120,187,0
801,123,195,0
878,223,204,0
924,316,259,0
1008,443,334,0
1129,570,514,0
1189,566,641,0
1179,450,444,0
1013,232,379,0
859,43,401,0
771,155,312,0
708,371,224,0
672,562,225,0
619,653,310,0
707,672,398,0
934,702,446,0
1114,732,455,0
1280,615,427,0
1327,372,470,0
1206,251,521,0
1176,328,459,0
1239,436,369,0
1279,443,319,0
1115,326,280,0
907,259,218,0
747,252,170,0
654,251,152,0
667,240,156,0
728,206,179,0
734,137,180,0
737,103,186,0
722,154,222,0
835,256,252,0
965,327,279,0
1157,427,340,0
1308,550,533,0
1359,670,675,0
1216,608,535,0
969,343,445,0
834,1,441,0
770,153,409,0
696,431,347,0
623,627,339,0
585,644,397,0
720,594,472,0
985,528,466,0
1148,457,427,0
1224,405,442,0
1237,405,404,0
1265,383,387,0
1176,380,343,0
1095,322,281,0
1105,295,249,0
1005,271,247,0
847,219,201,0
696,200,188,0
598,216,195,0
552,222,192,0
543,207,185,0
599,204,204,0
728,216,228,0
944,248,261,0
1147,289,307,0
1283,401,357,0
1341,564,552,0
1120,632,663,0
897,594,546,0
968,242,439,0
975,-50,422,0
826,35,385,0
684,274,302,0
609,511,274,0
594,596,312,0
534,484,356,0
664,440,406,0
941,424,431,0
1118,375,386,0
1265,377,420,0
1111,384,478,0
1251,462,486,0
1041,436,482,0
1001,431,383,0
938,341,285,0
1050,272,292,0
951,256,267,0
764,234,199,0
645,258,200,0
665,302,189,0
693,271,176,0
750,220,187,0
880,190,221,0
934,175,248,0
1036,238,246,0
918,276,281,0
976,359,303,0
889,397,399,0
940,452,503,0
1035,431,559,0
1044,325,501,0
864,198,465,0
729,178,458,0
648,311,413,0
632,446,385,0
634,520,413,0
722,504,461,0
950,514,490,0
1068,513,462,0
1185,517,460,0
1118,374,422,0
1254,414,443,0
1175,394,435,0
1102,428,356,0
1081,398,285,0
1123,337,235,0
1027,287,228,0
847,225,204,0
674,227,174,0
630,256,187,0
639,240,183,0
641,198,192,0
687,167,223,0
683,132,248,0
729,161,296,0
929,252,267,0
1072,366,234,0
1340,524,331,0
1184,570,517,0
1159,602,564,0
1087,495,442,0
1009,231,357,0
902,47,356,0
792,237,342,0
691,460,292,0
621,589,304,0
597,637,377,0
728,640,447,0
983,670,494,0
1182,601,446,0
1332,421,415,0
1437,333,480,0
1286,322,460,0
1290,381,355,0
1342,433,286,0
1262,352,267,0
983,254,186,0
768,241,140,0
663,269,131,0
686,285,139,0
708,228,133,0
749,159,144,0
743,102,162,0
711,113,167,0
835,215,160,0
961,351,218,0
1260,688,366,0
1089,744,469,0
1077,704,615,0
1159,596,643,0
1057,451,533,0
868,335,521,0
646,345,500,0
568,505,389,0
587,637,391,0
655,709,476,0
751,758,544,0
959,815,587,0
1300,871,600,0
1562,547,459,0
1675,160,489,0
1534,100,421,0
1391,289,338,0
1386,534,330,0
1257,475,212,0
982,400,115,0
778,308,99,0
677,239,98,0
598,166,114,0
549,80,119,0
518,28,120,0
496,11,152,0
481,77,245,0
589,194,307,0
826,284,358,0
1447,418,380,0
1981,734,720,0
1941,1131,952,0
918,993,385,0
990,-52,447,0
1001,-550,332,0
890,70,169,0
730,689,-74,0
554,886,-77,0
463,801,81,0
559,704,223,0
839,664,352,0
1121,777,372,0
1277,771,287,0
1286,387,294,0
1344,282,411,0
1313,229,470,0
1290,324,430,0
1236,409,355,0
1267,413,290,0
1110,348,258,0
917,258,181,0
754,196,148,0
676,194,163,0
659,202,171,0
679,190,181,0
718,166,201,0
704,136,212,0
760,170,254,0
847,211,238,0
1039,316,245,0
1271,476,376,0
1436,631,574,0
1430,724,635,0
1160,723,471,0
928,73,398,0
836,-194,444,0
788,80,310,0
783,543,172,0
681,785,141,0
585,821,235,0
731,772,375,0
997,734,438,0
1313,738,393,0
1405,397,304,0
1379,272,376,0
1355,304,423,0
1312,375,355,0
1276,419,277,0
1236,367,226,0
1088,311,171,0
913,279,104,0
762,241,84,0
685,226,96,0
576,205,138,0
585,399,277,0
856,200,190,0
772,48,93,0
781,12,182,0
906,201,282,0
857,287,249,0
1023,431,249,0
1134,551,485,0
1320,672,802,0
1280,914,769,0
836,183,369,0
1499,226,171,0
1299,-145,332,0
213,107,280,0
680,1148,284,0
476,543,249,0
529,871,375,0
777,648,513,0
1053,444,533,0
1341,376,494,0
1325,259,397,0
1338,350,416,0
1298,438,395,0
1250,482,327,0
1181,422,227,0
1101,365,161,0
971,337,154,0
837,301,112,0
717,243,88,0
661,226,111,0
669,229,152,0
633,198,163,0
641,188,178,0
651,179,217,0
714,203,227,0
923,283,227,0
1085,372,284,0
1319,517,429,0
1407,633,570,0
1341,721,499,0
1179,679,397,0
966,366,361,0
810,357,409,0
648,384,314,0
551,503,236,0
532,562,241,0
580,545,318,0
751,562,394,0
1037,598,424,0
1291,632,439,0
1322,516,454,0
1381,409,452,0
1181,335,397,0
1075,296,296,0
1076,338,252,0
1134,358,236,0
959,320,181,0
801,269,129,0
700,266,121,0
671,286,129,0
674,260,149,0
719,227,166,0
742,190,180,0
746,167,221,0
808,188,240,0
958,269,281,0
1046,371,336,0
1136,480,442,0
1240,551,634,0
1237,540,571,0
1147,423,393,0
991,130,404,0
850,99,391,0
700,263,303,0
614,478,214,0
577,581,224,0
585,544,296,0
744,512,381,0
1015,506,423,0
1201,563,444,0
1251,552,507,0
1212,470,523,0
1199,405,467,0
1094,334,383,0
1057,321,326,0
1063,309,265,0
997,330,249,0
933,309,213,0
796,259,144,0
719,261,143,0
721,274,171,0
717,240,179,0
739,217,190,0
762,203,220,0
767,201,268,0
874,221,306,0
934,271,326,0
1004,377,327,0
1067,491,442,0
1160,592,579,0
1188,566,534,0
1134,437,395,0
830,155,364,0
750,305,305,0
680,536,292,0
618,637,300,0
630,639,386,0
823,610,460,0
1000,559,488,0
1255,506,547,0
1267,356,528,0
1371,397,550,0
1324,397,579,0
1300,403,474,0
1215,358,329,0
1094,246,216,0
832,232,198,0
607,301,165,0
479,343,118,0
503,335,96,0
590,280,112,0
685,210,137,0
797,143,176,0
912,125,219,0
982,215,290,0
1076,295,356,0
1080,334,402,0
1168,329,461,0
1126,436,548,0
1127,657,700,0
1022,765,675,0
919,496,539,0
816,82,442,0
739,123,358,0
662,292,266,0
610,490,199,0
663,632,226,0
736,642,260,0
900,618,299,0
1008,580,319,0
1206,617,329,0
1103,499,332,0
1223,497,409,0
1109,474,457,0
1106,433,374,0
1198,394,330,0
1184,300,320,0
995,227,300,0
822,205,244,0
742,252,229,0
744,283,223,0
696,248,202,0
691,199,204,0
737,185,224,0
772,174,249,0
818,214,306,0
826,237,293,0
938,326,305,0
1086,442,414,0
1193,540,545,0
1235,601,589,0
1115,617,519,0
948,227,435,0
843,67,459,0
750,282,435,0
675,565,386,0
611,723,426,0
578,644,477,0
732,559,512,0
996,460,442,0
1216,444,397,0
1254,386,411,0
1307,452,430,0
1149,449,433,0
1039,432,365,0
1060,385,300,0
1072,332,240,0
1011,304,226,0
876,270,271,0
726,257,239,0
627,249,203,0
609,245,225,0
579,208,247,0
579,195,279,0
647,212,296,0
710,233,300,0
841,294,335,0
1107,364,380,0
1457,495,473,0
1438,623,657,0
1100,668,697,0
901,606,570,0
883,180,420,0
940,0,373,0
776,165,309,0
620,435,239,0
534,580,219,0
499,595,252,0
516,527,314,0
624,473,359,0
869,492,407,0
1082,493,460,0
1253,436,498,0
1303,334,501,0
1191,244,524,0
1031,279,502,0
986,318,411,0
938,357,339,0
983,354,327,0
901,273,312,0
779,223,235,0
729,211,206,0
702,232,186,0
701,250,193,0
679,240,187,0
678,230,170,0
752,263,203,0
857,300,266,0
1015,328,286,0
1132,385,324,0
1313,477,424,0
1135,548,583,0
882,539,566,0
845,371,454,0
920,135,395,0
851,51,379,0
696,172,357,0
610,378,352,0
565,540,380,0
545,527,437,0
669,484,482,0
938,438,507,0
1160,365,476,0
1322,335,476,0
1223,375,492,0
1126,414,475,0
964,393,410,0
959,364,294,0
1012,329,222,0
1052,314,237,0
949,284,238,0
812,270,191,0
743,272,179,0
754,282,183,0
729,246,193,0
743,228,209,0
775,214,237,0
782,203,255,0
757,201,293,0
859,253,290,0
926,312,342,0
1143,412,396,0
1137,465,500,0
1062,533,577,0
1012,590,523,0
1027,411,397,0
967,171,360,0
513,215,221,0
526,-323,318,0
478,-63,456,0
690,-222,273,0
-54,383,439,0
1233,785,280,0
1017,591,469,0
1203,383,455,0
1288,211,544,0
1156,266,466,0
1066,377,368,0
969,399,332,0
943,417,267,0
975,369,194,0
1044,355,191,0
989,276,197,0
806,214,169,0
704,235,183,0
699,278,201,0
701,255,194,0
754,240,206,0
795,212,233,0
773,200,264,0
801,200,256,0
1046,288,282,0
1103,357,303,0
1129,447,364,0
1033,487,478,0
942,498,486,0
965,446,358,0
1025,240,311,0
920,195,355,0
771,221,358,0
645,326,287,0
588,394,332,0
614,371,413,0
763,566,255,0
887,1072,-373,0
942,1362,-634,0
1013,1575,-604,0
1022,1230,-465,0
930,879,-551,0
922,764,-609,0
983,687,-609,0
951,543,-598,0
851,434,-549,0
605,362,-457,0
364,329,-369,0
201,315,-301,0
102,294,-257,0
50,280,-254,0
54,304,-274,0
150,358,-330,0
258,419,-358,0
405,432,-334,0
467,625,-344,0
848,784,-485,0
1347,1101,-87,0
1657,1832,431,0
1106,-486,-509,0
1357,-708,161,0
863,-1157,1334,0
871,494,216,0
599,1113,-74,0
701,1604,139,0
467,662,-56,0
604,319,161,0
808,396,288,0
1106,334,346,0
1274,797,231,0
1105,923,16,0
1088,746,48,0
942,466,201,0
979,380,262,0
1096,427,264,0
1202,477,240,0
1195,455,212,0
1061,403,172,0
915,326,152,0
835,261,172,0
823,250,210,0
802,246,222,0
804,248,251,0
798,212,259,0
825,187,253,0
877,181,250,0
900,268,263,0
842,371,293,0
924,488,338,0
1161,598,395,0
1271,612,364,0
1096,526,339,0
911,348,336,0
851,300,349,0
802,371,324,0
710,465,313,0
661,548,314,0
798,690,391,0
979,773,507,0
1071,860,577,0
1124,721,520,0
1253,488,485,0
1330,376,436,0
1279,385,358,0
1307,410,288,0
1349,460,267,0
1337,420,228,0
1142,379,136,0
922,309,71,0
733,270,50,0
626,260,63,0
559,230,106,0
548,212,173,0
601,210,241,0
666,171,247,0
799,182,244,0
928,258,290,0
1141,403,342,0
1454,547,471,0
1588,595,616,0
1487,495,391,0
1071,448,345,0
1066,85,403,0
1027,70,286,0
890,485,163,0
736,613,-18,0
609,611,-35,0
516,604,64,0
565,614,181,0
806,748,313,0
934,1098,240,0
942,723,168,0
1016,462,366,0
1207,605,389,0
1264,815,410,0
1371,718,349,0
1374,630,316,0
1387,559,137,0
1170,237,87,0
1040,153,70,0
941,179,84,0
889,248,71,0
785,290,56,0
792,283,48,0
719,230,72,0
733,199,66,0
729,266,142,0
784,362,244,0
812,483,330,0
1042,545,474,0
1313,451,523,0
1343,363,462,0
1301,-528,279,0
803,541,611,0
938,293,525,0
856,458,467,0
783,563,434,0
751,661,459,0
790,719,506,0
902,711,534,0
1153,793,549,0
1308,747,501,0
1395,453,399,0
1371,354,356,0
1426,399,266,0
1425,421,216,0
1308,399,158,0
1117,351,71,0
926,301,23,0
828,303,21,0
781,290,32,0
754,258,49,0
751,231,66,0
770,204,105,0
707,180,152,0
736,171,141,0
786,208,167,0
851,328,213,0
1012,420,283,0
1490,589,432,0
1822,947,459,0
1555,965,393,0
1067,630,478,0
822,579,464,0
671,636,317,0
572,582,194,0
517,552,220,0
570,591,296,0
801,713,371,0
1061,806,398,0
1202,743,395,0
1330,484,380,0
1326,381,414,0
1349,419,377,0
1278,459,275,0
1110,532,154,0
1093,526,128,0
1059,478,115,0
834,341,58,0
670,269,51,0
579,238,64,0
559,248,62,0
561,255,59,0
638,257,60,0
737,297,97,0
807,390,153,0
975,441,148,0
1124,512,209,0
1334,581,296,0
1257,603,462,0
1170,608,540,0
984,565,414,0
980,139,314,0
898,17,327,0
754,215,257,0
658,477,124,0
604,624,93,0
571,632,151,0
703,612,241,0
990,628,341,0
1168,650,352,0
1281,691,369,0
1145,552,421,0
1148,552,460,0
1116,545,449,0
1062,518,362,0
1095,433,256,0
1125,349,248,0
1012,334,240,0
891,238,139,0
798,264,108,0
745,248,98,0
708,261,95,0
712,261,125,0
773,247,132,0
807,216,132,0
803,228,171,0
884,276,222,0
883,324,244,0
968,442,310,0
1029,546,474,0
1155,639,641,0
1143,617,579,0
1050,436,514,0
845,27,495,0
757,52,415,0
695,273,340,0
638,552,305,0
611,684,337,0
680,701,387,0
906,602,422,0
1048,527,405,0
1312,561,410,0
1246,476,373,0
1161,441,349,0
1060,416,338,0
1084,417,271,0
1123,439,232,0
1108,366,220,0
920,294,198,0
756,267,159,0
678,294,165,0
663,298,192,0
667,267,199,0
706,234,230,0
725,191,265,0
775,191,317,0
910,233,380,0
1015,283,384,0
1122,405,408,0
1093,518,567,0
1059,550,607,0
1044,504,441,0
1034,335,336,0
895,125,295,0
782,193,276,0
705,391,223,0
642,562,170,0
617,612,202,0
653,554,282,0
890,538,345,0
1047,537,387,0
1214,603,431,0
1128,541,480,0
1185,521,508,0
1108,449,533,0
1031,410,471,0
1014,420,400,0
1077,382,336,0
1028,344,311,0
906,274,262,0
796,248,188,0
733,268,165,0
712,299,176,0
691,254,156,0
718,217,137,0
808,230,146,0
853,258,182,0
847,307,245,0
880,317,260,0
997,366,275,0
1092,384,313,0
1070,490,431,0
1092,582,563,0
1064,612,549,0
919,483,487,0
831,199,472,0
745,299,458,0
658,427,382,0
594,536,350,0
595,547,406,0
762,531,447,0
1058,538,431,0
1180,504,396,0
1218,506,406,0
1072,469,375,0
1148,538,342,0
1091,517,327,0
1095,472,253,0
1128,419,198,0
1144,347,193,0
992,265,175,0
825,235,159,0
744,293,187,0
723,317,208,0
762,300,206,0
791,259,239,0
738,206,279,0
695,163,338,0
756,151,324,0
822,217,337,0
978,329,368,0
1021,430,430,0
1164,547,533,0
1269,636,524,0
1175,590,411,0
920,247,354,0
822,138,345,0
755,301,289,0
704,507,216,0
614,624,213,0
626,662,277,0
861,693,385,0
1093,748,456,0
1231,800,476,0
1165,548,445,0
1255,412,463,0
1154,369,483,0
1186,400,408,0
1211,419,337,0
1295,396,310,0
1217,291,274,0
988,206,169,0
778,202,134,0
679,262,152,0
667,283,155,0
647,240,150,0
648,183,158,0
632,177,194,0
677,230,249,0
796,264,227,0
1022,346,257,0
1186,448,370,0
1376,571,508,0
1432,694,605,0
1255,782,471,0
1020,273,364,0
929,-16,432,0
818,178,338,0
733,515,222,0
629,712,206,0
517,767,321,0
578,736,462,0
868,735,545,0
1218,746,531,0
1448,504,461,0
1430,239,476,0
1208,215,462,0
1092,336,424,0
1179,474,354,0
1175,489,268,0
1142,409,215,0
967,276,155,0
766,237,123,0
669,248,123,0
631,247,134,0
600,230,160,0
597,214,210,0
651,200,263,0
710,165,314,0
887,179,314,0
1080,222,342,0
1255,392,398,0
1413,590,568,0
1431,707,688,0
1269,619,449,0
1148,495,340,0
918,277,319,0
759,308,241,0
681,456,160,0
596,598,96,0
564,656,125,0
627,644,216,0
871,655,338,0
957,658,423,0
1141,753,506,0
1215,712,554,0
1272,604,515,0
1328,436,476,0
1274,297,404,0
1131,289,347,0
1128,326,308,0
1001,347,249,0
852,346,184,0
760,325,134,0
711,301,140,0
676,269,148,0
688,231,161,0
755,217,216,0
830,200,263,0
877,192,312,0
901,193,323,0
900,295,380,0
932,421,487,0
990,475,548,0
1190,464,589,0
1350,418,487,0
1215,361,347,0
950,397,378,0
814,398,166,0
692,627,116,0
713,765,193,0
847,883,304,0
875,901,346,0
1070,932,395,0
1220,692,426,0
1412,486,434,0
1375,382,449,0
1423,396,374,0
1426,461,307,0
1375,457,236,0
1153,409,179,0
925,355,124,0
788,321,96,0
726,306,103,0
691,255,119,0
700,190,128,0
679,122,145,0
634,127,230,0
631,182,404,0
715,198,460,0
791,212,352,0
1024,305,310,0
1348,535,497,0
1584,880,585,0
1293,1086,420,0
934,592,126,0
981,734,220,0
747,719,177,0
584,677,81,0
605,649,95,0
654,606,214,0
703,633,236,0
841,750,292,0
981,750,350,0
1205,850,454,0
1356,724,455,0
1453,567,412,0
1259,316,366,0
1092,219,299,0
1053,276,246,0
1024,302,211,0
884,308,183,0
791,302,157,0
709,262,100,0
599,265,81,0
594,249,84,0
586,236,88,0
606,245,120,0
679,283,191,0
742,300,240,0
964,336,277,0
1318,417,329,0
1508,566,436,0
1257,652,620,0
992,643,539,0
935,591,424,0
945,383,435,0
832,255,422,0
661,288,362,0
542,375,321,0
526,443,347,0
580,477,392,0
742,497,429,0
1000,483,450,0
1102,426,442,0
1176,435,478,0
1152,411,472,0
1161,436,424,0
1073,393,379,0
1013,369,286,0
962,361,208,0
1007,364,184,0
878,356,165,0
737,353,150,0
630,319,165,0
659,318,170,0
745,296,186,0
837,241,184,0
889,189,202,0
888,182,229,0
864,236,262,0
953,294,274,0
898,381,314,0
984,488,421,0
975,504,574,0
969,425,584,0
988,268,408,0
1015,139,302,0
869,197,356,0
710,296,365,0
617,439,277,0
635,543,281,0
658,524,352,0
805,489,419,0
980,489,466,0
1084,500,459,0
1255,533,489,0
1175,499,483,0
1235,483,484,0
1153,450,456,0
1058,439,362,0
1083,417,300,0
1029,345,257,0
850,286,227,0
738,268,206,0
662,263,193,0
630,262,187,0
670,257,202,0
767,235,220,0
889,211,246,0
940,187,236,0
987,245,268,0
905,332,308,0
961,412,333,0
970,464,423,0
1019,505,549,0
1079,463,522,0
1001,373,418,0
857,257,423,0
750,287,359,0
713,427,333,0
644,583,348,0
639,679,373,0
850,771,445,0
1072,870,551,0
1178,893,542,0
1315,501,439,0
1428,247,430,0
1271,196,408,0
1185,363,397,0
1208,550,335,0
1176,542,212,0
1102,466,158,0
959,325,106,0
774,238,74,0
651,203,81,0
605,212,101,0
592,227,140,0
649,237,169,0
708,211,187,0
839,216,255,0
1010,219,274,0
1006,267,286,0
1087,420,372,0
1172,582,514,0
1282,737,653,0
1254,794,624,0
1013,540,485,0
920,20,460,0
795,18,397,0
717,312,265,0
624,637,216,0
617,734,246,0
758,739,299,0
983,626,376,0
1088,530,402,0
1311,567,427,0
1270,554,402,0
1300,517,424,0
1159,413,403,0
1129,369,348,0
1115,328,263,0
1056,327,270,0
956,293,228,0
770,251,142,0
620,241,122,0
552,268,125,0
608,262,136,0
635,229,158,0
684,209,180,0
752,228,235,0
932,284,294,0
1074,333,318,0
1248,479,388,0
1266,640,607,0
1134,675,660,0
983,589,463,0
979,179,363,0
903,-12,360,0
761,139,312,0
638,420,227,0
548,661,243,0
530,698,295,0
719,648,362,0
1028,596,416,0
1137,491,422,0
1236,485,460,0
1125,417,443,0
1217,422,421,0
1099,409,430,0
1008,399,365,0
991,414,294,0
1011,397,251,0
898,352,215,0
781,270,166,0
702,251,169,0
692,256,169,0
725,272,192,0
790,255,224,0
917,255,239,0
948,225,284,0
942,207,295,0
859,220,321,0
836,325,318,0
870,431,388,0
1050,519,508,0
1263,542,554,0
1205,481,422,0
879,365,379,0
744,234,357,0
743,321,328,0
723,495,311,0
683,559,310,0
739,553,355,0
889,541,401,0
1018,557,425,0
1071,641,463,0
1146,654,456,0
1159,565,424,0
1183,490,433,0
1291,433,393,0
1331,428,316,0
1320,354,251,0
1099,270,205,0
888,232,170,0
767,257,169,0
761,283,163,0
801,286,169,0
818,236,154,0
792,159,137,0
706,124,150,0
685,167,174,0
640,250,186,0
855,381,249,0
1118,474,356,0
1475,551,539,0
1566,541,552,0
1194,503,401,0
924,289,387,0
890,152,353,0
848,302,306,0
798,474,232,0
712,569,206,0
770,661,252,0
951,767,374,0
1081,918,527,0
1196,956,507,0
1224,653,432,0
1346,343,440,0
1354,207,413,0
1345,300,347,0
1340,452,331,0
1298,484,259,0
1087,390,104,0
893,296,25,0
782,269,40,0
709,249,57,0
664,224,64,0
683,220,84,0
714,204,92,0
705,191,158,0
816,226,208,0
875,246,271,0
1063,297,316,0
1159,344,441,0
1285,333,537,0
1385,403,491,0
1279,538,529,0
1051,521,515,0
862,443,453,0
793,514,399,0
715,546,359,0
630,556,368,0
720,640,407,0
968,783,450,0
1056,798,420,0
1216,670,412,0
1231,597,420,0
1311,591,406,0
1299,543,343,0
1367,489,284,0
1365,418,205,0
1304,399,174,0
1145,309,124,0
893,209,82,0
726,248,105,0
647,263,114,0
591,237,127,0
544,198,148,0
557,169,157,0
595,158,208,0
902,244,290,0
1064,285,295,0
1370,446,387,0
1689,622,598,0
1593,746,619,0
1093,684,442,0
980,178,434,0
902,367,455,0
736,504,232,0
559,536,153,0
520,476,157,0
566,485,226,0
762,574,304,0
1003,611,345,0
1087,620,329,0
1175,628,401,0
1125,558,461,0
1241,577,444,0
1181,470,424,0
1093,402,377,0
1053,399,302,0
1132,412,255,0
1083,363,226,0
870,244,152,0
705,228,141,0
637,265,172,0
644,294,158,0
657,249,145,0
780,226,151,0
845,217,190,0
756,234,251,0
835,287,284,0
962,340,284,0
1200,422,354,0
1184,444,502,0
1108,437,538,0
1010,417,490,0
948,391,453,0
878,367,450,0
775,379,383,0
679,388,327,0
622,450,316,0
603,479,334,0
713,559,376,0
923,648,419,0
988,697,439,0
1132,719,421,0
1112,590,419,0
1173,564,433,0
1097,496,385,0
1130,497,293,0
1156,447,247,0
1161,393,220,0
1025,333,197,0
888,290,160,0
808,275,160,0
759,280,186,0
717,257,207,0
704,235,214,0
741,234,247,0
729,202,299,0
802,190,321,0
855,213,287,0
1026,344,310,0
1104,479,407,0
1255,619,535,0
1324,611,474,0
1260,556,342,0
1005,309,347,0
832,219,336,0
745,399,266,0
664,599,188,0
601,719,203,0
634,768,299,0
818,819,433,0
1015,884,470,0
1302,734,437,0
1456,395,451,0
1358,289,457,0
1315,337,415,0
1379,440,361,0
1370,493,272,0
1230,421,170,0
1068,337,128,0
861,271,72,0
689,253,46,0
621,244,61,0
628,256,110,0
633,247,142,0
653,224,175,0
672,172,233,0
672,135,260,0
850,209,254,0
1038,289,255,0
1398,515,359,0
1559,719,629,0
1484,788,683,0
1211,834,439,0
1065,296,328,0
997,86,382,0
791,349,268,0
639,609,156,0
528,689,96,0
504,720,202,0
634,643,333,0
906,604,397,0
1110,639,415,0
1352,701,450,0
1321,540,436,0
1378,488,429,0
1225,370,415,0
1180,330,336,0
1116,359,237,0
1111,371,201,0
959,318,160,0
759,257,113,0
651,270,106,0
653,299,122,0
673,280,137,0
752,256,159,0
811,218,195,0
784,170,233,0
870,195,269,0
871,223,240,0
990,356,214,0
1074,514,326,0
1144,627,510,0
1253,662,607,0
1257,544,494,0
1029,343,476,0
834,109,487,0
708,235,428,0
661,445,340,0
622,617,326,0
694,691,395,0
900,727,482,0
1054,648,510,0
1269,625,518,0
1323,471,456,0
1390,406,426,0
1270,364,393,0
1223,367,318,0
1162,390,251,0
1124,399,242,0
982,344,196,0
803,276,130,0
675,252,122,0
646,264,145,0
643,251,164,0
624,229,182,0
684,225,200,0
750,205,234,0
836,204,263,0
958,234,230,0
1035,316,218,0
1296,528,353,0
1426,704,538,0
1367,760,574,0
1062,801,477,0
882,216,394,0
834,-67,431,0
753,159,315,0
682,524,180,0
625,743,172,0
582,746,285,0
702,680,426,0
954,596,464,0
1142,580,422,0
1369,567,393,0
1258,409,374,0
1257,405,410,0
1167,392,407,0
1153,417,343,0
1154,403,256,0
1097,348,218,0
969,295,195,0
825,246,132,0
688,239,112,0
618,261,114,0
595,255,112,0
610,244,129,0
650,237,160,0
703,244,221,0
833,274,277,0
1079,285,274,0
1142,338,308,0
1275,508,452,0
1305,642,648,0
1208,599,570,0
1071,508,452,0
948,80,423,0
817,20,374,0
721,240,268,0
611,575,192,0
566,698,241,0
574,628,361,0
777,529,453,0
1017,480,421,0
1149,500,382,0
1263,459,367,0
1178,484,413,0
1173,484,432,0
1103,424,385,0
1044,398,284,0
1108,364,265,0
1055,280,234,0
877,230,153,0
739,239,138,0
671,267,146,0
646,298,131,0
657,257,142,0
721,222,157,0
835,235,176,0
906,252,233,0
1087,321,334,0
1073,274,380,0
1144,374,401,0
1076,489,557,0
1040,499,619,0
989,435,522,0
896,263,460,0
777,249,421,0
695,325,342,0
613,409,256,0
594,469,239,0
606,501,296,0
798,525,340,0
1052,550,339,0
1226,590,327,0
1209,571,342,0
1073,585,364,0
1028,620,363,0
995,556,313,0
998,482,250,0
1070,401,233,0
1025,331,215,0
910,290,181,0
835,309,175,0
859,332,213,0
860,324,234,0
776,261,224,0
791,214,229,0
825,201,259,0
832,228,279,0
770,217,306,0
829,268,284,0
838,344,348,0
962,446,450,0
1180,514,556,0
1196,463,493,0
946,383,384,0
801,269,404,0
767,294,352,0
753,400,319,0
698,509,296,0
763,625,325,0
939,734,396,0
966,802,503,0
1048,873,542,0
1071,647,495,0
1199,469,503,0
1250,367,524,0
1311,436,442,0
1472,456,347,0
1437,349,260,0
1194,294,218,0
915,251,159,0
681,275,105,0
552,343,116,0
571,330,129,0
636,256,127,0
655,195,193,0
674,147,281,0
769,123,279,0
894,139,248,0
1039,298,276,0
1127,512,416,0
1301,764,645,0
1345,779,621,0
1169,658,429,0
1040,29,397,0
914,-104,458,0
829,176,361,0
712,553,273,0
580,721,260,0
593,706,322,0
808,622,463,0
1078,461,571,0
1207,549,572,0
1213,822,584,0
1328,651,464,0
1224,458,390,0
1273,372,259,0
1259,376,201,0
1132,355,156,0
912,298,99,0
743,281,74,0
683,293,72,0
701,278,92,0
680,250,155,0
647,186,177,0
607,157,237,0
623,179,342,0
764,210,371,0
803,234,391,0
1109,364,394,0
1536,548,617,0
1629,697,803,0
1250,753,583,0
892,253,480,0
861,-161,500,0
790,65,367,0
704,450,190,0
583,722,134,0
571,776,230,0
758,788,377,0
1019,686,432,0
1264,690,435,0
1067,694,328,0
1338,137,362,0
1164,423,432,0
1160,494,371,0
1214,563,315,0
1198,461,268,0
1135,332,249,0
952,231,195,0
739,181,141,0
643,226,137,0
618,265,153,0
613,264,158,0
622,234,162,0
658,215,198,0
668,195,202,0
822,257,194,0
1023,336,223,0
1339,531,309,0
1420,741,533,0
1306,796,658,0
986,772,475,0
1004,178,353,0
985,-58,440,0
825,55,412,0
635,351,291,0
495,605,290,0
490,614,350,0
593,511,422,0
871,471,470,0
1144,461,563,0
1281,511,607,0
1220,444,578,0
1297,337,460,0
1202,292,411,0
1086,292,359,0
972,387,287,0
917,388,241,0
800,361,196,0
683,294,138,0
628,269,137,0
662,274,154,0
676,267,161,0
727,260,188,0
827,242,225,0
890,227,275,0
1025,244,315,0
1068,271,361,0
1031,350,402,0
939,439,507,0
1008,467,617,0
1130,412,569,0
1031,277,400,0
826,201,382,0
722,238,372,0
724,432,282,0
677,606,267,0
681,634,294,0
828,638,353,0
965,708,423,0
1145,841,467,0
1274,741,431,0
1255,553,451,0
1160,351,479,0
1157,367,381,0
1276,416,293,0
1387,374,297,0
1215,302,309,0
968,255,224,0
776,274,166,0
651,321,147,0
594,296,133,0
597,200,133,0
624,145,161,0
647,143,202,0
730,218,272,0
856,242,256,0
1024,335,240,0
1253,506,382,0
1430,731,625,0
1431,750,560,0
1177,646,340,0
1057,74,344,0
926,-92,416,0
786,186,323,0
679,560,197,0
571,717,149,0
510,715,230,0
674,688,389,0
1031,698,499,0
1258,753,500,0
1332,602,432,0
1368,342,429,0
1362,308,421,0
1256,356,354,0
1247,419,339,0
1228,430,269,0
1086,387,203,0
970,337,134,0
836,269,57,0
714,257,61,0
653,263,96,0
624,242,119,0
645,223,117,0
700,207,144,0
766,218,215,0
907,263,288,0
931,274,255,0
1052,383,287,0
1190,537,470,0
1370,692,651,0
1357,629,578,0
1122,422,464,0
929,22,486,0
799,114,438,0
702,414,330,0
618,669,274,0
589,761,321,0
707,777,422,0
935,695,458,0
1188,624,452,0
1329,418,403,0
1281,391,416,0
1249,434,447,0
1200,461,415,0
1224,496,332,0
1176,421,249,0
1171,345,207,0
997,258,166,0
772,205,129,0
622,239,125,0
598,268,131,0
618,244,149,0
626,209,169,0
690,183,206,0
787,185,263,0
902,214,308,0
971,240,314,0
1031,336,363,0
1304,469,438,0
1415,644,623,0
1250,691,685,0
978,547,525,0
861,201,422,0
817,79,366,0
765,205,301,0
712,444,253,0
676,608,274,0
648,641,345,0
800,578,418,0
951,485,405,0
1114,474,406,0
1222,460,440,0
1261,455,454,0
1146,431,473,0
1093,411,398,0
1078,407,319,0
1085,351,267,0
945,287,246,0
790,247,207,0
679,255,165,0
654,285,164,0
682,279,164,0
695,239,171,0
769,221,168,0
840,231,182,0
839,279,220,0
966,350,302,0
1028,604,394,0
1012,620,448,0
925,437,597,0
924,246,654,0
959,196,560,0
963,221,441,0
826,278,449,0
670,327,399,0
571,416,300,0
538,510,291,0
610,572,355,0
724,581,408,0
892,602,471,0
1042,644,509,0
1220,638,490,0
1261,498,435,0
1205,321,433,0
1094,379,417,0
1056,472,346,0
1036,525,277,0
992,461,250,0
916,306,210,0
817,229,159,0
763,243,155,0
738,270,145,0
714,251,155,0
739,252,183,0
772,223,181,0
814,216,189,0
895,235,217,0
876,309,255,0
969,443,334,0
1052,572,493,0
1180,610,608,0
1172,547,536,0
1039,394,476,0
851,120,456,0
753,175,396,0
698,371,322,0
663,587,290,0
691,680,354,0
737,655,450,0
870,656,538,0
1023,668,538,0
1238,595,458,0
1225,341,418,0
1147,201,441,0
1196,303,390,0
1295,422,318,0
1246,466,252,0
1070,398,202,0
850,310,161,0
652,289,110,0
585,290,93,0
612,284,107,0
636,262,150,0
648,230,187,0
684,203,245,0
684,194,309,0
840,227,318,0
1047,312,382,0
1315,450,417,0
1493,606,593,0
1283,673,699,0
950,715,542,0
912,337,396,0
972,-17,369,0
808,89,283,0
683,396,177,0
557,654,154,0
516,750,211,0
569,655,326,0
739,536,406,0
982,497,445,0
1143,500,440,0
1210,461,432,0
1170,399,433,0
1093,367,453,0
1035,389,419,0
1079,419,346,0
1135,382,255,0
1072,331,217,0
873,262,214,0
675,240,170,0
562,282,162,0
566,325,177,0
650,315,198,0
777,275,244,0
867,191,329,0
793,237,342,0
889,351,341,0
1026,336,367,0
1202,372,414,0
1012,397,537,0
887,450,521,0
891,463,478,0
997,395,366,0
977,266,320,0
785,227,336,0
652,372,298,0
609,572,314,0
654,498,358,0
842,483,445,0
1014,471,485,0
1192,579,502,0
1128,521,490,0
1127,470,493,0
1076,434,486,0
1106,429,386,0
1113,415,300,0
1178,373,265,0
1055,309,238,0
864,259,177,0
740,260,146,0
722,302,141,0
735,302,144,0
738,243,175,0
743,163,209,0
749,212,213,0
801,282,249,0
937,304,263,0
995,354,249,0
1042,470,368,0
974,530,479,0
1042,579,544,0
1150,515,448,0
1137,337,360,0
939,97,393,0
795,179,350,0
717,393,255,0
706,588,189,0
684,638,246,0
682,543,332,0
836,486,385,0
988,479,389,0
1212,594,426,0
1192,619,465,0
1198,566,480,0
1165,465,443,0
1200,396,355,0
1247,373,300,0
1221,306,270,0
1045,258,220,0
862,244,157,0
752,277,132,0
725,319,122,0
680,288,102,0
668,233,95,0
711,216,118,0
660,209,169,0
722,255,200,0
818,298,215,0
1070,418,259,0
1186,497,375,0
1300,606,558,0
1262,640,577,0
1090,579,415,0
924,122,400,0
827,12,413,0
746,258,320,0
655,519,235,0
640,656,261,0
676,722,354,0
839,658,430,0
1065,623,460,0
1301,588,460,0
1262,439,452,0
1268,357,452,0
1065,372,394,0
1078,387,299,0
1086,421,231,0
1134,446,236,0
997,361,172,0
809,300,109,0
702,305,114,0
671,318,137,0
699,311,167,0
755,314,223,0
851,286,274,0
832,215,305,0
865,182,367,0
882,155,414,0
870,208,384,0
847,322,490,0
838,386,595,0
924,409,601,0
1078,384,505,0
1034,296,376,0
852,276,375,0
738,332,328,0
698,428,244,0
680,520,227,0
680,590,288,0
849,617,394,0
1089,654,468,0
1171,644,536,0
1168,500,592,0
1238,419,604,0
1045,368,574,0
1005,358,499,0
1038,366,414,0
1095,360,334,0
1061,322,323,0
920,261,268,0
756,249,193,0
664,266,182,0
662,282,181,0
693,238,166,0
691,201,163,0
719,207,181,0
769,260,246,0
912,304,273,0
961,353,269,0
1087,484,298,0
1124,833,474,0
1063,921,399,0
1012,825,350,0
996,624,266,0
705,1007,212,0
444,991,132,0
263,741,87,0
236,686,98,0
315,715,133,0
434,764,155,0
631,851,156,0
862,871,151,0
1091,819,202,0
1201,770,242,0
1089,746,246,0
960,657,206,0
872,501,147,0
856,416,142,0
862,380,157,0
773,349,146,0
693,327,136,0
650,305,144,0
655,288,166,0
692,278,191,0
762,282,215,0
882,301,232,0
948,287,262,0
1030,316,283,0
973,364,315,0
1103,592,431,0
631,1063,393,0
990,168,498,0
736,711,544,0
901,465,400,0
789,324,367,0
647,285,369,0
583,354,341,0
618,433,312,0
601,471,330,0
641,455,371,0
846,479,426,0
979,423,391,0
1094,422,372,0
1141,429,432,0
1181,537,441,0
990,516,413,0
829,450,349,0
798,452,333,0
880,425,287,0
961,399,274,0
847,308,254,0
697,263,231,0
628,289,227,0
676,336,221,0
767,325,223,0
897,290,225,0
1001,262,236,0
1004,279,281,0
1114,315,289,0
959,337,335,0
898,393,373,0
764,400,449,0
803,416,480,0
934,359,437,0
944,236,366,0
775,238,350,0
661,325,333,0
632,432,276,0
653,531,302,0
654,488,358,0
776,484,440,0
941,518,481,0
988,557,483,0
1058,572,477,0
1009,485,427,0
1148,469,403,0
1143,435,413,0
993,440,341,0
1005,467,234,0
1017,385,181,0
1093,376,171,0
993,367,203,0
798,259,156,0
608,276,116,0
637,346,125,0
683,282,169,0
699,274,216,0
759,263,278,0
809,258,312,0
839,249,332,0
993,287,334,0
1072,353,369,0
1209,455,410,0
1106,521,484,0
1023,546,487,0
958,549,422,0
936,296,323,0
822,166,318,0
695,260,335,0
605,427,301,0
583,561,274,0
580,551,348,0
678,460,402,0
934,432,456,0
1054,365,423,0
1110,421,454,0
1152,432,512,0
1242,474,484,0
1120,428,427,0
982,384,353,0
932,375,272,0
963,362,215,0
990,350,202,0
896,299,198,0
750,254,180,0
639,248,190,0
618,257,198,0
633,246,196,0
661,240,223,0
715,232,245,0
824,265,301,0
1109,342,350,0
1189,365,338,0
1139,472,391,0
987,579,474,0
908,651,447,0
923,555,307,0
971,482,264,0
840,412,318,0
670,410,321,0
613,444,282,0
613,483,268,0
631,484,340,0
661,453,399,0
798,464,442,0
955,457,468,0
1183,513,521,0
1221,482,564,0
1162,466,488,0
1030,419,452,0
1062,367,381,0
1050,346,290,0
1022,332,246,0
898,298,202,0
759,283,166,0
634,288,152,0
614,311,160,0
610,292,188,0
636,268,210,0
742,253,239,0
856,221,263,0
913,230,307,0
1038,317,346,0
1021,378,360,0
1152,492,452,0
1019,470,588,0
925,410,538,0
973,351,446,0
973,233,394,0
828,256,345,0
714,347,329,0
639,459,270,0
628,543,286,0
598,514,361,0
731,510,439,0
1003,558,486,0
1081,468,437,0
1213,435,473,0
1066,379,465,0
1161,459,434,0
1047,435,408,0
994,446,357,0
981,408,289,0
1026,385,252,0
1027,353,228,0
862,286,200,0
700,217,164,0
648,278,243,0
621,284,146,0
724,269,207,0
818,237,238,0
888,198,248,0
1027,245,273,0
1015,331,301,0
1150,503,400,0
1006,546,488,0
927,-644,-359,0
779,-161,452,0
945,388,465,0
998,-12,391,0
760,271,390,0
657,421,345,0
612,508,331,0
611,431,347,0
647,328,387,0
812,362,399,0
1044,439,430,0
1331,532,464,0
1329,500,471,0
1243,369,429,0
1034,255,373,0
1056,285,314,0
1064,316,259,0
1087,325,230,0
948,280,197,0
816,235,146,0
724,241,122,0
711,260,126,0
707,234,126,0
713,213,144,0
804,216,188,0
854,195,225,0
888,169,229,0
1003,206,261,0
1117,289,299,0
1117,372,378,0
1062,379,454,0
1047,375,479,0
1068,380,424,0
942,303,361,0
812,238,359,0
717,289,334,0
680,366,287,0
684,442,337,0
659,412,385,0
814,432,444,0
1042,461,491,0
1243,447,485,0
1295,393,480,0
1215,349,451,0
1142,348,433,0
1134,350,370,0
1119,333,266,0
1114,294,208,0
1097,256,200,0
902,205,154,0
727,202,95,0
641,239,83,0
659,286,104,0
666,258,128,0
658,215,138,0
706,180,172,0
758,176,227,0
921,198,240,0
1095,276,289,0
1194,390,353,0
1277,469,494,0
1265,522,619,0
1057,472,502,0
1018,151,416,0
885,-10,452,0
708,71,408,0
580,301,311,0
624,1253,772,0
331,-491,-25,0
666,161,344,0
1084,-22,417,0
1184,506,469,0
1309,554,372,0
1078,562,439,0
1189,423,423,0
1032,315,343,0
961,222,254,0
946,259,238,0
948,279,240,0
855,265,237,0
746,208,202,0
655,213,183,0
630,253,194,0
644,257,198,0
704,232,214,0
790,203,220,0
882,197,235,0
1009,216,252,0
1142,267,280,0
1083,365,335,0
1116,529,410,0
1032,669,479,0
942,632,457,0
942,434,430,0
889,314,433,0
704,209,351,0
610,363,287,0
549,409,229,0
546,467,213,0
600,488,239,0
734,471,256,0
970,504,295,0
1204,548,339,0
1245,507,371,0
1194,470,394,0
1091,389,382,0
999,354,339,0
958,328,271,0
978,317,245,0
963,297,242,0
833,249,209,0
709,227,181,0
652,255,206,0
656,263,217,0
681,239,206,0
796,214,223,0
905,172,245,0
964,166,269,0
1058,218,298,0
973,276,323,0
1107,398,372,0
976,410,502,0
925,394,549,0
938,312,476,0
981,186,381,0
836,137,345,0
696,193,315,0
635,320,266,0
640,429,255,0
649,451,309,0
726,398,364,0
919,414,431,0
1076,419,466,0
1252,451,492,0
1115,415,531,0
1143,442,572,0
1089,387,533,0
1106,351,400,0
1080,316,321,0
1131,262,298,0
1006,227,279,0
820,244,243,0
717,255,188,0
691,260,139,0
725,234,142,0
694,178,171,0
693,160,179,0
773,181,213,0
853,212,253,0
1024,241,294,0
955,236,327,0
1070,330,388,0
1079,377,535,0
1113,366,555,0
1152,303,458,0
1006,179,388,0
822,168,406,0
720,254,377,0
700,410,330,0
716,505,337,0
705,443,400,0
866,442,479,0
1023,450,461,0
1099,478,434,0
1190,432,450,0
1148,422,459,0
1227,417,476,0
1160,387,439,0
1100,351,337,0
1133,289,264,0
1141,248,255,0
1007,207,227,0
819,186,168,0
673,206,128,0
654,256,134,0
688,242,139,0
696,202,167,0
713,164,182,0
777,190,233,0
924,226,307,0
984,226,331,0
1136,281,357,0
1149,369,485,0
1235,434,594,0
1263,396,480,0
1088,258,395,0
849,88,381,0
810,182,351,0
733,348,266,0
695,506,200,0
694,548,264,0
810,555,383,0
997,583,472,0
1142,649,504,0
1323,605,491,0
1357,391,485,0
1139,306,462,0
1071,317,410,0
1067,359,316,0
1093,364,244,0
1099,293,239,0
980,182,169,0
873,156,132,0
835,203,150,0
807,222,165,0
805,202,164,0
802,186,177,0
753,135,188,0
692,114,218,0
704,126,205,0
799,224,212,0
978,372,299,0
1217,591,480,0
1448,752,641,0
1315,963,549,0
1056,659,472,0
849,275,529,0
713,335,500,0
601,484,372,0
518,603,357,0
577,584,427,0
756,523,485,0
1028,501,496,0
1186,492,495,0
1282,464,475,0
1271,405,419,0
1182,349,361,0
1000,319,296,0
1007,334,226,0
1043,328,178,0
1024,311,154,0
919,252,147,0
754,207,123,0
633,228,142,0
602,252,172,0
639,240,204,0
702,216,231,0
765,183,274,0
817,165,302,0
968,202,306,0
1035,288,327,0
1215,449,366,0
1262,586,515,0
1166,627,570,0
993,581,445,0
946,152,353,0
877,30,359,0
776,183,329,0
702,382,244,0
660,517,214,0
667,516,289,0
677,392,356,0
877,351,410,0
1059,332,434,0
1233,356,424,0
1151,345,454,0
1195,394,481,0
1040,382,423,0
950,349,337,0
962,348,286,0
1008,330,246,0
947,295,204,0
812,245,161,0
729,241,161,0
714,270,164,0
737,275,154,0
752,248,185,0
803,229,220,0
911,209,251,0
986,185,267,0
1034,189,297,0
1063,269,334,0
852,330,398,0
796,381,461,0
915,385,522,0
1053,333,483,0
1038,228,450,0
865,159,477,0
743,261,461,0
712,353,422,0
695,404,417,0
667,392,454,0
677,357,478,0
855,391,487,0
1038,400,459,0
1195,366,453,0
1203,365,442,0
1115,370,416,0
1093,364,384,0
1145,308,295,0
1129,242,212,0
1068,218,208,0
911,233,248,0
722,256,219,0
614,245,192,0
641,227,222,0
656,186,245,0
651,141,258,0
750,134,302,0
850,137,336,0
983,174,307,0
1123,251,289,0
1304,415,374,0
1217,542,491,0
1129,565,477,0
1044,667,324,0
1023,492,213,0
912,387,307,0
788,413,337,0
634,420,238,0
544,443,204,0
592,423,275,0
647,382,347,0
793,381,368,0
996,428,404,0
1196,536,452,0
1236,512,441,0
1258,475,390,0
1019,402,346,0
1037,451,265,0
1064,447,189,0
1054,396,158,0
1008,354,170,0
891,316,162,0
750,280,145,0
680,254,162,0
714,238,174,0
745,220,181,0
768,207,184,0
736,185,176,0
718,239,200,0
824,367,237,0
902,572,175,0
1014,894,225,0
881,987,351,0
805,874,324,0
826,729,292,0
601,591,249,0
369,733,183,0
445,779,-6,0
659,882,-48,0
807,754,22,0
794,616,93,0
848,622,161,0
899,584,154,0
953,540,192,0
1029,513,214,0
1136,554,238,0
1050,539,240,0
854,449,205,0
763,383,175,0
778,370,155,0
749,342,151,0
731,319,138,0
698,327,160,0
664,367,172,0
616,382,185,0
590,406,183,0
666,470,187,0
806,593,222,0
887,672,259,0
1026,557,264,0
1259,849,201,0
1338,654,155,0
862,750,251,0
696,639,341,0
868,608,285,0
1065,426,199,0
925,215,233,0
661,167,269,0
480,273,260,0
410,363,247,0
421,339,298,0
459,273,375,0
625,301,452,0
871,406,436,0
1134,509,365,0
1339,622,408,0
1243,686,426,0
905,597,393,0
896,515,326,0
905,517,274,0
923,432,245,0
839,326,251,0
747,285,262,0
692,292,265,0
696,300,264,0
719,285,267,0
786,256,264,0
837,222,273,0
837,238,309,0
842,276,337,0
1010,335,328,0
1037,357,310,0
1048,453,368,0
905,549,457,0
899,582,424,0
948,423,321,0
891,309,335,0
726,302,330,0
596,387,233,0
580,471,191,0
633,552,248,0
638,529,297,0
746,558,355,0
911,532,363,0
1011,479,373,0
1154,489,411,0
1189,509,416,0
1180,489,378,0
1015,406,342,0
1011,363,275,0
1032,338,217,0
1063,330,216,0
1002,296,229,0
827,257,203,0
711,253,201,0
656,230,196,0
627,206,198,0
597,200,230,0
642,218,271,0
762,240,329,0
915,251,393,0
1135,258,453,0
1326,326,531,0
1265,408,669,0
947,401,718,0
803,336,617,0
928,165,483,0
943,86,414,0
735,154,406,0
594,277,413,0
565,371,383,0
582,380,369,0
581,313,396,0
591,225,438,0
684,188,471,0
870,184,479,0
975,177,515,0
1118,245,601,0
1065,287,714,0
1132,310,702,0
1087,231,662,0
932,117,533,0
796,150,407,0
827,198,388,0
861,277,391,0
779,293,332,0
664,253,299,0
629,238,299,0
685,249,290,0
689,225,305,0
692,191,321,0
775,201,353,0
903,223,424,0
1037,252,478,0
1186,258,466,0
1221,310,492,0
908,372,634,0
718,350,642,0
828,251,426,0
985,147,266,0
864,147,292,0
683,260,348,0
619,387,332,0
603,481,305,0
634,462,331,0
687,346,401,0
836,270,429,0
1010,273,452,0
987,338,510,0
1148,452,576,0
1104,471,617,0
1060,405,509,0
1072,323,497,0
1071,293,408,0
1086,301,331,0
1123,267,299,0
952,247,254,0
796,255,233,0
709,273,215,0
684,286,187,0
762,269,202,0
796,217,231,0
799,159,237,0
792,122,241,0
774,148,259,0
848,229,257,0
941,343,284,0
1068,473,407,0
1167,516,581,0
1178,467,553,0
1140,392,379,0
1003,205,332,0
811,208,369,0
680,338,329,0
619,467,243,0
599,508,250,0
594,470,344,0
742,470,442,0
1037,521,486,0
1170,512,460,0
1290,465,482,0
1166,337,458,0
1233,392,437,0
1103,384,388,0
1034,406,302,0
1028,389,231,0
1094,365,177,0
1009,312,158,0
837,225,129,0
693,200,122,0
638,232,145,0
649,252,152,0
698,249,180,0
773,223,212,0
821,185,248,0
907,194,308,0
962,208,351,0
985,276,333,0
1037,378,435,0
1067,451,551,0
1071,451,500,0
1113,489,456,0
1042,367,389,0
864,285,346,0
713,433,324,0
624,559,234,0
592,634,213,0
594,583,254,0
902,610,339,0
1074,611,330,0
1342,682,273,0
1296,464,124,0
1383,163,450,0
1214,177,439,0
1207,-210,290,0
927,482,110,0
1020,386,118,0
821,440,27,0
756,329,0,0
731,248,64,0
718,277,87,0
668,293,90,0
636,282,130,0
648,235,196,0
647,133,237,0
802,101,261,0
1056,160,312,0
1296,314,351,0
1507,516,515,0
1450,586,654,0
1169,622,517,0
938,305,333,0
915,-49,322,0
816,60,287,0
680,341,202,0
611,560,123,0
560,619,182,0
568,502,260,0
771,422,343,0
1066,425,415,0
1320,477,433,0
1311,489,458,0
1200,411,449,0
1103,369,441,0
1110,315,375,0
1123,330,323,0
1142,299,261,0
1015,259,203,0
878,231,172,0
769,221,146,0
714,250,133,0
757,266,160,0
785,237,159,0
822,210,181,0
836,163,197,0
854,146,212,0
1036,282,201,0
1014,412,292,0
1033,495,443,0
1163,452,464,0
1219,377,372,0
1122,289,365,0
883,163,377,0
776,264,348,0
743,426,312,0
693,536,310,0
639,525,367,0
712,482,446,0
930,506,498,0
1131,540,484,0
1261,531,478,0
1154,380,466,0
1255,360,470,0
1167,361,447,0
1179,372,343,0
1194,350,269,0
1232,284,218,0
1050,241,214,0
844,219,183,0
719,248,153,0
694,263,151,0
689,228,170,0
713,167,240,0
200,444,513,0
1178,496,335,0
937,-281,56,0
1035,-213,190,0
962,406,529,0
669,511,451,0
747,469,400,0
942,365,451,0
1027,171,477,0
1002,57,510,0
934,240,477,0
898,448,475,0
819,513,468,0
803,450,453,0
961,402,443,0
1213,82,402,0
841,578,383,0
664,859,401,0
1226,770,299,0
977,363,333,0
928,178,147,0
1155,-15,-362,0
1075,349,-161,0
948,458,80,0
905,296,-53,0
966,254,-232,0
1017,193,-226,0
1012,236,-183,0
1015,178,-155,0
586,408,-105,0
414,745,-96,0
1134,-5,94,0
881,405,168,0
1001,237,35,0
967,430,14,0
1076,566,7,0
855,614,17,0
753,596,38,0
788,523,58,0
890,452,68,0
859,405,86,0
762,362,101,0
691,409,89,0
1077,730,-96,0
-335,190,318,0
1463,563,-39,0
589,414,261,0
1029,485,298,0
1124,589,281,0
1163,637,344,0
1181,591,381,0
1017,543,311,0
919,548,229,0
984,518,158,0
1070,501,127,0
1107,425,77,0
931,337,34,0
814,334,36,0
777,334,43,0
771,312,32,0
786,293,47,0
836,274,66,0
847,233,86,0
841,217,114,0
853,233,141,0
880,269,151,0
1084,386,160,0
1021,487,266,0
1005,535,391,0
1088,500,378,0
1133,484,309,0
984,334,299,0
852,249,313,0
774,361,294,0
726,496,270,0
685,532,308,0
685,484,373,0
829,498,427,0
1027,571,433,0
1142,658,446,0
1124,629,425,0
1277,582,393,0
1093,410,321,0
973,394,311,0
1020,435,262,0
1142,451,169,0
1231,417,125,0
1138,267,70,0
943,174,16,0
820,225,17,0
779,310,12,0
776,343,-3,0
827,325,19,0
841,311,94,0
826,298,149,0
924,288,222,0
833,215,258,0
807,194,246,0
974,302,307,0
1213,452,397,0
1515,617,454,0
1491,682,466,0
1105,671,478,0
865,433,380,0
840,309,357,0
792,400,334,0
720,559,356,0
657,698,443,0
790,708,470,0
976,613,417,0
1006,408,352,0
1144,370,361,0
1314,430,337,0
1448,467,295,0
1252,438,266,0
1140,395,211,0
1037,395,144,0
1026,415,111,0
938,379,95,0
828,309,70,0
720,249,69,0
665,249,97,0
645,259,130,0
655,251,157,0
670,220,161,0
724,211,170,0
790,286,210,0
952,431,250,0
1186,591,266,0
1466,829,319,0
1127,886,451,0
865,818,540,0
826,651,436,0
958,435,325,0
957,229,321,0
778,248,310,0
634,375,253,0
572,471,187,0
541,526,230,0
544,508,283,0
650,485,327,0
831,470,332,0
1046,469,357,0
1182,459,409,0
1157,479,411,0
1239,510,355,0
1076,412,213,0
939,358,151,0
965,314,99,0
937,361,67,0
890,385,12,0
1006,-357,-331,0
701,154,-8,0
613,177,4,0
714,170,252,0
647,524,193,0
872,622,121,0
1079,480,215,0
1087,364,235,0
1160,259,249,0
1389,393,267,0
1086,447,339,0
798,499,338,0
796,384,262,0
920,296,182,0
898,250,158,0
756,252,177,0
630,360,186,0
589,434,149,0
573,435,157,0
610,395,209,0
698,392,257,0
849,441,299,0
1001,459,304,0
1200,485,284,0
1300,495,297,0
1193,440,258,0
1007,325,132,0
1027,269,18,0
1012,250,-48,0
973,274,-45,0
834,305,-46,0
695,377,16,0
667,377,43,0
643,355,50,0
708,364,126,0
794,333,148,0
880,316,131,0
995,307,125,0
1147,408,156,0
1169,473,181,0
1205,573,227,0
901,551,297,0
783,458,244,0
847,339,157,0
987,265,96,0
949,251,120,0
794,322,152,0
675,418,161,0
586,451,183,0
555,404,204,0
604,381,264,0
784,397,310,0
980,425,312,0
1047,477,315,0
1188,603,373,0
1158,669,368,0
1085,602,263,0
1003,465,159,0
1107,431,70,0
1161,330,23,0
964,275,40,0
891,344,75,0
876,384,65,0
806,387,10,0
812,346,3,0
829,266,28,0
788,240,69,0
822,309,127,0
946,386,192,0
1160,414,250,0
1258,378,204,0
1233,379,245,0
1099,419,393,0
1015,490,468,0
986,430,392,0
998,331,309,0
920,203,283,0
810,229,281,0
739,306,292,0
679,396,298,0
615,394,263,0
604,305,213,0
645,253,200,0
662,248,225,0
688,290,231,0
762,352,246,0
939,428,258,0
1255,568,339,0
1322,693,476,0
984,627,394,0
829,531,320,0
932,334,209,0
948,278,198,0
909,281,243,0
864,353,271,0
817,401,264,0
788,348,204,0
814,293,207,0
854,268,264,0
911,253,258,0
904,193,226,0
939,171,202,0
902,203,174,0
931,374,227,0
881,538,383,0
882,504,402,0
962,394,376,0
1016,238,314,0
865,181,298,0
691,254,279,0
609,373,245,0
611,477,252,0
609,479,285,0
786,522,331,0
1154,809,423,0
1208,898,380,0
1124,625,394,0
1184,440,406,0
1058,450,390,0
1073,536,319,0
1207,600,255,0
1295,510,204,0
1132,367,188,0
989,281,140,0
844,265,117,0
763,287,130,0
735,267,131,0
732,229,146,0
756,194,167,0
763,164,174,0
841,168,173,0
826,217,159,0
981,336,138,0
1111,506,237,0
1349,697,407,0
1428,758,476,0
1239,739,414,0
896,343,333,0
859,-2,368,0
802,159,294,0
718,447,200,0
612,686,202,0
666,789,279,0
891,836,395,0
1018,859,516,0
1101,843,504,0
1277,557,361,0
1498,385,317,0
1468,261,324,0
1294,341,323,0
1244,456,277,0
1258,489,192,0
1240,492,142,0
1051,363,76,0
846,238,51,0
716,203,74,0
655,216,109,0
599,197,150,0
560,164,164,0
560,145,202,0
598,137,239,0
750,176,225,0
952,206,233,0
1360,378,249,0
1878,615,321,0
1997,974,500,0
1439,1387,432,0
878,629,361,0
917,-85,440,0
825,57,221,0
747,547,133,0
571,717,16,0
438,753,173,0
472,737,323,0
749,708,440,0
1074,784,498,0
1071,752,410,0
1291,577,318,0
1482,317,283,0
1641,270,331,0
1467,290,398,0
1319,345,305,0
1207,407,154,0
1230,438,92,0
1098,408,71,0
858,304,42,0
667,233,40,0
597,236,80,0
577,215,132,0
535,180,171,0
512,141,204,0
546,120,206,0
680,155,213,0
957,247,261,0
1262,417,297,0
1774,699,440,0
1917,929,627,0
1372,985,513,0
986,495,371,0
1027,-18,413,0
897,77,270,0
741,428,128,0
576,656,26,0
494,717,122,0
487,672,241,0
670,598,347,0
955,632,366,0
1224,757,341,0
1325,681,290,0
1347,520,282,0
1356,393,309,0
1219,335,297,0
1162,359,240,0
1223,398,188,0
1225,402,168,0
1051,298,101,0
882,226,65,0
755,242,74,0
710,286,90,0
729,292,112,0
754,267,123,0
723,193,135,0
658,141,160,0
721,162,160,0
841,260,176,0
1091,429,246,0
1323,578,360,0
1538,675,529,0
1507,719,524,0
1228,711,456,0
978,175,401,0
830,83,370,0
757,296,259,0
707,530,192,0
634,653,233,0
554,694,344,0
695,690,471,0
954,753,512,0
1289,842,448,0
1506,601,282,0
1550,274,212,0
1476,174,216,0
1368,185,255,0
1276,355,222,0
1115,469,164,0
1068,478,55,0
910,370,6,0
763,256,-12,0
669,209,14,0
605,243,43,0
601,268,28,0
588,243,10,0
599,235,-17,0
640,326,-1,0
816,534,2,0
1000,922,0,0
318,1738,-136,0
1114,1939,-273,0
735,1236,251,0
814,1143,1012,0
842,604,851,0
583,306,373,0
652,194,147,0
447,348,159,0
363,476,169,0
401,371,179,0
398,246,230,0
442,316,274,0
618,386,265,0
871,374,196,0
1458,853,526,0
1240,966,562,0
1216,1240,343,0
1069,-171,170,0
1001,268,235,0
1076,239,143,0
901,305,154,0
715,416,225,0
628,492,267,0
616,437,229,0
670,376,184,0
730,332,176,0
798,286,182,0
868,251,217,0
922,258,272,0
993,319,301,0
1185,390,306,0
1298,465,335,0
1004,449,430,0
709,426,431,0
757,407,335,0
848,359,186,0
887,451,135,0
795,436,116,0
675,404,227,0
687,473,252,0
704,460,151,0
704,426,205,0
722,363,321,0
903,102,392,0
882,589,359,0
1071,735,356,0
1089,685,443,0
1254,552,387,0
954,450,218,0
946,317,176,0
925,386,197,0
1015,382,174,0
909,379,150,0
763,333,131,0
687,331,122,0
699,363,139,0
752,358,172,0
761,310,196,0
790,231,187,0
835,185,210,0
857,207,253,0
960,309,244,0
972,394,243,0
1215,577,308,0
1083,643,397,0
1006,659,377,0
892,574,298,0
948,339,185,0
887,163,211,0
828,234,210,0
734,433,234,0
660,535,183,0
603,516,215,0
580,396,288,0
655,368,356,0
839,413,412,0
1000,501,438,0
1225,572,462,0
1204,529,445,0
1161,466,420,0
1102,358,390,0
1126,328,270,0
1140,353,178,0
1158,330,144,0
992,298,147,0
793,306,119,0
670,359,122,0
635,392,125,0
631,353,110,0
663,280,116,0
674,189,149,0
712,185,234,0
839,232,277,0
967,293,306,0
1172,413,301,0
1281,532,432,0
1210,589,518,0
1041,594,417,0
988,451,339,0
924,164,271,0
782,184,287,0
667,343,263,0
592,518,207,0
590,581,210,0
647,521,260,0
829,500,312,0
971,536,353,0
1057,651,375,0
1166,618,337,0
1234,551,316,0
1295,455,360,0
1184,349,308,0
1093,391,229,0
1144,382,174,0
1111,420,179,0
977,316,125,0
807,268,95,0
714,261,121,0
651,277,148,0
641,266,147,0
682,236,142,0
721,203,167,0
746,185,184,0
876,233,173,0
1000,325,155,0
1272,531,226,0
1404,804,470,0
1424,1053,635,0
1034,1024,309,0
950,249,233,0
854,-344,360,0
717,-176,263,0
604,404,150,0
537,801,127,0
515,788,263,0
658,658,302,0
964,824,347,0
1070,880,299,0
1232,914,162,0
1384,644,115,0
1618,282,91,0
1330,90,-173,0
959,129,108,0
929,522,240,0
1029,728,123,0
1002,615,-23,0
855,404,-34,0
715,190,14,0
601,77,93,0
548,115,148,0
539,188,195,0
735,261,181,0
927,266,185,0
1253,306,176,0
1664,463,98,0
1604,1042,-110,0
1013,1273,-270,0
723,1094,-150,0
734,899,28,0
701,678,55,0
616,587,46,0
561,541,64,0
571,467,111,0
626,446,181,0
702,440,233,0
868,516,281,0
913,588,291,0
974,685,322,0
1008,728,311,0
1195,744,248,0
1156,623,226,0
1127,496,99,0
1037,503,28,0
1017,604,-15,0
913,596,-49,0
794,520,-31,0
700,447,4,0
649,392,49,0
601,317,82,0
525,235,112,0
498,165,155,0
550,161,215,0
699,217,251,0
985,294,260,0
1304,392,308,0
1623,563,449,0
1682,817,568,0
1227,985,450,0
786,623,221,0
882,416,275,0
903,450,249,0
519,107,-251,0
953,838,199,0
525,75,34,0
588,369,169,0
629,463,319,0
787,451,376,0
1081,554,424,0
1103,539,465,0
1061,483,496,0
1147,412,472,0
1253,430,394,0
1117,374,360,0
1051,360,288,0
1037,388,199,0
1090,364,128,0
1036,335,91,0
845,302,66,0
699,300,60,0
633,333,80,0
629,333,102,0
617,306,117,0
623,271,149,0
674,240,192,0
790,240,238,0
985,273,253,0
1219,378,296,0
1390,549,436,0
1359,658,637,0
1067,588,602,0
855,457,433,0
947,148,326,0
968,99,266,0
791,194,217,0
633,385,225,0
549,516,207,0
550,516,222,0
559,446,256,0
656,404,277,0
878,427,349,0
974,397,357,0
1154,439,370,0
1142,446,420,0
1290,470,406,0
1083,420,383,0
958,341,302,0
888,377,259,0
962,426,215,0
964,437,208,0
819,324,159,0
704,255,125,0
679,284,139,0
716,333,154,0
737,321,159,0
808,296,186,0
868,263,190,0
928,272,231,0
1131,320,219,0
1073,375,237,0
1124,486,277,0
877,551,415,0
794,549,449,0
808,447,374,0
935,277,305,0
841,173,334,0
703,230,333,0
640,362,294,0
618,455,302,0
557,427,342,0
605,415,387,0
822,497,468,0
965,565,538,0
1132,587,498,0
1188,496,442,0
1257,419,367,0
1144,273,373,0
1099,348,339,0
1046,493,249,0
1018,513,182,0
926,441,159,0
788,334,142,0
682,300,138,0
634,293,138,0
631,294,148,0
664,286,186,0
730,265,225,0
803,227,258,0
838,211,297,0
949,264,295,0
1030,350,343,0
1203,473,350,0
1331,570,421,0
1192,641,482,0
950,741,462,0
842,454,314,0
884,169,275,0
794,176,245,0
696,347,245,0
627,531,230,0
599,619,274,0
612,559,351,0
699,528,395,0
922,544,466,0
1071,511,449,0
1285,430,398,0
1301,315,380,0
1282,260,369,0
1027,309,335,0
1021,389,253,0
1048,444,183,0
1049,449,150,0
877,364,134,0
728,273,114,0
646,271,137,0
622,292,183,0
628,284,214,0
627,248,251,0
671,219,289,0
775,190,325,0
876,193,321,0
1090,265,297,0
1164,364,270,0
1392,594,282,0
1267,825,457,0
983,892,451,0
757,655,257,0
927,224,240,0
896,55,306,0
751,207,343,0
651,446,292,0
597,611,296,0
584,532,348,0
638,434,410,0
850,443,457,0
1015,523,463,0
1310,569,448,0
1312,447,381,0
1339,383,377,0
1158,287,294,0
1092,337,200,0
1063,385,141,0
1009,407,117,0
869,361,88,0
762,304,67,0
704,301,70,0
683,303,93,0
656,276,106,0
676,252,139,0
674,225,197,0
694,210,209,0
790,269,247,0
965,383,278,0
1217,543,293,0
1245,747,373,0
1335,936,463,0
1140,944,462,0
799,643,368,0
752,362,403,0
772,239,336,0
742,338,236,0
700,413,259,0
638,464,283,0
629,484,273,0
598,428,297,0
649,430,358,0
856,491,396,0
1053,493,374,0
1253,492,384,0
1170,443,376,0
1154,487,358,0
980,460,308,0
975,420,210,0
1004,413,173,0
1044,403,163,0
911,352,160,0
779,291,133,0
698,298,148,0
694,319,185,0
686,300,187,0
716,276,204,0
759,243,220,0
812,220,237,0
850,249,272,0
951,319,271,0
1046,408,287,0
1231,524,355,0
1154,561,448,0
1034,538,429,0
940,523,359,0
952,344,267,0
858,224,269,0
741,300,258,0
661,464,221,0
626,569,221,0
615,558,287,0
695,499,355,0
912,533,439,0
1026,506,437,0
1163,550,452,0
1191,448,446,0
1300,469,407,0
1122,394,364,0
1037,380,271,0
1036,422,210,0
1123,421,175,0
1035,392,144,0
835,282,110,0
719,256,110,0
700,282,113,0
655,276,128,0
624,251,133,0
676,245,153,0
767,271,229,0
775,265,265,0
855,223,220,0
971,304,277,0
1251,464,315,0
1348,683,481,0
1150,793,560,0
879,799,452,0
923,311,269,0
994,-34,285,0
857,97,279,0
698,411,240,0
600,658,189,0
564,700,229,0
599,553,325,0
770,467,415,0
1008,445,451,0
1161,460,403,0
1256,431,418,0
1113,423,403,0
1143,458,393,0
1114,446,337,0
1070,434,241,0
1071,388,239,0
1060,308,222,0
909,292,168,0
777,300,152,0
740,315,173,0
739,315,174,0
684,308,191,0
653,270,191,0
644,208,220,0
612,139,221,0
715,184,200,0
854,266,216,0
1196,443,250,0
1483,687,422,0
1435,898,667,0
999,1009,550,0
845,426,249,0
981,-127,310,0
717,352,243,0
577,657,221,0
566,727,275,0
666,630,369,0
818,526,402,0
1011,460,403,0
1062,395,378,0
1336,460,431,0
1307,411,455,0
1075,349,389,0
1006,354,337,0
1039,368,271,0
1070,402,221,0
973,322,189,0
814,263,156,0
674,267,149,0
598,273,153,0
611,272,156,0
667,272,183,0
772,267,188,0
828,239,184,0
843,238,230,0
975,298,257,0
1036,385,266,0
1236,533,349,0
1160,568,478,0
1039,538,496,0
983,527,477,0
975,302,405,0
844,176,364,0
724,229,312,0
648,371,274,0
616,524,317,0
587,601,413,0
689,599,456,0
975,593,446,0
1122,484,404,0
1251,412,399,0
1211,354,401,0
1233,404,392,0
1120,409,393,0
1130,394,318,0
1058,349,207,0
1037,331,165,0
964,323,186,0
777,280,149,0
636,261,131,0
598,274,160,0
608,267,178,0
680,254,190,0
764,224,206,0
799,192,235,0
907,241,246,0
933,314,252,0
1094,456,276,0
1280,674,431,0
1247,769,520,0
1060,692,399,0
959,503,264,0
863,288,257,0
769,323,298,0
657,436,272,0
582,542,224,0
526,1093,303,0
678,140,365,0
856,562,509,0
1191,416,378,0
1240,538,454,0
1271,495,524,0
1132,491,404,0
1004,533,326,0
1025,531,204,0
930,547,113,0
1020,408,36,0
946,323,23,0
792,238,0,0
697,259,18,0
683,344,59,0
695,381,153,0
771,347,179,0
807,238,132,0
689,192,229,0
715,227,320,0
914,309,289,0
1050,473,349,0
1241,608,480,0
1146,549,594,0
958,498,521,0
871,484,432,0
924,278,312,0
874,325,323,0
708,401,290,0
528,484,234,0
485,500,235,0
555,500,263,0
715,491,286,0
996,528,310,0
1141,487,305,0
1345,493,343,0
1170,457,391,0
1070,482,364,0
955,468,338,0
991,455,282,0
999,406,248,0
994,359,243,0
863,313,213,0
730,285,175,0
653,277,173,0
638,276,191,0
634,259,181,0
681,256,173,0
785,263,183,0
856,289,201,0
957,328,208,0
1039,383,210,0
1168,518,255,0
1202,671,419,0
993,635,447,0
805,548,367,0
895,324,297,0
969,197,285,0
867,269,300,0
718,404,271,0
619,532,250,0
555,534,288,0
530,458,351,0
737,474,411,0
1045,483,424,0
1162,439,382,0
1186,389,373,0
1138,411,407,0
1236,459,352,0
995,408,334,0
882,415,293,0
890,429,227,0
1024,463,180,0
1048,398,164,0
839,278,145,0
663,229,124,0
607,291,143,0
653,338,149,0
716,321,144,0
834,295,163,0
865,244,180,0
845,265,236,0
944,297,275,0
962,362,289,0
1074,472,349,0
1028,568,472,0
994,578,526,0
972,474,443,0
1030,320,375,0
902,197,320,0
753,265,303,0
662,373,304,0
635,476,290,0
606,488,306,0
603,421,322,0
807,467,377,0
1018,485,387,0
1154,524,368,0
1187,472,395,0
1297,462,411,0
1169,396,381,0
1045,386,330,0
1007,388,270,0
1059,372,203,0
1020,347,180,0
879,280,153,0
718,249,116,0
645,284,119,0
636,314,134,0
674,295,147,0
759,269,160,0
816,221,152,0
874,244,157,0
974,304,182,0
1032,410,207,0
1117,572,331,0
1146,715,476,0
1089,712,476,0
1035,600,328,0
1009,164,220,0
887,98,302,0
740,294,334,0
639,513,319,0
604,609,325,0
595,516,377,0
697,417,409,0
962,463,466,0
1121,403,482,0
1162,451,469,0
1114,383,426,0
1220,400,340,0
1104,367,314,0
1009,360,258,0
1000,414,202,0
1083,425,158,0
981,390,112,0
850,314,108,0
695,281,126,0
595,285,146,0
610,294,163,0
617,276,206,0
648,243,225,0
737,220,254,0
853,214,294,0
1018,277,291,0
1172,383,291,0
1451,576,379,0
1136,633,523,0
866,560,483,0
841,458,399,0
983,206,263,0
866,144,268,0
714,227,288,0
647,442,277,0
625,600,282,0
628,592,351,0
636,486,424,0
808,474,495,0
999,424,428,0
1108,385,354,0
1206,342,375,0
1227,437,404,0
1083,440,367,0
947,443,321,0
915,454,249,0
956,433,189,0
993,377,162,0
879,300,163,0
747,246,154,0
661,280,171,0
644,315,204,0
644,293,221,0
640,262,229,0
719,248,229,0
836,268,248,0
958,324,242,0
1119,399,239,0
1282,534,260,0
1156,660,372,0
996,767,479,0
865,633,382,0
923,402,271,0
915,226,308,0
781,253,321,0
619,394,252,0
532,519,218,0
547,584,279,0
598,537,333,0
740,543,372,0
999,517,368,0
1265,492,349,0
1269,376,358,0
1262,381,409,0
1131,426,377,0
1151,422,278,0
1035,369,207,0
967,340,194,0
856,315,172,0
729,315,119,0
659,329,112,0
621,316,127,0
633,271,119,0
688,278,161,0
843,298,199,0
952,252,170,0
1114,246,158,0
1120,308,221,0
1152,463,307,0
1046,548,376,0
872,531,448,0
823,467,480,0
880,362,436,0
862,303,361,0
777,330,368,0
684,385,366,0
630,435,335,0
632,483,360,0
695,507,401,0
870,540,428,0
995,514,437,0
1025,478,440,0
1226,518,472,0
1221,489,434,0
1211,451,416,0
1169,429,376,0
1145,389,265,0
1083,332,169,0
998,307,181,0
840,277,152,0
690,286,116,0
675,319,122,0
683,296,168,0
708,248,196,0
723,190,206,0
768,170,227,0
895,242,267,0
1011,339,283,0
1258,525,327,0
1295,662,525,0
1092,679,620,0
948,543,464,0
1027,389,297,0
920,240,238,0
776,350,252,0
618,519,206,0
560,618,195,0
562,586,216,0
590,462,250,0
752,453,317,0
939,471,348,0
1032,525,381,0
1187,574,437,0
1132,490,376,0
1244,462,366,0
1188,413,356,0
1075,410,278,0
990,409,221,0
933,401,193,0
864,388,170,0
796,343,132,0
719,287,117,0
704,284,151,0
741,272,163,0
792,243,152,0
847,218,161,0
875,250,205,0
951,305,216,0
999,340,220,0
1049,435,263,0
884,511,381,0
942,578,468,0
1065,541,425,0
1104,392,313,0
911,234,315,0
708,343,314,0
622,490,278,0
608,576,262,0
588,550,293,0
678,544,348,0
939,573,370,0
1049,503,317,0
1190,551,400,0
1198,552,458,0
1188,592,401,0
1055,507,326,0
1103,427,296,0
1075,368,225,0
1089,366,174,0
1010,341,166,0
862,287,109,0
727,280,105,0
678,302,129,0
681,285,119,0
741,263,126,0
840,229,136,0
858,190,129,0
922,243,138,0
903,317,155,0
1078,481,228,0
1006,587,368,0
970,630,511,0
1036,526,466,0
1146,418,346,0
1019,300,343,0
796,367,367,0
622,522,320,0
542,609,293,0
556,607,338,0
655,545,377,0
892,586,439,0
1093,570,446,0
1299,581,458,0
1340,497,448,0
1299,429,403,0
1127,414,331,0
1094,399,268,0
1053,369,203,0
987,352,161,0
906,345,154,0
770,314,104,0
698,299,89,0
662,280,118,0
627,246,135,0
655,244,150,0
747,241,168,0
820,208,168,0
872,214,179,0
989,307,205,0
1061,443,255,0
1264,633,364,0
1246,717,519,0
1127,668,516,0
1047,631,465,0
1042,298,370,0
839,225,360,0
679,358,332,0
600,463,290,0
540,552,266,0
519,520,317,0
677,501,383,0
982,558,412,0
1109,559,419,0
1239,525,412,0
1220,402,388,0
1326,315,343,0
1157,292,319,0
1024,343,264,0
957,404,179,0
987,416,134,0
906,398,123,0
741,311,81,0
615,267,74,0
627,307,131,0
669,311,159,0
720,270,158,0
808,225,173,0
893,189,181,0
974,239,206,0
1081,326,258,0
1105,441,248,0
1144,647,404,0
1099,834,615,0
939,800,551,0
961,475,322,0
1048,32,283,0
886,-14,304,0
674,196,250,0
571,480,231,0
544,633,234,0
541,565,271,0
635,469,301,0
879,445,333,0
1061,415,287,0
1212,483,328,0
1139,514,430,0
1242,560,419,0
1063,473,378,0
1006,397,314,0
963,361,263,0
1001,341,215,0
884,324,193,0
735,294,167,0
614,291,143,0
601,313,141,0
615,305,151,0
698,297,175,0
870,274,185,0
984,260,205,0
1138,269,193,0
1073,340,238,0
1136,494,337,0
963,578,490,0
782,541,510,0
818,408,437,0
919,204,311,0
855,136,281,0
754,198,304,0
664,342,266,0
637,509,250,0
635,545,305,0
651,502,366,0
820,494,409,0
1031,482,413,0
1297,491,417,0
1243,465,441,0
1192,473,458,0
990,457,419,0
1051,451,350,0
1085,408,295,0
1049,344,223,0
909,304,201,0
759,291,183,0
652,304,156,0
639,306,146,0
659,282,156,0
752,271,159,0
909,253,165,0
961,218,163,0
1034,269,169,0
1015,353,216,0
1103,459,246,0
940,498,320,0
846,484,400,0
883,454,435,0
1004,417,386,0
973,339,367,0
863,270,389,0
762,352,367,0
724,460,378,0
659,496,373,0
669,529,411,0
804,534,448,0
952,542,431,0
1075,541,423,0
1300,525,433,0
1223,463,391,0
1182,452,376,0
1100,452,335,0
1089,448,244,0
1072,423,198,0
1070,356,179,0
897,303,144,0
750,287,133,0
675,287,139,0
659,279,147,0
673,260,158,0
749,253,180,0
830,221,188,0
888,198,190,0
929,238,238,0
884,303,265,0
1034,429,274,0
1128,555,402,0
1089,591,525,0
1025,562,543,0
1044,446,436,0
938,251,339,0
815,132,318,0
743,295,307,0
692,558,292,0
632,682,334,0
655,661,449,0
833,632,523,0
1012,552,487,0
1103,392,411,0
1261,322,441,0
1154,321,421,0
1175,408,395,0
1218,484,408,0
1154,445,278,0
1035,399,159,0
1003,340,139,0
865,308,101,0
743,295,63,0
661,264,70,0
665,280,121,0
697,285,145,0
736,272,153,0
788,213,145,0
820,193,186,0
941,278,240,0
1074,369,255,0
1165,480,303,0
1106,573,416,0
1031,607,527,0
1029,589,457,0
1040,453,347,0
974,152,291,0
856,168,318,0
708,330,275,0
569,566,217,0
553,651,244,0
620,584,322,0
832,544,376,0
1103,532,371,0
1346,579,387,0
1215,483,407,0
1188,429,409,0
1093,428,384,0
1092,409,299,0
1088,385,239,0
1076,351,222,0
1002,333,206,0
850,301,155,0
723,284,127,0
674,261,138,0
666,248,137,0
704,265,164,0
849,286,174,0
881,238,157,0
962,239,140,0
984,292,195,0
1015,403,267,0
910,473,329,0
923,481,395,0
1063,479,465,0
1099,439,451,0
980,343,415,0
871,336,436,0
795,376,391,0
766,461,391,0
701,494,473,0
794,584,489,0
977,526,412,0
1143,509,391,0
1218,453,396,0
1260,538,386,0
1248,529,361,0
1160,467,271,0
1125,407,181,0
1163,339,131,0
1059,304,129,0
838,278,111,0
666,289,92,0
624,329,101,0
691,328,121,0
719,275,145,0
767,227,170,0
817,186,197,0
794,189,237,0
871,261,224,0
961,355,188,0
1271,730,227,0
1277,968,270,0
972,1061,268,0
821,929,292,0
752,797,280,0
513,1072,200,0
471,307,237,0
365,655,233,0
490,709,198,0
565,680,235,0
769,547,254,0
1045,547,248,0
1068,528,254,0
1014,516,264,0
1142,515,266,0
1086,502,253,0
1075,436,266,0
934,420,269,0
863,454,187,0
905,427,132,0
985,373,124,0
889,312,116,0
735,285,127,0
624,332,158,0
582,352,178,0
594,319,185,0
742,308,214,0
866,267,252,0
893,251,285,0
1015,338,304,0
1060,435,325,0
1210,563,386,0
1030,544,471,0
877,453,441,0
855,381,366,0
952,322,287,0
883,292,303,0
728,313,280,0
608,406,260,0
560,450,239,0
580,453,261,0
664,418,313,0
881,449,380,0
1061,469,406,0
1307,532,426,0
1305,546,445,0
1179,479,406,0
925,392,329,0
928,396,246,0
980,407,199,0
1002,402,185,0
854,333,148,0
737,306,121,0
683,341,135,0
677,356,151,0
743,332,167,0
824,286,176,0
910,239,189,0
884,195,194,0
937,264,225,0
872,339,264,0
984,461,262,0
955,508,360,0
1005,527,456,0
995,485,445,0
997,384,320,0
899,217,266,0
811,222,297,0
719,349,306,0
666,489,274,0
629,512,300,0
648,460,372,0
827,495,426,0
975,549,438,0
1035,608,435,0
1182,594,461,0
1151,526,408,0
1167,392,380,0
1111,350,332,0
1141,400,235,0
1176,412,162,0
1177,408,164,0
1020,352,160,0
815,306,117,0
706,323,124,0
701,340,149,0
703,306,172,0
672,220,185,0
665,142,217,0
680,117,243,0
764,196,256,0
919,272,232,0
1219,370,192,0
1371,571,276,0
1381,859,312,0
1191,917,158,0
1032,861,120,0
956,493,167,0
817,399,224,0
710,516,187,0
665,559,134,0
656,556,171,0
620,512,259,0
749,532,375,0
957,617,463,0
1060,599,433,0
1258,553,427,0
1331,433,430,0
1311,362,402,0
1071,321,358,0
1023,347,291,0
1079,392,235,0
1057,368,171,0
911,303,132,0
804,259,130,0
687,255,112,0
649,288,106,0
673,288,113,0
684,256,127,0
702,233,134,0
745,245,180,0
762,279,235,0
907,340,250,0
1092,414,272,0
1463,530,350,0
1263,565,481,0
1066,603,514,0
971,632,498,0
1056,397,337,0
1021,212,300,0
800,281,290,0
671,466,250,0
675,623,247,0
679,635,307,0
679,543,369,0
729,494,412,0
848,466,406,0
985,397,349,0
1096,334,338,0
1216,338,379,0
1265,467,413,0
1114,467,372,0
944,425,285,0
939,390,222,0
1000,369,169,0
1025,361,166,0
899,314,195,0
742,274,169,0
635,290,171,0
647,306,190,0
651,270,205,0
660,247,232,0
699,242,271,0
776,254,299,0
850,276,330,0
1043,350,358,0
1152,400,384,0
1229,446,314,0
1058,535,385,0
1020,602,430,0
959,518,362,0
984,404,286,0
903,255,262,0
739,276,254,0
678,388,249,0
661,486,240,0
718,520,280,0
723,442,355,0
770,411,425,0
910,424,490,0
1080,405,445,0
1288,393,413,0
1126,351,419,0
1053,396,419,0
1021,425,379,0
957,437,253,0
968,413,220,0
1017,335,193,0
872,299,140,0
737,272,116,0
661,284,125,0
684,333,135,0
690,327,138,0
705,291,160,0
770,261,185,0
835,247,214,0
1021,297,245,0
1018,338,306,0
1066,435,330,0
1048,523,450,0
937,542,541,0
873,476,519,0
964,312,389,0
931,164,305,0
804,170,311,0
678,308,322,0
604,489,315,0
617,568,357,0
599,476,397,0
772,463,435,0
1014,441,433,0
1141,437,378,0
1217,415,408,0
1137,449,429,0
1131,448,404,0
956,417,345,0
989,421,264,0
1003,382,202,0
1012,379,184,0
883,330,179,0
748,287,146,0
682,300,144,0
676,314,168,0
683,261,197,0
694,206,256,0
747,541,288,0
525,1500,155,0
441,1997,136,0
215,1945,94,0
-54,1990,-69,0
-9,1695,-147,0
103,1260,-182,0
92,908,-222,0
99,636,-178,0
-113,365,-45,0
-277,226,2,0
-389,120,108,0
-457,42,120,0
-519,130,161,0
-590,146,227,0
-752,321,338,0
-817,95,232,0
-930,307,191,0
-1095,393,256,0
-1216,427,257,0
-1320,506,269,0
-1223,517,192,0
-987,275,182,0
-836,206,132,0
-770,53,120,0
-710,118,231,0
-639,67,197,0
-653,141,138,0
-631,169,126,0
-721,-81,-3,0
-994,-239,34,0
-1156,-137,213,0
-1279,91,441,0
-1340,205,383,0
-1234,-14,318,0
-1157,38,214,0
-946,51,167,0
-792,153,205,0
-833,237,116,0
-899,261,62,0
-979,-1,270,0
-938,-91,151,0
-859,83,143,0
-833,-30,129,0
-778,-97,246,0
-777,-75,346,0
-751,-82,526,0
-627,-282,699,0
-810,-125,433,0
-945,-301,106,0
-1092,-303,-209,0
-1325,18,-1175,0
-1313,220,-1418,0
-1229,423,-1319,0
-1168,522,-898,0
-1086,675,-418,0
-916,673,-148,0
-676,336,7,0
-609,213,24,0
-617,86,48,0
-685,-58,160,0
-777,-268,276,0
-908,43,292,0
-1097,-218,290,0
-1239,-89,252,0
-1333,215,265,0
-1200,384,214,0
-933,364,-47,0
-805,439,-14,0
-736,271,142,0
-674,-235,169,0
-504,-159,133,0
-286,-377,283,0
-278,-326,376,0
-506,-501,327,0
-603,-364,295,0
-871,-123,87,0
-1060,96,-450,0
-1411,564,-831,0
-1280,549,-937,0
-1099,651,-1536,0
-1098,754,-1797,0
-984,607,-1474,0
-721,537,-1401,0
-714,437,-1088,0
-579,479,-793,0
-503,519,-504,0
-384,423,-284,0
-282,224,-74,0
-278,187,82,0
-341,155,232,0
-429,96,239,0
-552,42,352,0
-918,-115,382,0
-899,175,363,0
-798,74,185,0
-923,47,34,0
-714,109,86,0
-550,240,72,0
-588,229,-179,0
-388,161,-302,0
-179,265,-235,0
-94,602,-458,0
-120,693,-715,0
-164,1042,-501,0
-17,1295,-397,0
336,715,223,0
1056,688,409,0
1940,1201,691,0
1812,1536,639,0
1107,881,294,0
1114,13,522,0
966,98,577,0
849,627,459,0
871,829,414,0
960,649,312,0
979,502,261,0
905,353,200,0
858,277,141,0
849,283,145,0
798,271,136,0
754,245,134,0
805,253,162,0
871,270,183,0
817,285,200,0
844,291,213,0
872,353,230,0
957,418,243,0
986,519,349,0
1079,598,447,0
1116,636,450,0
1038,560,412,0
862,344,389,0
756,278,336,0
668,374,309,0
614,516,311,0
552,660,391,0
623,715,475,0
899,726,519,0
1140,576,466,0
1272,402,437,0
1303,298,458,0
1301,355,433,0
1118,424,419,0
1051,432,351,0
1049,404,249,0
1129,360,208,0
989,260,141,0
761,250,140,0
577,279,149,0
482,315,137,0
497,288,139,0
549,255,152,0
671,250,209,0
841,268,273,0
977,274,298,0
1117,264,253,0
1220,359,253,0
1478,591,355,0
1276,826,505,0
1004,875,499,0
925,733,399,0
970,323,301,0
922,98,329,0
756,223,343,0
631,455,300,0
547,696,330,0
561,715,413,0
699,633,504,0
967,524,514,0
1163,372,425,0
1330,354,401,0
1234,388,399,0
1230,470,381,0
1145,504,354,0
1147,443,221,0
1110,383,135,0
1067,307,144,0
855,272,142,0
691,281,128,0
598,298,111,0
584,307,101,0
570,276,179,0
565,204,222,0
623,204,266,0
733,234,317,0
829,274,365,0
1096,357,419,0
1315,412,437,0
1479,533,505,0
1255,584,581,0
1012,590,506,0
915,520,393,0
955,255,273,0
824,218,220,0
698,314,213,0
611,463,181,0
582,571,178,0
561,596,223,0
610,571,309,0
845,619,400,0
1028,618,417,0
1280,615,402,0
1284,479,405,0
1291,379,380,0
1012,363,384,0
1023,420,334,0
1033,496,267,0
1138,485,217,0
1017,347,190,0
826,228,143,0
686,229,129,0
665,307,163,0
709,334,179,0
757,313,193,0
825,238,205,0
822,188,249,0
839,208,294,0
818,258,301,0
965,356,265,0
998,456,348,0
1095,594,482,0
1148,624,528,0
1124,529,392,0
1000,325,326,0
869,114,339,0
770,232,310,0
716,436,264,0
663,611,269,0
612,693,369,0
755,708,485,0
960,699,542,0
1151,626,511,0
1284,408,436,0
1320,287,397,0
1266,285,383,0
1195,340,326,0
1169,424,248,0
1103,419,165,0
974,359,95,0
829,311,62,0
705,342,43,0
654,374,58,0
698,375,81,0
747,339,109,0
800,259,128,0
832,157,159,0
776,128,240,0
835,186,281,0
818,276,272,0
951,447,285,0
1188,612,487,0
1374,747,742,0
1260,774,707,0
1013,672,493,0
902,28,368,0
765,-181,339,0
679,85,240,0
614,608,232,0
607,862,289,0
586,847,375,0
731,701,449,0
999,540,446,0
1257,461,409,0
1314,377,386,0
1367,321,383,0
1305,350,360,0
1259,301,265,0
1148,341,229,0
968,350,236,0
754,374,193,0
636,373,147,0
603,333,149,0
637,305,180,0
670,245,219,0
733,184,256,0
778,116,258,0
794,102,196,0
944,215,175,0
1123,374,189,0
1306,625,298,0
1317,781,452,0
1265,819,517,0
1110,752,438,0
904,295,326,0
820,-43,362,0
774,89,332,0
721,446,286,0
669,734,289,0
621,787,405,0
725,725,540,0
912,602,541,0
1174,575,494,0
1325,442,418,0
1391,404,405,0
1264,348,383,0
1193,329,298,0
1185,380,228,0
1174,419,184,0
1070,408,147,0
879,325,100,0
723,285,96,0
644,296,138,0
650,286,149,0
673,254,153,0
706,220,185,0
680,179,224,0
726,189,292,0
889,244,311,0
1014,309,321,0
1284,452,385,0
1366,572,564,0
1298,631,651,0
1125,658,525,0
1028,496,403,0
930,109,316,0
810,83,251,0
744,324,157,0
676,596,109,0
632,731,141,0
575,686,263,0
700,644,376,0
942,641,415,0
1113,596,416,0
1262,497,428,0
1237,383,423,0
1319,359,410,0
1193,344,406,0
1134,358,354,0
1085,375,267,0
1136,383,205,0
1103,360,173,0
909,267,115,0
739,246,105,0
667,283,122,0
655,304,134,0
650,281,144,0
652,243,160,0
687,207,199,0
732,209,266,0
852,252,316,0
962,315,352,0
1368,438,347,0
1486,566,441,0
1243,655,517,0
1005,722,517,0
973,531,408,0
965,251,331,0
805,260,314,0
678,592,275,0
671,667,314,0
660,594,396,0
790,499,414,0
955,435,387,0
953,358,340,0
1112,395,364,0
1238,445,424,0
1283,483,439,0
1087,445,427,0
1035,370,340,0
1000,346,255,0
1018,324,219,0
908,285,222,0
709,264,214,0
606,280,195,0
623,291,204,0
688,270,225,0
720,217,202,0
765,205,199,0
793,246,234,0
898,325,272,0
1095,375,292,0
1055,409,279,0
1170,476,296,0
1109,582,441,0
989,666,464,0
880,625,402,0
895,299,326,0
812,164,319,0
715,266,306,0
659,445,291,0
631,602,341,0
617,606,410,0
718,533,459,0
967,398,477,0
1144,437,392,0
1193,550,355,0
1096,523,335,0
1185,493,300,0
1056,443,312,0
976,435,241,0
978,447,169,0
1071,409,123,0
1005,325,105,0
887,267,98,0
789,287,151,0
667,318,188,0
630,332,213,0
629,304,233,0
652,258,249,0
716,214,290,0
789,171,313,0
899,207,345,0
980,297,412,0
1096,413,365,0
1198,549,442,0
1141,669,520,0
987,701,462,0
935,447,331,0
919,90,272,0
836,105,277,0
727,311,274,0
638,556,212,0
583,696,266,0
490,595,391,0
604,536,490,0
904,517,533,0
1226,561,467,0
1415,526,408,0
1247,415,409,0
1079,274,406,0
1080,274,328,0
1112,384,250,0
1207,462,233,0
1089,411,243,0
920,277,190,0
693,28,137,0
567,124,134,0
614,260,145,0
652,295,122,0
748,271,178,0
847,190,208,0
912,109,210,0
1071,190,245,0
1152,325,232,0
1254,488,232,0
1174,594,298,0
1080,638,324,0
1025,654,349,0
1009,552,306,0
905,351,273,0
790,322,290,0
693,365,303,0
651,409,314,0
648,414,329,0
680,386,422,0
810,397,478,0
988,480,482,0
1145,533,440,0
1327,518,340,0
1311,509,195,0
1321,523,28,0
1151,445,-39,0
992,426,-117,0
949,478,-98,0
995,500,-117,0
1027,414,-141,0
936,291,-84,0
819,251,3,0
726,293,76,0
675,322,122,0
667,327,152,0
715,274,182,0
753,159,222,0
856,121,248,0
1001,205,262,0
1239,406,286,0
1330,649,407,0
1275,784,481,0
1142,910,427,0
944,575,188,0
972,35,256,0
842,-23,209,0
696,329,131,0
597,633,95,0
536,676,51,0
489,584,133,0
575,538,288,0
841,576,438,0
1043,613,466,0
1208,601,441,0
1249,370,462,0
1389,259,488,0
1152,251,476,0
1066,269,365,0
1034,393,297,0
1110,440,235,0
1009,399,190,0
865,333,122,0
738,299,90,0
670,306,93,0
676,297,111,0
654,251,126,0
638,200,108,0
662,193,117,0
698,241,157,0
787,330,188,0
1003,413,177,0
1293,531,222,0
1519,723,396,0
1304,916,599,0
920,966,477,0
861,419,356,0
1027,-50,359,0
947,18,296,0
740,357,252,0
618,643,275,0
598,748,323,0
702,640,328,0
745,442,301,0
838,351,311,0
988,308,288,0
1032,283,230,0
1061,327,249,0
1105,357,305,0
1045,430,277,0
1085,475,247,0
908,475,247,0
816,449,206,0
851,408,173,0
952,382,174,0
917,345,183,0
806,302,183,0
713,304,201,0
702,313,209,0
743,301,207,0
744,280,234,0
771,282,266,0
887,293,270,0
977,291,284,0
1032,315,319,0
1011,336,358,0
986,419,344,0
991,467,352,0
836,440,374,0
792,427,377,0
868,394,354,0
981,377,294,0
928,328,295,0
737,330,326,0
719,369,290,0
744,389,274,0
723,370,311,0
631,345,369,0
603,386,418,0
744,448,451,0
908,447,448,0
972,375,406,0
1080,359,405,0
1073,407,402,0
1249,487,367,0
1047,445,362,0
837,400,297,0
864,385,226,0
997,391,182,0
1124,402,208,0
929,307,199,0
726,265,168,0
646,310,187,0
685,325,204,0
645,290,212,0
636,257,238,0
733,266,272,0
845,279,303,0
918,296,307,0
1082,359,314,0
1318,481,324,0
1237,561,364,0
866,598,388,0
784,574,402,0
900,451,294,0
1008,311,232,0
854,266,278,0
679,364,305,0
615,490,303,0
633,549,334,0
652,472,373,0
690,372,411,0
843,342,436,0
988,358,443,0
919,369,431,0
954,392,414,0
1017,368,416,0
1195,404,374,0
1160,373,348,0
876,362,298,0
853,366,245,0
910,364,178,0
954,412,189,0
918,352,192,0
744,277,158,0
638,294,176,0
617,329,204,0
604,323,239,0
585,322,283,0
615,313,291,0
810,362,306,0
1105,412,356,0
1166,433,362,0
1131,474,337,0
1052,481,362,0
979,535,340,0
907,541,343,0
769,510,311,0
799,504,305,0
943,493,292,0
995,416,285,0
833,355,293,0
702,358,274,0
699,351,304,0
722,293,302,0
631,280,258,0
644,401,331,0
806,537,437,0
918,579,434,0
1053,543,360,0
1137,416,311,0
1195,353,317,0
965,325,313,0
833,385,277,0
800,461,207,0
908,461,162,0
976,444,162,0
843,337,153,0
676,284,152,0
639,345,173,0
697,383,181,0
791,368,186,0
866,304,199,0
813,260,230,0
804,306,252,0
842,378,280,0
996,440,271,0
1064,488,319,0
1160,519,367,0
946,577,405,0
755,647,425,0
779,549,348,0
1002,291,273,0
974,189,285,0
802,281,305,0
530,529,253,0
521,497,298,0
557,400,337,0
750,373,371,0
963,354,365,0
1168,424,336,0
1206,462,356,0
1152,545,383,0
1034,502,369,0
964,442,286,0
989,436,225,0
1066,379,204,0
922,332,192,0
768,307,185,0
665,313,180,0
676,355,197,0
688,336,202,0
693,293,197,0
763,247,202,0
806,221,210,0
844,280,229,0
985,360,276,0
973,437,312,0
1170,566,380,0
1087,630,508,0
941,658,469,0
857,574,400,0
953,202,317,0
873,87,356,0
759,226,363,0
656,469,319,0
572,633,318,0
568,575,360,0
607,432,361,0
805,396,365,0
983,391,353,0
1011,422,327,0
1205,450,336,0
1113,441,312,0
1040,391,319,0
960,413,310,0
1028,447,237,0
1045,430,191,0
1049,399,223,0
841,332,243,0
661,279,217,0
566,281,236,0
561,290,252,0
573,272,244,0
624,268,264,0
745,264,280,0
872,264,275,0
1004,334,300,0
1178,392,343,0
1055,445,352,0
1091,567,371,0
1058,630,435,0
935,608,389,0
923,433,359,0
1003,242,335,0
825,278,305,0
692,346,277,0
616,449,257,0
618,489,267,0
621,419,309,0
666,354,348,0
738,360,382,0
775,373,353,0
826,410,361,0
1106,475,401,0
1233,512,367,0
1203,486,331,0
900,339,307,0
829,371,269,0
944,422,231,0
1031,427,242,0
906,348,279,0
741,266,286,0
632,283,277,0
612,338,277,0
579,321,244,0
617,285,257,0
724,287,294,0
901,310,339,0
1191,326,336,0
1392,388,300,0
1245,479,388,0
884,507,441,0
778,501,380,0
884,380,308,0
950,218,264,0
826,209,285,0
709,291,277,0
606,387,245,0
557,429,236,0
529,385,259,0
595,360,297,0
764,401,369,0
931,421,368,0
1258,509,380,0
1192,485,442,0
1165,562,491,0
1235,461,403,0
1017,418,264,0
974,357,240,0
916,298,249,0
773,363,226,0
717,359,178,0
699,350,160,0
700,328,169,0
664,276,150,0
669,226,150,0
787,268,180,0
967,341,211,0
1159,384,245,0
1185,443,338,0
1158,505,425,0
1072,609,555,0
876,549,464,0
861,362,369,0
983,96,295,0
923,88,266,0
812,226,265,0
682,444,281,0
584,545,275,0
540,463,250,0
523,325,245,0
520,272,283,0
649,326,345,0
860,390,350,0
1199,458,319,0
1330,509,363,0
1268,553,430,0
856,531,366,0
779,436,257,0
888,414,238,0
1019,426,234,0
948,398,225,0
804,361,218,0
732,374,195,0
742,417,160,0
767,373,154,0
770,310,179,0
822,265,200,0
915,272,227,0
939,264,256,0
977,297,273,0
921,334,343,0
916,370,335,0
905,400,356,0
778,417,394,0
830,460,433,0
956,457,377,0
1043,397,303,0
871,273,311,0
730,307,299,0
685,385,246,0
653,462,231,0
599,467,289,0
598,453,348,0
809,513,391,0
1027,504,368,0
1100,473,387,0
1179,337,390,0
1220,372,378,0
1161,418,378,0
842,444,370,0
796,508,281,0
883,493,200,0
1052,464,151,0
1063,365,173,0
875,234,132,0
699,221,136,0
655,288,164,0
677,312,163,0
681,287,166,0
740,268,183,0
861,272,220,0
928,307,297,0
963,327,343,0
1000,345,370,0
1233,448,373,0
988,504,379,0
770,576,395,0
764,563,414,0
913,486,311,0
866,376,238,0
744,363,255,0
663,451,262,0
633,527,284,0
631,535,346,0
694,510,431,0
849,476,471,0
1030,453,467,0
1243,470,498,0
1136,442,470,0
1150,434,412,0
970,386,406,0
969,387,322,0
989,401,262,0
1027,393,235,0
938,343,236,0
790,282,210,0
660,271,190,0
614,276,204,0
629,295,239,0
642,285,251,0
743,279,254,0
854,252,278,0
874,242,327,0
960,288,333,0
944,344,330,0
1121,456,336,0
1066,578,463,0
1034,650,523,0
975,654,473,0
984,351,339,0
884,84,306,0
758,195,314,0
656,436,276,0
596,642,280,0
561,681,365,0
618,566,440,0
846,501,465,0
1035,431,395,0
1234,484,414,0
1188,420,402,0
1219,429,400,0
1022,395,405,0
1118,399,315,0
1114,408,244,0
1114,378,213,0
991,324,208,0
812,279,168,0
653,269,136,0
570,268,138,0
548,249,145,0
530,233,163,0
525,237,181,0
564,318,213,0
711,504,219,0
934,660,205,0
1245,743,213,0
1354,745,317,0
1091,736,456,0
1027,741,488,0
850,616,361,0
854,344,256,0
935,162,241,0
863,260,230,0
786,396,205,0
717,518,210,0
648,538,198,0
619,466,198,0
660,419,242,0
749,415,319,0
841,406,349,0
1083,422,353,0
1377,437,373,0
1348,391,328,0
966,319,302,0
900,358,288,0
944,415,252,0
839,401,181,0
757,311,152,0
701,253,160,0
694,262,168,0
683,256,151,0
717,363,112,0
779,370,143,0
827,376,176,0
874,376,202,0
1149,438,237,0
1234,445,330,0
941,505,432,0
669,480,477,0
536,420,401,0
865,402,312,0
1135,246,315,0
1132,240,381,0
855,380,426,0
739,472,363,0
707,499,307,0
703,372,272,0
713,296,266,0
715,319,264,0
730,403,295,0
798,467,338,0
1107,518,410,0
1265,503,414,0
1225,382,348,0
860,291,250,0
898,399,175,0
893,423,149,0
794,391,96,0
715,373,112,0
681,401,153,0
678,377,162,0
655,323,157,0
737,323,189,0
911,361,249,0
1015,358,270,0
1172,381,311,0
1124,340,395,0
1014,451,437,0
938,512,511,0
806,466,526,0
739,369,455,0
859,242,398,0
930,183,339,0
833,212,315,0
714,305,340,0
592,390,329,0
549,408,301,0
565,324,301,0
602,288,330,0
736,310,359,0
885,347,361,0
1018,447,364,0
1228,529,412,0
1246,598,400,0
1077,537,376,0
948,449,344,0
896,404,281,0
991,397,271,0
971,372,296,0
843,337,286,0
744,333,251,0
713,318,212,0
753,194,199,0
753,296,218,0
776,384,216,0
860,373,206,0
917,301,225,0
967,312,232,0
991,342,297,0
888,376,332,0
787,419,356,0
875,490,417,0
1001,531,397,0
1037,438,327,0
846,252,285,0
744,245,287,0
679,324,264,0
634,438,250,0
605,489,276,0
602,475,345,0
759,533,458,0
967,542,500,0
1331,592,519,0
1337,508,480,0
1207,415,446,0
995,290,427,0
983,325,324,0
1001,450,263,0
1036,469,244,0
918,400,199,0
820,329,148,0
750,305,163,0
765,322,186,0
762,299,189,0
747,268,212,0
787,240,238,0
798,202,262,0
783,178,282,0
859,199,251,0
910,276,241,0
1016,395,263,0
1014,522,381,0
1134,658,526,0
1204,676,478,0
1079,537,367,0
928,126,342,0
829,155,342,0
741,367,314,0
641,608,287,0
537,688,322,0
633,631,380,0
910,593,421,0
1131,586,430,0
1183,624,434,0
1424,548,409,0
1194,367,347,0
1013,343,370,0
1103,379,336,0
1138,462,265,0
1144,453,213,0
999,287,146,0
813,234,111,0
683,272,113,0
621,293,108,0
638,279,116,0
752,278,134,0
833,263,168,0
795,240,223,0
797,258,318,0
892,254,336,0
1027,317,341,0
1214,433,453,0
1174,526,588,0
1133,606,629,0
1084,603,528,0
1018,265,372,0
910,102,325,0
799,244,293,0
732,498,235,0
664,659,222,0
591,619,288,0
554,522,366,0
773,548,396,0
1020,510,339,0
1176,489,357,0
1185,426,446,0
1430,449,458,0
1017,397,394,0
950,363,317,0
995,358,251,0
1073,396,222,0
1076,383,234,0
851,308,177,0
687,300,139,0
644,311,156,0
654,287,154,0
661,261,178,0
712,263,202,0
754,269,237,0
805,268,263,0
1030,297,299,0
1062,321,365,0
1126,452,426,0
997,503,542,0
901,510,568,0
944,497,496,0
1067,360,381,0
1021,208,318,0
812,229,324,0
667,376,287,0
652,534,257,0
627,577,257,0
596,479,301,0
681,437,366,0
887,441,380,0
1067,439,335,0
1101,442,349,0
1111,493,439,0
1198,516,448,0
994,485,394,0
824,400,356,0
813,377,303,0
898,379,264,0
983,346,208,0
868,294,162,0
769,280,164,0
732,305,186,0
742,348,181,0
737,339,173,0
786,304,179,0
867,281,236,0
810,253,245,0
914,301,251,0
946,340,298,0
1068,458,308,0
1102,564,425,0
995,616,483,0
856,617,477,0
909,416,427,0
927,155,382,0
786,173,374,0
636,301,330,0
541,494,332,0
510,573,358,0
556,481,363,0
721,447,371,0
907,460,400,0
1098,536,421,0
1243,533,394,0
1262,508,355,0
1229,347,359,0
1107,272,293,0
1104,325,237,0
1115,358,180,0
989,393,184,0
882,399,198,0
735,319,157,0
635,283,150,0
615,279,191,0
582,239,212,0
595,212,225,0
721,211,246,0
875,229,271,0
1099,288,308,0
1257,395,334,0
1383,528,417,0
1137,601,509,0
899,569,422,0
896,447,346,0
984,237,245,0
928,264,282,0
765,375,295,0
613,536,256,0
535,607,279,0
498,561,321,0
588,508,351,0
844,557,381,0
1094,602,373,0
1218,658,411,0
1140,492,403,0
1245,439,380,0
1206,410,402,0
1187,405,345,0
1200,403,247,0
1278,368,165,0
1161,326,155,0
996,318,169,0
799,296,129,0
681,305,125,0
710,304,160,0
680,243,184,0
667,166,201,0
683,128,249,0
687,141,282,0
821,227,304,0
934,293,317,0
1255,424,335,0
1488,545,460,0
1440,602,541,0
1217,683,453,0
1041,528,330,0
974,177,266,0
872,209,242,0
728,431,166,0
615,617,97,0
585,681,162,0
595,674,276,0
793,673,375,0
973,699,394,0
1145,664,404,0
1259,470,413,0
1286,416,442,0
1243,392,442,0
1225,423,384,0
1185,435,295,0
1267,433,256,0
1235,338,215,0
992,268,128,0
807,256,123,0
711,282,129,0
663,292,128,0
705,280,150,0
713,240,165,0
704,182,188,0
678,162,252,0
793,197,285,0
888,267,303,0
1178,413,299,0
1386,560,443,0
1448,653,555,0
1295,718,471,0
1079,577,321,0
1023,188,271,0
928,196,262,0
800,462,180,0
661,645,119,0
587,676,173,0
587,637,269,0
789,623,335,0
1002,640,355,0
1113,638,390,0
1203,508,423,0
1198,452,433,0
1215,414,436,0
1201,405,384,0
1195,405,256,0
1246,411,201,0
1259,355,173,0
984,295,104,0
787,284,91,0
675,329,108,0
676,344,123,0
722,306,160,0
748,250,193,0
747,187,224,0
727,145,278,0
792,151,303,0
1024,344,352,0
1199,457,407,0
1194,524,509,0
1180,611,516,0
1135,669,430,0
1058,465,303,0
962,192,276,0
829,257,269,0
696,476,211,0
616,660,203,0
553,680,263,0
563,656,385,0
860,666,445,0
1108,659,418,0
1210,581,398,0
1201,327,401,0
1253,380,409,0
1209,432,409,0
1082,496,347,0
1132,522,268,0
1212,445,176,0
1200,389,147,0
1067,301,147,0
855,224,113,0
728,249,138,0
691,288,157,0
676,274,174,0
687,241,204,0
668,184,240,0
609,145,285,0
684,171,307,0
824,241,365,0
1036,346,383,0
1406,452,378,0
1574,579,491,0
1463,727,453,0
1119,786,378,0
1043,263,272,0
953,145,253,0
834,407,161,0
668,603,66,0
581,679,75,0
531,672,184,0
607,675,352,0
855,752,405,0
1039,784,353,0
1231,652,335,0
1267,357,371,0
1315,370,420,0
1288,441,432,0
1299,487,345,0
1290,500,245,0
1363,424,200,0
1147,334,147,0
918,284,103,0
766,284,84,0
696,292,102,0
677,275,149,0
632,241,191,0
636,184,230,0
634,138,281,0
635,116,339,0
818,172,338,0
923,236,360,0
1252,388,326,0
1457,538,430,0
1507,666,506,0
1328,812,438,0
1057,662,330,0
973,193,284,0
897,142,292,0
779,424,229,0
684,620,151,0
615,690,164,0
599,703,255,0
780,683,397,0
953,689,469,0
1207,777,480,0
1263,560,426,0
1331,426,454,0
1295,357,456,0
1377,356,342,0
1377,376,284,0
1337,353,254,0
1101,300,166,0
873,296,67,0
732,321,60,0
694,353,61,0
680,313,94,0
621,245,130,0
654,204,152,0
711,185,225,0
742,206,318,0
859,244,340,0
942,265,388,0
1140,352,401,0
1233,478,530,0
1272,594,599,0
1205,618,483,0
1036,533,392,0
948,129,348,0
869,166,300,0
785,414,215,0
693,652,194,0
616,765,274,0
651,737,403,0
840,736,473,0
997,826,407,0
1268,696,350,0
1293,334,341,0
1273,314,392,0
1218,381,417,0
1178,456,325,0
1136,511,270,0
1170,481,217,0
1014,402,125,0
882,336,65,0
819,281,74,0
760,253,76,0
714,260,123,0
706,255,163,0
752,209,168,0
827,169,186,0
901,169,235,0
836,217,256,0
896,350,289,0
1000,482,369,0
1253,599,466,0
1445,632,523,0
1299,620,466,0
964,425,456,0
876,151,476,0
814,264,437,0
687,468,360,0
573,611,371,0
605,664,453,0
871,670,502,0
1101,595,471,0
1158,532,446,0
1251,399,405,0
1230,428,370,0
1233,441,363,0
1140,449,333,0
1129,423,231,0
1182,384,175,0
1093,313,164,0
877,281,133,0
694,286,131,0
580,289,133,0
599,279,138,0
596,248,179,0
616,226,228,0
743,221,292,0
841,180,323,0
968,170,304,0
1057,227,326,0
1337,406,343,0
1354,572,423,0
1149,668,492,0
971,691,452,0
1075,544,337,0
1089,228,230,0
910,216,247,0
753,387,225,0
641,607,195,0
604,700,222,0
583,652,287,0
722,629,371,0
942,663,418,0
1040,610,381,0
1211,513,403,0
1199,385,421,0
1281,406,413,0
1201,430,390,0
1161,456,317,0
1082,419,190,0
1085,406,131,0
1061,387,121,0
887,342,96,0
806,296,80,0
767,254,76,0
815,240,93,0
802,223,119,0
779,220,135,0
791,260,186,0
783,291,258,0
765,271,331,0
817,239,329,0
872,264,395,0
1148,354,438,0
1210,434,501,0
1246,508,531,0
1222,567,404,0
1182,623,306,0
1055,331,246,0
918,275,253,0
771,452,167,0
705,610,102,0
678,630,131,0
642,531,207,0
747,483,298,0
897,480,315,0
1013,557,333,0
1128,605,409,0
1130,596,496,0
1173,552,546,0
1010,447,528,0
1031,370,440,0
1114,320,349,0
1138,262,326,0
1090,233,307,0
891,223,229,0
785,273,195,0
800,327,156,0
829,326,134,0
879,251,119,0
876,206,130,0
974,212,115,0
916,259,153,0
770,375,338,0
655,393,437,0
700,307,436,0
881,227,449,0
1038,194,481,0
1092,282,518,0
1072,390,518,0
1039,505,490,0
993,607,487,0
890,654,503,0
760,592,474,0
748,522,475,0
827,541,424,0
914,573,368,0
977,604,366,0
1132,639,380,0
1223,661,368,0
1351,574,375,0
1076,490,325,0
1162,464,228,0
1289,414,146,0
1319,397,177,0
1183,307,191,0
915,227,129,0
769,286,158,0
758,330,178,0
749,282,201,0
760,210,238,0
742,132,276,0
703,118,359,0
699,132,405,0
796,190,404,0
982,234,396,0
1251,313,335,0
1383,444,360,0
1561,710,442,0
1533,1031,469,0
1089,824,167,0
925,209,266,0
858,108,267,0
747,507,220,0
631,699,182,0
506,760,268,0
538,761,415,0
815,715,486,0
1128,649,478,0
1194,447,468,0
1258,349,505,0
1232,433,470,0
1292,488,407,0
1171,509,355,0
1181,462,254,0
1197,393,149,0
1244,368,129,0
1135,282,105,0
929,232,78,0
759,286,122,0
700,328,153,0
691,293,180,0
628,209,214,0
629,155,263,0
670,122,332,0
683,95,359,0
803,153,376,0
949,220,348,0
1329,357,354,0
1536,498,420,0
1669,793,520,0
1409,1143,549,0
1046,584,243,0
989,-30,384,0
873,-16,333,0
728,393,118,0
547,800,232,0
531,674,359,0
652,543,455,0
955,499,478,0
1190,526,433,0
1301,457,385,0
1285,408,398,0
1320,400,425,0
1029,389,366,0
1017,405,269,0
1085,398,201,0
1149,393,136,0
1115,329,94,0
945,257,66,0
777,261,49,0
705,301,65,0
694,329,99,0
668,296,118,0
692,284,164,0
772,273,230,0
833,229,293,0
959,193,304,0
1049,210,396,0
1221,316,426,0
1158,407,443,0
1119,509,523,0
1115,548,484,0
1181,503,355,0
1097,331,324,0
912,291,310,0
782,403,284,0
683,539,232,0
625,642,263,0
623,656,351,0
674,639,445,0
822,686,508,0
991,604,453,0
1070,398,355,0
1189,307,353,0
1179,333,383,0
1327,462,411,0
1218,487,333,0
1183,435,196,0
1187,412,102,0
1219,365,19,0
1130,328,-47,0
977,308,-27,0
804,299,-29,0
717,341,-25,0
730,360,-14,0
760,346,32,0
752,341,115,0
803,335,224,0
865,288,345,0
907,195,446,0
959,94,475,0
944,99,523,0
1134,234,509,0
1163,371,577,0
1191,461,562,0
1309,535,439,0
1333,606,247,0
1189,502,154,0
988,368,144,0
864,460,75,0
751,555,-45,0
680,596,-88,0
642,524,-26,0
746,447,29,0
861,448,63,0
789,536,152,0
787,735,324,0
955,851,381,0
1063,914,401,0
1278,704,459,0
1200,211,499,0
1032,121,441,0
1111,265,357,0
1293,333,358,0
1156,411,433,0
999,352,350,0
787,252,228,0
666,252,188,0
626,251,161,0
620,204,146,0
579,138,112,0
584,166,72,0
619,274,97,0
745,371,140,0
1035,472,136,0
1547,603,128,0
1766,862,329,0
1180,1369,497,0
701,702,283,0
874,89,434,0
1043,-102,387,0
890,224,331,0
701,566,129,0
522,748,205,0
544,759,342,0
617,670,440,0
718,537,437,0
963,528,420,0
1126,457,332,0
1233,405,263,0
1217,364,280,0
1261,398,331,0
1015,413,367,0
977,447,266,0
1059,491,152,0
1153,468,89,0
1035,340,63,0
862,233,55,0
739,242,108,0
724,315,125,0
749,338,146,0
780,326,174,0
809,258,186,0
779,179,226,0
732,167,312,0
775,223,392,0
853,304,422,0
1067,391,409,0
1130,411,484,0
1207,472,541,0
1188,504,432,0
1135,541,351,0
1007,354,294,0
875,290,282,0
767,401,233,0
684,533,207,0
644,597,225,0
586,588,313,0
667,582,404,0
886,608,429,0
1039,588,409,0
1230,500,402,0
1179,399,426,0
1279,455,427,0
1190,484,412,0
1119,456,311,0
1104,394,192,0
1131,347,132,0
1099,310,127,0
970,274,101,0
821,279,77,0
715,308,86,0
681,327,111,0
670,298,136,0
682,256,148,0
748,223,204,0
812,200,272,0
953,231,334,0
1064,267,352,0
1182,367,382,0
1085,453,431,0
1127,579,513,0
1223,576,455,0
1226,539,334,0
1035,324,327,0
832,260,344,0
758,411,329,0
705,555,297,0
661,624,314,0
679,555,383,0
825,498,430,0
1004,473,458,0
1001,442,464,0
898,380,444,0
904,353,388,0
1107,369,385,0
1138,403,374,0
1174,484,399,0
968,457,330,0
952,415,181,0
1072,391,149,0
1136,311,129,0
940,261,137,0
770,264,159,0
680,313,175,0
718,347,185,0
778,303,194,0
786,251,228,0
783,228,278,0
747,211,346,0
741,201,385,0
884,266,414,0
1006,311,491,0
1297,400,464,0
1442,466,504,0
1274,560,440,0
1002,675,335,0
889,451,175,0
905,302,162,0
929,314,118,0
790,467,63,0
678,545,45,0
627,552,97,0
568,497,191,0
561,495,303,0
732,552,417,0
920,570,500,0
1008,519,531,0
1193,460,561,0
1270,496,600,0
1234,454,577,0
1019,354,480,0
1069,341,344,0
1225,354,283,0
1226,363,234,0
1116,334,163,0
957,287,79,0
863,325,55,0
814,368,58,0
745,329,76,0
690,275,99,0
735,229,104,0
819,217,168,0
809,199,252,0
711,201,291,0
812,253,323,0
873,314,393,0
940,408,466,0
1122,583,584,0
1274,670,522,0
1329,708,390,0
1147,457,382,0
928,336,404,0
809,498,387,0
758,646,306,0
776,653,201,0
818,575,226,0
831,371,114,0
991,340,-51,0
991,51,44,0
965,-215,178,0
929,155,81,0
1005,297,-29,0
1019,367,-134,0
974,349,-53,0
1039,399,71,0
1076,259,52,0
969,181,58,0
918,321,-25,0
957,428,-28,0
1005,301,7,0
976,427,29,0
1052,463,0,0
1273,266,-141,0
1071,199,-100,0
840,273,-10,0
831,413,-9,0
857,463,-4,0
899,415,13,0
852,320,71,0
828,269,152,0
792,248,214,0
787,255,287,0
822,262,347,0
841,297,416,0
916,368,486,0
953,438,529,0
1090,463,569,0
1030,415,484,0
903,361,327,0
911,311,307,0
959,315,276,0
927,418,275,0
805,482,285,0
741,490,300,0
735,430,307,0
755,367,335,0
772,317,361,0
771,306,397,0
795,312,430,0
882,344,458,0
910,273,463,0
842,170,461,0
773,144,462,0
726,89,483,0
747,285,481,0
964,401,474,0
981,417,424,0
1023,389,373,0
962,318,379,0
890,318,334,0
858,395,320,0
857,440,286,0
888,455,221,0
951,403,194,0
901,325,166,0
772,285,176,0
754,397,221,0
765,393,243,0
752,344,260,0
879,304,279,0
1008,297,299,0
1097,315,286,0
1078,364,274,0
1070,461,257,0
986,533,268,0
807,558,253,0
815,522,264,0
855,430,255,0
880,374,242,0
785,357,266,0
693,378,263,0
658,393,276,0
626,385,319,0
554,399,369,0
632,480,447,0
788,556,506,0
1078,633,512,0
1394,625,451,0
1354,483,378,0
991,348,336,0
936,341,318,0
924,389,267,0
911,458,200,0
992,458,169,0
1098,450,112,0
1110,388,11,0
1050,295,-64,0
943,242,-81,0
867,287,-87,0
895,370,-99,0
970,430,-94,0
1022,420,-70,0
953,397,-3,0
823,422,153,0
732,437,289,0
796,317,265,0
905,153,377,0
941,81,614,0
940,161,795,0
907,-46,954,0
631,1453,1462,0
539,806,613,0
755,563,464,0
1077,562,409,0
1137,419,306,0
931,594,271,0
949,575,135,0
978,510,13,0
992,470,-31,0
945,449,14,0
867,417,3,0
904,424,-36,0
974,338,-21,0
924,358,-11,0
868,420,-53,0
813,518,-60,0
820,567,-35,0
872,608,14,0
844,609,55,0
852,657,76,0
864,649,94,0
827,611,123,0
782,640,165,0
717,704,217,0
694,723,272,0
649,695,266,0
605,701,257,0
581,699,252,0
590,657,233,0
617,635,217,0
626,642,201,0
631,630,162,0
702,650,136,0
814,656,108,0
970,693,83,0
1013,716,69,0
834,686,55,0
672,686,66,0
701,697,58,0
781,654,35,0
852,603,29,0
948,532,3,0
953,492,-15,0
909,516,0,0
877,519,6,0
881,494,13,0
966,473,39,0
986,412,118,0
990,337,207,0
994,251,327,0
950,159,405,0
875,110,467,0
908,140,502,0
776,226,597,0
741,288,603,0
836,315,532,0
1008,324,473,0
1067,342,440,0
914,346,404,0
793,458,334,0
749,509,266,0
725,519,241,0
657,510,265,0
691,553,305,0
866,666,338,0
1012,829,362,0
1203,882,376,0
1245,674,376,0
1018,558,374,0
966,578,388,0
1073,548,288,0
1173,417,182,0
1251,286,170,0
1296,224,189,0
1183,250,146,0
1039,234,74,0
874,233,63,0
716,261,70,0
608,298,74,0
741,328,86,0
890,320,133,0
801,307,231,0
641,218,229,0
702,182,183,0
837,283,237,0
1095,461,310,0
1454,603,384,0
1520,707,421,0
1346,899,464,0
1096,547,405,0
1068,293,435,0
952,307,423,0
806,392,361,0
705,522,310,0
672,602,373,0
728,551,452,0
825,484,500,0
895,418,475,0
939,415,451,0
984,374,411,0
960,299,348,0
923,284,285,0
750,308,251,0
942,458,254,0
1347,585,280,0
928,497,249,0
759,402,185,0
808,279,138,0
979,352,105,0
1138,338,116,0
1071,326,165,0
858,363,155,0
705,347,118,0
665,332,132,0
714,321,199,0
769,313,280,0
887,320,360,0
977,275,432,0
964,174,418,0
1071,132,360,0
1241,248,397,0
1050,418,432,0
764,530,303,0
790,610,295,0
1104,626,207,0
1131,441,135,0
921,254,163,0
790,313,201,0
743,429,165,0
743,479,140,0
755,400,177,0
731,327,278,0
736,289,341,0
739,335,411,0
759,403,519,0
764,439,629,0
790,420,684,0
826,378,628,0
861,342,536,0
877,347,465,0
909,407,442,0
961,483,402,0
1039,489,362,0
917,455,327,0
922,405,288,0
961,363,271,0
996,368,243,0
1052,362,226,0
1015,349,204,0
911,335,176,0
811,318,158,0
744,299,138,0
692,288,132,0
697,293,136,0
757,312,150,0
836,344,170,0
918,367,180,0
985,404,196,0
1017,455,235,0
1031,514,289,0
1071,530,340,0
1311,511,296,0
1183,422,311,0
836,391,388,0
669,429,412,0
631,483,381,0
760,426,309,0
1063,328,267,0
1146,252,233,0
952,326,271,0
753,392,324,0
655,487,318,0
700,461,290,0
759,378,312,0
800,302,375,0
818,326,423,0
798,430,466,0
763,495,484,0
720,487,480,0
645,446,466,0
572,449,443,0
534,491,435,0
516,525,429,0
515,530,424,0
531,543,438,0
741,593,498,0
988,570,588,0
791,571,506,0
794,458,347,0
946,395,272,0
1113,357,240,0
1057,300,216,0
834,290,175,0
615,350,121,0
732,531,129,0
1154,673,167,0
1231,523,115,0
867,300,65,0
716,176,94,0
725,278,126,0
843,426,122,0
892,487,119,0
816,448,172,0
768,431,244,0
823,423,319,0
943,158,819,0
1035,254,670,0
836,907,401,0
932,602,269,0
854,415,208,0
824,296,200,0
798,356,176,0
805,456,196,0
831,448,180,0
838,389,165,0
847,355,178,0
840,403,207,0
843,430,245,0
874,465,281,0
855,816,307,0
802,1244,573,0
933,1174,629,0
950,962,738,0
855,555,731,0
679,159,580,0
545,-33,530,0
432,-44,499,0
406,-59,474,0
447,39,545,0
519,209,669,0
544,233,774,0
521,262,842,0
401,296,814,0
308,332,855,0
280,336,831,0
287,344,833,0
303,351,805,0
328,341,776,0
362,335,750,0
416,278,717,0
518,229,688,0
653,223,682,0
810,198,690,0
935,136,704,0
955,24,699,0
971,154,598,0
965,318,438,0
879,566,296,0
881,535,337,0
871,379,407,0
849,279,469,0
833,307,480,0
846,391,428,0
864,425,371,0
867,387,331,0
871,338,322,0
862,317,314,0
843,332,289,0
826,354,272,0
820,370,259,0
820,388,253,0
818,396,251,0
829,405,270,0
840,393,278,0
846,387,294,0
854,387,315,0
854,387,333,0
859,401,342,0
858,417,357,0
857,418,359,0
857,407,357,0
855,390,360,0
851,389,345,0
851,387,330,0
851,384,313,0
849,383,302,0
848,388,293,0
845,387,286,0
846,382,281,0
847,379,283,0
848,380,278,0
845,384,286,0
842,381,285,0
841,382,296,0
846,381,304,0
852,378,309,0
856,384,315,0
852,384,320,0
851,385,324,0
851,379,328,0
849,376,329,0
849,379,327,0
853,376,323,0
852,372,315,0
848,372,312,0
849,364,306,0
851,361,305,0
852,366,302,0
853,367,300,0
852,369,295,0
855,371,294,0
852,368,293,0
844,370,300,0
846,372,304,0
848,369,308,0
857,371,311,0
857,375,315,0
860,376,315,0
859,374,318,0
889,381,334,0
879,362,325,0
843,365,309,0
810,378,300,0
806,377,286,0
830,382,289,0
842,388,287,0
941,398,322,0
953,375,337,0
893,354,322,0
842,373,317,0
815,376,309,0
793,369,295,0
797,362,304,0
824,348,298,0
859,351,285,0
887,365,295,0
878,397,301,0
879,419,336,0
858,381,361,0
875,369,383,0
882,362,382,0
823,366,356,0
810,402,351,0
823,397,348,0
815,373,335,0
827,356,338,0
853,344,332,0
859,342,317,0
857,345,309,0
837,337,304,0
831,334,302,0
840,319,294,0
828,308,289,0
844,309,280,0
872,318,283,0
887,323,275,0
915,331,267,0
957,343,259,0
980,351,257,0
1005,315,242,0
980,309,244,0
929,330,237,0
978,309,211,0
913,270,149,0
836,288,107,0
783,337,138,0
823,398,193,0
882,436,253,0
859,410,289,0
850,371,300,0
869,342,330,0
875,354,333,0
912,367,330,0
944,373,348,0
963,368,323,0
970,348,271,0
974,327,238,0
934,330,196,0
916,350,148,0
904,356,107,0
880,351,76,0
868,368,53,0
856,397,24,0
869,448,7,0
880,496,-12,0
894,544,-24,0
910,516,-103,0
872,669,-56,0
849,708,118,0
781,623,85,0
786,675,8,0
784,648,-9,0
829,621,38,0
874,622,110,0
901,635,221,0
893,653,350,0
877,645,417,0
815,642,523,0
681,614,483,0
571,667,438,0
495,753,360,0
459,828,310,0
340,772,226,0
222,676,129,0
183,629,93,0
187,568,53,0
241,559,20,0
373,646,76,0
485,610,125,0
643,542,168,0
829,551,199,0
1016,567,281,0
1193,589,377,0
1174,478,309,0
1072,361,258,0
1027,320,312,0
1013,371,326,0
1066,510,280,0
1054,563,219,0
819,533,210,0
739,518,275,0
789,479,266,0
866,485,243,0
944,413,238,0
932,413,344,0
953,458,594,0
1067,271,756,0
1025,-271,492,0
911,88,360,0
681,199,283,0
612,200,235,0
658,235,134,0
662,106,176,0
853,103,117,0
1059,589,194,0
1075,425,217,0
1009,486,64,0
899,528,-53,0
958,297,-109,0
938,201,-57,0
991,219,-107,0
967,145,-141,0
978,233,-172,0
974,168,-123,0
981,129,-89,0
948,195,-50,0
964,117,-43,0
1019,39,32,0
1022,39,70,0
1008,-73,-20,0
