AccX [mg],AccY,AccZ,Ground Truth
28,412,1276,0
-10,136,981,0
119,384,827,0
519,237,1214,0
323,194,940,0
362,197,1057,0
301,101,957,0
242,94,862,0
178,17,859,0
170,-9,890,0
198,-80,863,0
179,-78,915,0
187,-143,938,0
185,-139,987,0
136,-174,926,0
136,-174,926,0
136,-174,926,0
85,-216,862,0
71,-189,820,0
144,-150,747,0
234,-161,649,0
330,177,724,0
440,331,789,0
608,135,1130,0
667,174,1291,0
561,197,1118,0
375,410,963,0
237,359,830,0
331,501,851,0
419,562,800,0
388,435,590,0
500,386,460,0
610,427,490,0
865,445,446,0
865,445,446,0
943,371,435,0
974,163,441,0
995,64,424,0
998,62,403,0
1042,135,444,0
1118,249,489,0
1201,313,520,0
1284,267,415,0
1587,191,188,0
1636,319,301,0
1284,297,326,0
949,219,212,0
937,214,120,0
863,254,78,0
655,222,122,0
499,166,86,0
447,198,170,0
463,230,128,0
732,290,261,0
732,290,261,0
772,281,288,0
836,304,376,0
860,246,311,0
849,234,283,0
844,290,323,0
844,350,340,0
827,375,388,0
851,395,392,0
871,418,402,0
847,369,391,0
850,357,326,0
893,365,278,0
962,337,221,0
1102,380,220,0
1385,408,322,0
1814,340,478,0
1682,127,444,0
1344,-96,287,0
962,276,86,0
962,276,86,0
680,486,256,0
600,461,190,0
481,312,-31,0
444,333,29,0
508,338,143,0
632,332,159,0
803,298,187,0
875,220,209,0
968,185,211,0
930,209,244,0
869,263,383,0
870,193,395,0
1217,97,40,0
1031,286,175,0
921,495,579,0
868,431,735,0
875,326,648,0
1027,27,242,0
1027,27,242,0
998,120,278,0
874,276,299,0
828,323,346,0
822,332,267,0
803,369,301,0
694,321,297,0
687,268,334,0
696,231,392,0
646,241,413,0
701,265,373,0
1172,352,309,0
1339,346,273,0
1201,282,123,0
1111,298,190,0
732,410,227,0
642,415,221,0
744,396,159,0
847,392,126,0
859,333,23,0
859,333,23,0
914,326,20,0
976,322,46,0
1030,308,183,0
1084,242,187,0
1069,270,209,0
1043,345,287,0
1054,366,368,0
1176,174,175,0
1302,145,2,0
1083,330,195,0
870,527,411,0
605,212,392,0
573,154,109,0
784,255,96,0
816,329,152,0
719,330,139,0
735,269,143,0
778,257,166,0
802,311,247,0
802,311,247,0
828,233,273,0
886,266,304,0
837,315,392,0
791,273,400,0
793,234,304,0
1113,328,251,0
1273,482,282,0
1368,406,139,0
1219,413,178,0
789,357,169,0
664,357,93,0
826,440,51,0
875,467,56,0
882,427,53,0
948,378,102,0
981,439,223,0
916,520,210,0
733,387,310,0
733,387,310,0
733,387,310,0
742,377,293,0
850,390,332,0
1082,328,276,0
1185,216,52,0
949,280,94,0
821,438,289,0
688,399,344,0
792,271,274,0
852,213,152,0
892,233,162,0
855,296,247,0
851,319,277,0
882,369,283,0
891,404,253,0
843,392,300,0
811,350,299,0
818,382,294,0
801,341,215,0
894,352,139,0
976,468,228,0
1580,501,238,0
1330,543,249,0
841,291,185,0
725,247,199,0
878,413,95,0
1027,408,91,0
967,283,111,0
904,283,97,0
865,315,51,0
890,285,57,0
918,264,51,0
898,262,58,0
937,250,67,0
1024,269,86,0
1112,304,165,0
1427,237,-33,0
1249,278,-35,0
941,418,298,0
729,358,341,0
627,314,329,0
695,276,278,0
783,254,217,0
774,257,206,0
862,459,277,0
783,378,350,0
739,230,156,0
784,100,201,0
845,171,226,0
765,236,325,0
847,181,357,0
1311,214,223,0
1501,399,208,0
993,484,269,0
698,340,356,0
797,436,279,0
1070,543,212,0
1092,492,243,0
1068,348,206,0
1109,303,225,0
1086,263,309,0
1047,158,435,0
970,113,567,0
890,138,459,0
790,235,354,0
728,389,442,0
833,292,204,0
938,238,-108,0
945,508,19,0
893,478,42,0
805,478,2,0
786,539,44,0
839,453,-28,0
885,116,-223,0
927,222,88,0
820,603,435,0
873,652,569,0
813,598,593,0
842,497,522,0
784,373,456,0
917,304,287,0
1431,407,156,0
1568,640,159,0
1242,520,197,0
919,440,248,0
762,442,116,0
919,484,-43,0
1061,418,-57,0
1014,341,-50,0
970,303,29,0
1000,292,-25,0
968,310,-38,0
928,280,-8,0
886,252,-26,0
895,308,41,0
1004,323,147,0
1000,267,99,0
1184,144,-70,0
1036,284,140,0
815,457,475,0
833,362,432,0
850,195,258,0
819,174,167,0
847,294,210,0
866,377,176,0
830,391,142,0
829,419,163,0
809,386,182,0
781,403,208,0
827,396,269,0
890,372,279,0
1079,348,199,0
1497,453,141,0
1283,530,202,0
790,393,210,0
645,312,143,0
854,414,44,0
995,449,64,0
908,395,122,0
929,345,116,0
1005,352,121,0
995,331,76,0
927,429,170,0
879,368,190,0
806,313,160,0
745,337,236,0
779,355,277,0
942,305,211,0
1028,259,81,0
977,310,270,0
936,507,292,0
912,363,204,0
897,295,211,0
780,264,197,0
715,293,189,0
700,343,230,0
720,416,253,0
714,434,294,0
754,416,312,0
820,384,313,0
854,324,281,0
1029,299,191,0
1499,409,112,0
1441,504,122,0
1029,411,129,0
733,369,109,0
814,445,15,0
881,470,32,0
814,428,38,0
805,373,45,0
896,417,79,0
934,475,101,0
874,502,163,0
859,470,145,0
837,493,148,0
873,488,163,0
932,439,227,0
977,354,205,0
1247,269,-34,0
935,414,72,0
674,542,344,0
640,380,336,0
721,322,200,0
747,240,107,0
762,281,150,0
793,332,198,0
825,350,219,0
838,397,178,0
845,378,279,0
868,322,298,0
847,381,301,0
808,385,328,0
910,384,261,0
1556,467,151,0
1512,550,160,0
986,435,218,0
736,301,206,0
749,358,52,0
952,479,27,0
958,414,66,0
882,273,39,0
877,281,41,0
884,396,77,0
878,401,92,0
866,335,105,0
862,308,183,0
855,235,228,0
903,200,300,0
1073,129,246,0
1327,110,34,0
1137,200,109,0
925,379,372,0
792,685,477,0
755,227,300,0
858,78,213,0
866,70,355,0
765,108,485,0
734,78,409,0
780,76,325,0
817,195,309,0
773,55,253,0
787,-88,203,0
783,223,115,0
763,392,-9,0
1435,703,-243,0
1367,934,-269,0
945,661,-21,0
709,587,270,0
693,510,45,0
824,462,-54,0
824,409,33,0
846,249,36,0
902,286,28,0
935,406,65,0
928,437,82,0
932,417,75,0
953,383,70,0
952,400,89,0
932,365,104,0
950,344,107,0
961,347,140,0
1122,301,97,0
1120,229,99,0
1038,318,224,0
890,324,266,0
742,277,227,0
724,301,244,0
737,337,270,0
692,263,211,0
662,271,205,0
718,339,232,0
787,370,236,0
810,345,255,0
826,332,263,0
780,344,277,0
762,335,296,0
925,350,264,0
1360,411,183,0
1429,461,188,0
1164,443,269,0
799,414,353,0
671,374,290,0
937,330,165,0
1029,320,162,0
931,335,141,0
923,359,114,0
950,403,100,0
948,416,86,0
912,408,93,0
883,372,158,0
875,342,173,0
901,325,195,0
922,266,213,0
916,125,245,0
1052,74,166,0
933,161,185,0
861,239,300,0
820,236,278,0
864,280,200,0
898,368,178,0
895,423,210,0
890,386,250,0
857,355,233,0
883,413,249,0
904,390,271,0
856,412,254,0
796,422,294,0
726,402,265,0
690,390,253,0
1050,393,147,0
1584,501,68,0
1098,332,27,0
921,339,143,0
792,452,159,0
868,416,102,0
965,402,90,0
907,367,102,0
857,333,80,0
880,347,80,0
898,331,78,0
949,272,84,0
1017,181,122,0
1003,159,39,0
986,263,136,0
848,326,102,0
736,382,73,0
712,457,180,0
811,487,124,0
924,416,53,0
1064,378,-46,0
1188,445,-42,0
1169,468,77,0
1012,453,117,0
853,434,123,0
767,366,125,0
733,384,132,0
744,428,165,0
800,412,215,0
846,430,241,0
839,431,247,0
820,381,226,0
835,382,239,0
845,384,247,0
828,402,254,0
790,381,271,0
740,371,245,0
703,377,226,0
676,362,192,0
675,350,131,0
1002,400,50,0
1254,522,30,0
962,393,-64,0
1087,419,-23,0
965,476,-69,0
814,414,-66,0
923,418,-46,0
1049,467,-52,0
1024,392,-70,0
1046,313,-57,0
1043,267,-36,0
974,245,-13,0
912,289,12,0
890,300,8,0
889,292,9,0
891,289,27,0
887,276,51,0
914,284,70,0
1070,250,27,0
1105,286,-6,0
1062,278,101,0
993,193,147,0
803,565,95,0
659,655,34,0
758,629,130,0
870,585,186,0
844,492,207,0
805,384,234,0
830,313,236,0
831,295,215,0
808,366,214,0
783,379,209,0
755,366,209,0
756,343,205,0
756,340,210,0
735,306,216,0
839,337,178,0
1202,394,99,0
1371,417,71,0
1093,370,79,0
847,387,134,0
664,408,93,0
684,389,26,0
837,447,24,0
910,450,14,0
936,402,-33,0
934,412,-56,0
920,383,-60,0
904,425,13,0
887,427,65,0
893,453,84,0
906,441,143,0
880,430,159,0
869,452,207,0
929,416,236,0
1192,356,35,0
1192,412,41,0
1071,525,249,0
865,512,262,0
720,366,186,0
769,217,96,0
906,259,65,0
885,282,61,0
754,369,129,0
722,413,189,0
709,417,248,0
734,329,262,0
738,190,267,0
759,171,258,0
787,211,236,0
789,240,261,0
796,273,238,0
1015,292,156,0
1544,421,126,0
1302,395,150,0
919,319,222,0
702,366,280,0
654,430,169,0
776,311,40,0
884,377,31,0
887,538,141,0
847,393,75,0
877,370,125,0
946,416,218,0
961,337,135,0
1013,281,88,0
976,270,131,0
945,264,134,0
951,267,141,0
933,269,98,0
908,307,86,0
891,328,112,0
1152,287,23,0
1115,303,20,0
987,375,161,0
1006,563,314,0
868,441,296,0
750,108,194,0
876,125,194,0
982,272,183,0
883,276,199,0
762,209,158,0
759,307,75,0
797,467,241,0
733,299,317,0
679,290,304,0
663,355,311,0
634,349,306,0
646,340,313,0
696,339,290,0
1725,608,350,0
1506,555,40,0
945,290,41,0
674,302,229,0
742,450,161,0
883,481,74,0
922,323,60,0
881,330,72,0
875,334,53,0
910,341,34,0
923,321,34,0
922,302,19,0
881,300,10,0
846,307,18,0
864,310,29,0
954,339,74,0
1025,349,117,0
1204,293,26,0
1277,319,-35,0
1123,440,174,0
988,436,331,0
758,217,224,0
721,146,186,0
847,261,181,0
826,300,190,0
743,336,242,0
766,401,261,0
845,250,249,0
865,106,273,0
848,109,289,0
812,137,292,0
764,118,257,0
744,145,259,0
741,182,287,0
755,220,279,0
941,305,238,0
1590,492,232,0
1452,455,183,0
867,328,229,0
657,321,319,0
721,418,226,0
936,375,111,0
987,334,68,0
1009,313,14,0
1039,323,33,0
1049,304,36,0
1066,274,40,0
1053,247,7,0
1058,250,-16,0
1050,209,-35,0
1000,173,-63,0
943,237,95,0
1080,288,216,0
1172,250,55,0
813,250,381,0
738,299,596,0
773,180,524,0
819,97,343,0
935,79,218,0
933,170,132,0
866,286,126,0
845,429,243,0
830,541,303,0
770,372,268,0
717,275,242,0
738,305,244,0
713,305,285,0
705,290,279,0
888,333,276,0
1331,374,240,0
1366,432,152,0
1032,370,269,0
966,363,331,0
810,464,265,0
683,321,169,0
782,381,123,0
901,464,104,0
910,421,76,0
911,394,46,0
1034,289,174,0
994,546,295,0
990,857,107,0
1022,760,66,0
902,702,162,0
771,621,178,0
655,538,160,0
643,523,136,0
761,477,99,0
815,439,3,0
631,434,72,0
631,426,214,0
602,381,349,0
648,276,322,0
796,239,106,0
1006,263,216,0
1033,412,520,0
880,319,521,0
853,423,501,0
831,546,460,0
763,519,431,0
745,523,445,0
751,376,404,0
751,324,372,0
705,331,351,0
736,260,298,0
1244,363,176,0
1692,521,46,0
1119,367,124,0
814,297,220,0
693,216,85,0
785,-17,29,0
883,312,-115,0
772,887,-339,0
793,1024,-444,0
892,616,-423,0
793,612,-388,0
741,714,-439,0
670,761,-384,0
607,678,-334,0
536,598,-247,0
495,530,-155,0
472,591,-55,0
553,652,24,0
768,533,-44,0
783,399,0,0
853,454,281,0
836,466,377,0
973,322,217,0
1109,244,109,0
1082,274,85,0
985,354,160,0
939,384,196,0
897,455,182,0
824,413,157,0
779,456,153,0
770,483,210,0
788,461,281,0
771,447,339,0
781,380,324,0
985,321,201,0
1343,424,146,0
1391,568,173,0
1103,370,165,0
795,377,198,0
616,410,134,0
763,313,22,0
932,398,42,0
881,378,83,0
850,270,135,0
912,229,284,0
774,325,120,0
794,539,195,0
867,488,211,0
949,405,161,0
953,403,221,0
1008,366,248,0
1151,283,96,0
1238,245,-7,0
1079,296,101,0
1018,449,289,0
742,301,283,0
663,242,252,0
737,297,184,0
801,370,240,0
758,300,256,0
769,268,256,0
766,349,225,0
823,375,260,0
823,347,295,0
764,369,321,0
797,362,350,0
820,393,340,0
805,372,345,0
815,332,289,0
925,362,235,0
1457,475,179,0
1174,516,216,0
870,371,259,0
694,380,259,0
696,424,136,0
860,422,102,0
938,433,168,0
870,374,132,0
836,394,84,0
890,435,88,0
941,403,74,0
951,430,102,0
983,601,201,0
910,638,241,0
859,635,272,0
809,597,355,0
826,541,384,0
863,664,539,0
926,734,694,0
1222,544,-30,0
794,609,-1087,0
660,1405,-1559,0
741,1085,-765,0
565,348,-136,0
276,-77,-137,0
151,151,-163,0
-2,116,-279,0
-67,93,-562,0
-71,101,-832,0
-81,109,-1011,0
-161,152,-1041,0
-170,207,-1036,0
-208,256,-1040,0
-207,282,-966,0
-162,234,-975,0
-158,185,-955,0
-86,249,-917,0
183,166,-1187,0
106,153,-1235,0
-125,182,-1009,0
-143,94,-939,0
-113,-59,-911,0
-98,-62,-861,0
-87,-24,-817,0
-80,-45,-1037,0
-44,128,-1027,0
-52,142,-987,0
-31,135,-1029,0
-44,161,-1018,0
-35,190,-935,0
-54,186,-910,0
-56,263,-887,0
-31,251,-926,0
79,290,-912,0
201,153,-944,0
186,431,-770,0
215,576,-619,0
298,490,-572,0
308,763,-552,0
126,1342,-1158,0
-62,733,-1734,0
627,-339,-897,0
1032,-1451,108,0
1432,-1138,273,0
1625,-84,19,0
1419,897,211,0
1081,716,335,0
866,509,432,0
864,340,404,0
920,296,260,0
1114,214,141,0
1367,465,184,0
947,438,196,0
734,424,241,0
627,414,202,0
845,498,77,0
1030,533,1,0
988,376,-15,0
938,341,-4,0
946,411,-24,0
974,810,-47,0
1168,735,-151,0
1113,101,67,0
1073,20,326,0
962,230,380,0
842,155,340,0
711,32,333,0
676,63,369,0
825,21,380,0
862,52,367,0
966,67,459,0
1027,-24,543,0
915,-133,378,0
894,-145,229,0
1014,76,241,0
1047,301,302,0
944,181,172,0
933,213,68,0
927,406,61,0
873,410,38,0
848,397,84,0
798,405,99,0
745,436,119,0
706,414,212,0
839,335,272,0
1100,397,313,0
1426,490,299,0
1355,432,302,0
1048,443,379,0
701,405,344,0
586,349,200,0
748,336,101,0
987,351,87,0
1118,358,91,0
1013,350,66,0
1008,396,85,0
977,401,82,0
962,424,133,0
915,441,176,0
750,402,182,0
628,386,224,0
600,392,262,0
702,371,230,0
908,368,207,0
1003,388,347,0
1004,327,403,0
914,229,324,0
946,175,215,0
1018,238,158,0
947,280,139,0
862,295,119,0
824,324,175,0
817,342,88,0
818,452,61,0
821,465,88,0
822,502,109,0
806,505,202,0
754,429,211,0
820,398,187,0
1438,483,48,0
1321,424,36,0
1019,432,126,0
869,440,149,0
835,475,61,0
964,437,6,0
1126,515,-1,0
1077,506,0,0
979,508,19,0
927,493,95,0
770,318,88,0
738,1052,191,0
751,1067,434,0
585,919,353,0
514,817,277,0
447,672,227,0
382,546,243,0
421,457,230,0
589,391,109,0
594,333,67,0
547,387,213,0
501,482,381,0
719,275,145,0
968,758,121,0
915,624,211,0
798,819,123,0
767,824,137,0
753,766,115,0
756,693,152,0
798,675,191,0
876,646,182,0
893,602,115,0
771,587,87,0
782,577,110,0
799,515,112,0
1065,487,178,0
1412,575,127,0
1073,542,139,0
909,539,191,0
703,508,139,0
717,469,82,0
983,452,4,0
1089,452,-48,0
1004,350,-59,0
950,400,-53,0
923,497,-66,0
862,554,65,0
799,615,171,0
784,712,305,0
760,622,364,0
660,509,376,0
593,433,423,0
562,411,447,0
565,343,443,0
786,366,314,0
699,350,297,0
731,317,371,0
882,358,367,0
1012,298,247,0
1070,205,111,0
1055,281,92,0
961,351,134,0
923,343,74,0
919,381,110,0
901,398,86,0
876,417,96,0
876,435,126,0
861,484,176,0
828,477,204,0
883,493,224,0
952,496,201,0
1403,539,117,0
1306,607,101,0
887,484,156,0
704,421,138,0
792,457,22,0
1076,491,-11,0
1095,397,-40,0
1008,309,-69,0
984,301,-71,0
1006,317,-57,0
1000,281,-6,0
957,265,3,0
942,305,30,0
909,311,57,0
873,323,104,0
846,293,147,0
921,308,158,0
1107,298,48,0
892,316,170,0
914,437,296,0
886,512,337,0
851,380,258,0
907,300,185,0
1030,300,170,0
972,278,98,0
850,278,104,0
809,322,109,0
791,380,86,0
760,397,112,0
753,342,163,0
761,323,148,0
750,335,185,0
832,321,223,0
890,294,188,0
1277,314,166,0
1508,398,68,0
1134,311,-5,0
853,331,140,0
680,409,187,0
658,374,93,0
823,345,21,0
1037,405,7,0
1020,375,-20,0
903,331,0,0
883,360,40,0
905,375,17,0
901,337,9,0
880,326,11,0
846,336,12,0
810,339,22,0
827,362,37,0
861,394,56,0
910,394,82,0
1293,359,17,0
1300,349,-5,0
1083,395,186,0
1013,441,269,0
826,321,156,0
712,284,157,0
841,273,244,0
953,313,230,0
889,282,197,0
795,229,185,0
763,223,156,0
778,250,156,0
757,237,155,0
768,236,169,0
803,280,166,0
761,312,205,0
780,302,238,0
839,300,206,0
877,305,162,0
1209,340,124,0
1359,448,91,0
1208,400,26,0
975,407,148,0
725,450,168,0
661,409,113,0
854,408,49,0
1037,455,0,0
980,383,-32,0
911,355,9,0
948,419,10,0
1000,434,-2,0
981,397,16,0
936,403,21,0
883,420,40,0
818,436,81,0
814,427,146,0
908,404,178,0
1198,344,21,0
1068,352,54,0
942,411,255,0
761,419,353,0
662,293,235,0
754,223,127,0
917,287,151,0
921,278,166,0
838,270,187,0
809,289,213,0
822,297,170,0
802,285,188,0
770,295,213,0
757,323,236,0
761,317,257,0
762,323,260,0
822,327,256,0
909,325,229,0
1042,344,184,0
1313,446,174,0
1334,454,130,0
1281,445,125,0
866,438,186,0
621,413,185,0
719,402,84,0
953,419,24,0
1042,416,30,0
982,327,70,0
1003,256,79,0
981,31,42,0
951,327,104,0
974,694,15,0
948,689,52,0
884,744,113,0
775,735,96,0
653,609,105,0
556,560,132,0
492,533,155,0
579,470,99,0
647,474,46,0
574,476,150,0
711,542,295,0
744,529,380,0
905,304,280,0
1018,161,157,0
1051,192,190,0
968,264,191,0
932,330,153,0
933,401,153,0
899,418,125,0
862,414,125,0
848,419,135,0
848,426,128,0
804,442,97,0
778,492,129,0
793,511,159,0
1219,498,112,0
1448,504,15,0
1076,477,67,0
976,489,142,0
771,520,135,0
753,413,52,0
917,403,-9,0
1080,464,-33,0
1063,452,-76,0
1001,415,-117,0
965,383,-96,0
906,459,-63,0
829,489,-35,0
780,477,33,0
715,432,82,0
680,410,103,0
680,387,130,0
687,367,213,0
842,312,149,0
1108,351,70,0
992,344,211,0
1057,402,247,0
998,467,249,0
928,355,168,0
966,330,152,0
1016,366,185,0
958,341,175,0
870,331,155,0
833,355,128,0
829,400,164,0
766,380,173,0
734,345,163,0
780,273,237,0
747,218,232,0
753,241,282,0
811,247,286,0
882,256,224,0
1188,351,219,0
1462,464,164,0
1189,417,126,0
899,395,201,0
630,434,154,0
788,451,46,0
946,472,3,0
898,408,-8,0
857,419,21,0
886,386,17,0
889,547,-21,0
1063,750,9,0
1031,89,131,0
979,8,284,0
924,66,310,0
852,-10,346,0
808,-102,382,0
1058,-63,252,0
1070,57,307,0
903,56,277,0
877,182,323,0
924,322,242,0
970,324,76,0
935,306,28,0
868,317,86,0
826,292,86,0
798,298,27,0
785,564,72,0
744,877,69,0
749,327,116,0
768,-68,371,0
832,12,502,0
939,92,450,0
1026,4,344,0
1222,103,340,0
1465,350,430,0
1092,420,420,0
872,274,313,0
827,364,214,0
1049,415,114,0
1125,346,136,0
1016,295,218,0
959,307,231,0
1014,364,233,0
1050,383,221,0
955,386,277,0
852,329,320,0
707,311,365,0
602,273,407,0
549,229,405,0
554,195,427,0
685,174,381,0
912,180,305,0
992,218,406,0
1144,296,538,0
1073,257,493,0
998,69,276,0
1066,30,93,0
1050,186,66,0
957,345,77,0
843,417,92,0
749,401,106,0
685,445,131,0
660,476,292,0
745,405,307,0
799,346,327,0
866,303,353,0
986,351,339,0
1160,415,271,0
1451,530,194,0
984,454,265,0
949,387,338,0
770,447,292,0
792,379,162,0
1000,403,48,0
1107,495,77,0
1035,424,186,0
1066,325,284,0
1220,349,239,0
1204,350,205,0
1059,275,389,0
844,262,439,0
634,203,360,0
506,225,355,0
468,210,358,0
520,175,358,0
811,145,192,0
1010,226,49,0
1055,414,150,0
1128,476,125,0
1078,414,33,0
1069,264,114,0
1103,250,174,0
1038,202,345,0
913,250,351,0
837,348,330,0
825,383,280,0
802,410,251,0
813,412,252,0
784,453,250,0
794,467,259,0
905,464,218,0
919,467,185,0
1337,522,115,0
1343,601,83,0
867,418,126,0
788,344,181,0
844,419,68,0
1082,474,-28,0
1165,464,-10,0
1058,475,1,0
1021,353,-15,0
1023,268,-18,0
986,321,33,0
898,410,127,0
781,470,230,0
661,499,328,0
546,474,336,0
518,418,388,0
520,390,444,0
555,279,455,0
800,199,331,0
1075,378,303,0
759,426,428,0
791,362,513,0
882,408,370,0
955,215,177,0
1049,139,62,0
1076,289,123,0
1040,496,267,0
964,510,257,0
865,468,216,0
918,379,142,0
908,383,165,0
872,468,209,0
833,472,186,0
860,442,128,0
899,439,100,0
912,400,46,0
1115,394,13,0
1210,382,10,0
1152,294,-34,0
1258,275,-105,0
1272,311,-134,0
1100,317,-106,0
861,271,-91,0
730,342,-83,0
641,352,-112,0
603,373,-121,0
598,497,-114,0
614,605,-73,0
655,574,-52,0
737,562,4,0
844,613,223,0
913,529,734,0
1013,583,1104,0
1023,306,752,0
909,183,419,0
882,371,243,0
867,476,166,0
876,541,162,0
1007,554,-9,0
1204,472,-156,0
1071,330,-106,0
1021,278,-55,0
909,269,3,0
806,218,-43,0
842,245,-132,0
913,330,-120,0
829,413,-114,0
713,544,185,0
678,810,459,0
866,593,219,0
946,45,265,0
834,-169,293,0
853,51,267,0
872,292,266,0
790,372,200,0
749,303,146,0
982,274,42,0
1466,484,-13,0
1079,579,140,0
803,402,261,0
781,311,193,0
1050,444,36,0
1106,548,-8,0
935,432,85,0
834,369,168,0
904,391,247,0
921,422,224,0
908,514,315,0
912,491,377,0
872,458,335,0
803,495,340,0
739,499,333,0
688,448,292,0
653,399,266,0
669,367,196,0
933,338,47,0
1121,478,56,0
1090,470,76,0
1079,449,114,0
932,357,80,0
901,143,-63,0
1088,177,-92,0
1074,396,-78,0
896,435,-44,0
755,317,-65,0
759,324,-80,0
828,323,-75,0
898,345,-73,0
905,426,-2,0
847,474,153,0
861,495,191,0
895,462,176,0
863,403,187,0
904,437,152,0
1187,530,98,0
1040,520,90,0
1009,468,116,0
822,506,109,0
852,545,84,0
1045,497,45,0
1069,350,6,0
1000,312,48,0
939,313,102,0
908,336,197,0
861,300,215,0
828,198,264,0
847,173,254,0
828,212,250,0
737,268,279,0
735,277,290,0
996,260,125,0
1325,316,40,0
1044,365,193,0
946,445,363,0
843,369,150,0
885,243,-11,0
1038,281,50,0
1000,394,105,0
807,411,176,0
701,351,177,0
720,358,154,0
752,356,166,0
797,350,168,0
734,370,175,0
694,368,196,0
750,363,163,0
975,370,47,0
1422,562,59,0
1111,472,-54,0
1284,440,-115,0
1013,421,-119,0
888,344,-78,0
955,365,-73,0
977,368,-87,0
984,311,-80,0
977,279,-71,0
934,296,-70,0
906,366,-44,0
852,364,-28,0
799,410,9,0
743,390,59,0
722,358,144,0
949,344,164,0
1266,387,119,0
755,307,374,0
696,213,402,0
1054,395,319,0
1047,304,219,0
917,188,150,0
868,269,241,0
997,426,319,0
931,388,270,0
858,338,226,0
895,334,196,0
868,352,203,0
821,362,203,0
802,388,230,0
759,351,190,0
787,331,174,0
818,329,175,0
826,317,160,0
871,315,130,0
1192,382,119,0
1081,399,101,0
831,278,28,0
888,295,15,0
1029,356,-13,0
1054,330,-11,0
967,292,-4,0
924,320,-3,0
932,310,-18,0
971,299,23,0
951,271,20,0
891,255,40,0
860,324,67,0
865,374,74,0
888,363,105,0
921,379,159,0
989,338,166,0
1066,289,122,0
1078,355,147,0
925,377,260,0
873,358,284,0
941,331,248,0
960,267,161,0
932,261,137,0
927,283,166,0
896,288,167,0
825,244,157,0
864,215,136,0
833,259,149,0
767,282,206,0
772,276,232,0
820,301,210,0
880,318,226,0
907,327,235,0
895,348,261,0
904,339,299,0
889,355,286,0
870,355,312,0
850,361,307,0
841,366,313,0
817,353,305,0
840,353,281,0
1081,368,255,0
1033,335,193,0
969,302,188,0
1000,320,183,0
952,311,137,0
851,298,122,0
797,362,98,0
834,392,53,0
955,360,24,0
1051,370,20,0
970,346,0,0
904,412,62,0
896,516,116,0
910,518,141,0
878,521,179,0
802,604,211,0
739,656,236,0
717,704,287,0
698,715,307,0
670,673,306,0
630,634,301,0
590,596,278,0
554,527,268,0
584,481,204,0
896,575,29,0
724,625,167,0
495,465,296,0
555,381,255,0
822,387,166,0
1048,294,106,0
1080,293,127,0
1090,391,201,0
1009,409,200,0
953,327,146,0
957,341,131,0
921,368,141,0
856,426,190,0
784,448,243,0
744,413,251,0
748,403,253,0
778,403,233,0
957,370,187,0
1326,423,136,0
1135,392,85,0
1028,324,72,0
1039,352,41,0
958,386,5,0
893,351,10,0
883,349,10,0
926,330,-40,0
957,422,-61,0
966,407,-110,0
922,395,-91,0
876,430,-75,0
841,516,-64,0
800,582,27,0
783,627,144,0
741,638,286,0
709,610,361,0
682,601,391,0
683,539,423,0
690,389,406,0
695,323,383,0
824,322,239,0
1084,431,45,0
908,649,172,0
667,541,358,0
793,404,261,0
931,326,84,0
1036,218,15,0
1052,323,124,0
918,367,190,0
848,300,118,0
868,309,85,0
854,334,79,0
801,362,104,0
790,414,176,0
780,440,204,0
810,429,227,0
836,418,230,0
832,418,219,0
826,424,203,0
924,413,166,0
1395,508,130,0
1126,421,60,0
1106,367,90,0
1012,424,81,0
851,407,43,0
759,359,54,0
906,364,42,0
1077,437,-12,0
1040,404,-39,0
977,331,-37,0
958,334,0,0
996,365,1,0
1024,344,10,0
933,330,57,0
803,345,98,0
708,319,156,0
662,275,215,0
688,259,241,0
784,235,280,0
1192,213,144,0
1263,228,100,0
1134,291,149,0
1029,444,237,0
900,433,84,0
872,367,-12,0
972,454,86,0
942,543,113,0
843,486,120,0
822,451,130,0
780,422,118,0
758,423,126,0
734,438,136,0
656,404,122,0
671,387,72,0
736,409,40,0
1020,488,14,0
1191,508,-90,0
1180,384,-217,0
1302,358,-264,0
1242,618,-220,0
1167,535,-266,0
1183,656,-258,0
1098,600,-283,0
1051,735,-293,0
939,898,-214,0
742,837,-273,0
504,881,-200,0
296,608,-178,0
199,742,-197,0
193,871,-260,0
328,1498,-413,0
179,1596,-225,0
-446,786,-99,0
-636,480,114,0
-574,173,348,0
-550,-241,307,0
-617,-363,225,0
-432,-217,238,0
-404,132,258,0
-273,1234,289,0
-80,1438,-13,0
-307,1415,87,0
-491,954,249,0
-463,731,254,0
-414,698,294,0
-346,730,282,0
-260,754,325,0
-205,884,398,0
-168,1290,543,0
-128,1557,544,0
-268,1266,478,0
-383,960,429,0
-421,504,417,0
-476,402,405,0
-491,283,346,0
-475,236,334,0
-483,-257,290,0
-406,-309,156,0
-98,150,-8,0
117,261,-88,0
265,1781,-443,0
239,1717,-335,0
234,1565,-438,0
434,1647,-87,0
378,1483,-33,0
227,1045,72,0
149,1041,169,0
170,1003,146,0
157,940,108,0
39,1270,-22,0
-120,1357,-178,0
-164,1183,-275,0
-181,912,-359,0
-181,762,-387,0
-57,574,-392,0
60,456,-389,0
107,697,-133,0
433,737,-27,0
593,652,12,0
699,518,55,0
907,286,83,0
1013,416,95,0
990,432,21,0
942,527,40,0
889,654,72,0
912,677,57,0
896,805,106,0
904,922,130,0
788,1040,164,0
739,1056,153,0
757,1194,106,0
1216,1289,-27,0
1079,1263,15,0
1426,1129,-37,0
1344,1110,91,0
1141,913,121,0
1183,597,54,0
1176,432,36,0
1008,387,129,0
758,307,159,0
532,236,184,0
361,160,255,0
263,132,316,0
221,143,418,0
348,212,475,0
621,229,428,0
878,244,337,0
1081,429,530,0
1299,414,585,0
1190,189,316,0
1161,116,63,0
1229,185,-89,0
1270,395,-44,0
1265,571,-56,0
1162,528,-92,0
1077,467,-105,0
1041,458,-135,0
1071,562,-123,0
1014,657,-162,0
880,750,-155,0
736,748,-76,0
800,682,-29,0
1309,774,-198,0
1136,711,-113,0
963,686,93,0
787,610,-18,0
925,545,-120,0
1204,499,-99,0
1208,447,-86,0
1184,376,-118,0
1178,346,-99,0
1134,350,-117,0
1086,329,-104,0
1039,313,-91,0
949,391,-97,0
830,413,-124,0
711,479,-104,0
613,488,-80,0
509,499,-10,0
653,511,-13,0
803,594,106,0
722,637,543,0
761,503,703,0
966,496,539,0
1047,270,572,0
993,288,588,0
817,330,456,0
667,384,335,0
585,386,225,0
581,437,195,0
646,465,207,0
696,452,199,0
742,483,216,0
858,393,264,0
1106,312,210,0
1495,455,168,0
1110,455,179,0
835,421,285,0
569,589,312,0
569,574,238,0
895,547,174,0
1046,439,96,0
859,416,126,0
826,505,160,0
743,509,369,0
807,438,359,0
788,626,412,0
703,608,567,0
719,528,449,0
784,386,417,0
828,233,340,0
900,478,76,0
1084,507,-416,0
649,792,-275,0
676,906,-4,0
771,757,-166,0
729,590,-147,0
755,242,-205,0
815,132,-98,0
753,174,73,0
707,279,109,0
700,425,137,0
715,504,179,0
763,534,237,0
911,592,215,0
939,590,331,0
928,478,386,0
1064,417,369,0
1259,412,342,0
1605,479,220,0
1052,460,156,0
878,377,37,0
775,431,31,0
937,477,64,0
1005,440,0,0
958,468,-94,0
948,381,-104,0
934,325,-65,0
901,384,-2,0
833,451,112,0
772,407,170,0
729,403,182,0
710,373,214,0
669,341,251,0
641,355,289,0
922,429,157,0
1117,648,113,0
839,726,222,0
799,641,352,0
848,513,343,0
849,490,316,0
830,468,237,0
748,468,256,0
665,402,294,0
643,402,307,0
687,410,331,0
712,364,363,0
728,376,419,0
720,359,422,0
723,376,373,0
796,413,320,0
946,447,216,0
1608,561,59,0
1206,688,-134,0
676,528,-17,0
611,402,72,0
744,472,-118,0
997,591,-155,0
949,492,-139,0
843,402,-65,0
825,387,-30,0
833,444,-36,0
847,399,48,0
831,403,55,0
842,465,147,0
811,492,175,0
834,526,229,0
839,513,252,0
842,415,261,0
1189,349,170,0
1260,438,207,0
853,310,327,0
760,299,325,0
730,377,217,0
920,290,116,0
1016,350,145,0
792,438,149,0
676,392,257,0
665,393,187,0
698,506,151,0
680,478,226,0
653,484,269,0
675,483,325,0
735,455,348,0
825,430,320,0
890,446,306,0
846,425,314,0
1103,443,344,0
1307,539,338,0
1141,393,325,0
897,263,394,0
714,232,383,0
858,279,293,0
1017,310,322,0
928,281,350,0
875,383,399,0
865,498,462,0
849,447,462,0
775,512,499,0
678,468,440,0
580,337,421,0
561,334,415,0
531,356,378,0
496,331,336,0
696,245,150,0
1047,309,14,0
909,417,84,0
944,464,102,0
1028,561,59,0
1140,558,-20,0
1179,460,-74,0
1004,400,43,0
907,378,117,0
909,424,149,0
850,516,205,0
770,578,294,0
791,536,324,0
809,590,323,0
795,523,303,0
874,369,321,0
939,330,264,0
1146,396,174,0
1516,463,74,0
895,469,161,0
796,719,136,0
1144,682,-207,0
1292,76,2,0
1113,51,418,0
996,129,344,0
862,50,193,0
761,110,49,0
753,479,30,0
735,763,-42,0
683,844,-317,0
665,572,-426,0
544,310,-236,0
448,245,-146,0
473,558,-67,0
728,708,-49,0
1103,670,-150,0
918,921,223,0
905,824,192,0
804,644,-104,0
745,527,-187,0
657,453,-331,0
602,500,-528,0
552,424,-430,0
577,259,-299,0
627,174,-242,0
726,201,-292,0
824,410,-293,0
819,641,-250,0
707,1714,211,0
717,1228,122,0
968,618,-262,0
1549,712,-351,0
1165,308,-375,0
597,77,-169,0
504,235,108,0
734,483,-26,0
970,659,-113,0
897,613,-27,0
792,601,121,0
823,713,120,0
855,803,144,0
830,691,253,0
818,651,206,0
875,597,90,0
893,508,68,0
889,384,19,0
1054,330,-127,0
630,399,43,0
555,466,298,0
761,446,232,0
812,314,89,0
803,136,58,0
804,252,152,0
843,349,187,0
889,353,125,0
906,412,211,0
921,451,223,0
927,473,270,0
906,480,289,0
925,535,322,0
1016,522,294,0
948,543,286,0
1050,544,171,0
1430,646,37,0
1091,557,79,0
843,447,125,0
697,498,22,0
907,583,-183,0
1153,520,-235,0
1109,460,-234,0
1049,468,-257,0
1024,505,-341,0
1006,614,-395,0
910,629,-410,0
720,775,-475,0
405,972,-30,0
901,969,735,0
957,450,262,0
823,-67,574,0
722,0,666,0
701,23,423,0
707,152,217,0
846,344,88,0
903,349,-27,0
908,320,-212,0
974,408,-203,0
1008,425,-195,0
949,600,22,0
968,616,95,0
989,563,15,0
1074,482,64,0
1072,453,229,0
1073,466,366,0
1044,520,434,0
1039,600,451,0
1064,585,395,0
1045,549,320,0
1374,722,100,0
995,921,217,0
737,679,284,0
1151,538,-43,0
1437,525,-212,0
1211,502,-77,0
1109,373,-56,0
1129,358,-95,0
1126,362,-79,0
1040,342,-52,0
870,353,13,0
780,315,42,0
675,272,95,0
633,225,130,0
593,245,220,0
785,286,347,0
1033,431,841,0
878,-186,599,0
1011,-509,123,0
1445,111,19,0
1595,942,153,0
1213,814,-8,0
976,532,-76,0
946,316,-150,0
929,291,-134,0
857,428,-62,0
750,472,-44,0
678,548,-35,0
722,567,18,0
867,621,80,0
933,585,144,0
914,492,152,0
1307,558,81,0
1299,683,82,0
882,568,76,0
752,491,-14,0
1007,380,-140,0
1235,419,-47,0
1145,422,55,0
1128,463,4,0
1127,673,21,0
1115,755,-4,0
1006,738,-88,0
800,782,-23,0
610,638,-127,0
448,414,-124,0
339,283,-138,0
290,229,-149,0
505,172,-189,0
706,273,-209,0
827,408,-24,0
965,1360,-59,0
927,820,-234,0
918,1204,-245,0
924,1000,-421,0
795,542,-322,0
803,369,-320,0
897,365,-409,0
902,256,-519,0
896,259,-393,0
938,373,-250,0
975,505,-182,0
1023,648,-171,0
938,672,-158,0
1259,832,-251,0
1109,811,-156,0
724,836,162,0
560,742,124,0
703,621,-45,0
1100,627,-57,0
1093,625,-16,0
1051,469,-34,0
1103,291,-84,0
1149,223,-153,0
1151,329,-153,0
1115,464,-219,0
986,456,-347,0
707,578,-367,0
551,972,-191,0
586,721,-62,0
653,261,356,0
696,33,452,0
929,102,464,0
775,192,790,0
792,130,890,0
973,145,521,0
1117,-85,122,0
1206,25,-75,0
1227,352,-67,0
1075,602,8,0
980,532,42,0
953,420,-29,0
919,534,-51,0
863,466,-18,0
794,509,91,0
736,560,156,0
842,593,78,0
853,631,-22,0
1024,691,-99,0
1401,861,-210,0
775,695,-6,0
654,569,38,0
806,526,-90,0
1186,594,-137,0
1229,526,-131,0
1144,353,-131,0
1124,345,-121,0
1137,348,-123,0
1080,409,-82,0
987,473,0,0
850,548,43,0
695,595,159,0
585,487,227,0
532,447,241,0
525,437,292,0
567,356,300,0
839,279,118,0
789,339,131,0
768,412,311,0
896,451,355,0
1089,398,151,0
1179,250,38,0
1167,306,99,0
1029,392,177,0
958,409,135,0
956,393,118,0
932,415,95,0
886,438,99,0
838,461,111,0
779,498,158,0
803,532,165,0
911,530,113,0
1038,517,43,0
1506,618,-8,0
1000,560,49,0
863,465,96,0
832,464,28,0
999,478,-70,0
1166,477,-85,0
1070,391,-74,0
1022,380,-67,0
1017,412,-51,0
991,467,-11,0
959,498,16,0
841,457,83,0
776,392,106,0
707,360,107,0
670,327,134,0
628,293,185,0
856,287,122,0
971,329,107,0
874,347,201,0
828,386,301,0
904,405,318,0
1027,319,233,0
1116,286,133,0
1064,313,132,0
961,356,149,0
909,399,158,0
850,435,164,0
812,440,143,0
775,461,173,0
753,486,195,0
784,472,190,0
903,488,138,0
918,499,116,0
1173,557,51,0
1321,642,-4,0
918,503,13,0
781,440,69,0
728,495,-3,0
998,518,-79,0
1205,430,-89,0
1078,296,-85,0
979,358,-34,0
958,521,38,0
973,508,74,0
888,516,98,0
828,481,158,0
749,406,151,0
725,351,154,0
718,327,214,0
660,294,227,0
919,266,70,0
1006,358,73,0
795,411,289,0
889,415,354,0
978,388,188,0
1071,213,-55,0
1108,256,-8,0
998,375,144,0
899,495,204,0
854,421,186,0
831,400,148,0
807,439,140,0
809,482,179,0
756,529,218,0
772,543,185,0
887,520,92,0
1389,502,-40,0
1252,499,-59,0
1136,497,-3,0
950,513,53,0
762,503,33,0
1022,477,-58,0
1119,455,-27,0
1009,390,62,0
947,423,65,0
949,530,119,0
894,586,123,0
816,572,161,0
727,517,162,0
641,456,132,0
579,399,135,0
569,388,144,0
596,379,127,0
850,325,24,0
996,351,14,0
940,387,71,0
960,480,229,0
1061,488,214,0
1106,350,94,0
1076,286,89,0
986,328,146,0
888,366,121,0
865,409,118,0
826,447,127,0
754,454,130,0
740,504,178,0
754,528,199,0
865,528,169,0
922,514,129,0
1079,507,79,0
1451,555,-13,0
1242,516,8,0
1030,445,49,0
734,429,55,0
862,399,-13,0
1104,381,-71,0
1055,365,-68,0
964,359,-33,0
874,419,-14,0
849,505,-4,0
817,570,15,0
795,684,127,0
706,705,146,0
603,696,222,0
540,628,206,0
522,609,176,0
498,582,212,0
521,517,163,0
760,442,-6,0
839,496,-68,0
739,535,80,0
789,521,157,0
871,532,155,0
1022,357,34,0
1063,272,22,0
1008,335,126,0
938,379,131,0
919,404,132,0
892,415,142,0
862,448,159,0
827,453,174,0
814,498,173,0
818,519,143,0
885,602,128,0
917,587,118,0
885,561,132,0
1213,594,70,0
1279,619,25,0
943,487,62,0
810,434,72,0
812,453,-30,0
1091,409,-100,0
1163,377,-92,0
1010,325,-96,0
962,322,-81,0
933,493,-105,0
1004,503,-143,0
952,792,-28,0
813,815,-41,0
509,665,134,0
364,660,121,0
373,641,63,0
404,572,182,0
498,448,226,0
693,327,58,0
684,511,169,0
793,363,313,0
898,354,277,0
950,318,221,0
1109,276,111,0
1183,337,50,0
1127,404,130,0
997,361,204,0
968,348,175,0
941,381,148,0
885,395,116,0
838,414,123,0
833,441,105,0
827,536,160,0
856,552,155,0
908,581,153,0
971,535,139,0
1401,623,93,0
1131,557,100,0
874,471,164,0
760,486,127,0
817,487,5,0
1098,432,-84,0
1157,386,-92,0
1047,347,-119,0
957,288,-115,0
923,364,-58,0
931,429,-57,0
869,480,14,0
827,468,124,0
760,433,137,0
707,398,146,0
685,365,214,0
689,354,271,0
939,340,181,0
998,371,228,0
1006,366,302,0
1028,337,264,0
996,302,162,0
1008,294,128,0
1070,360,151,0
998,368,106,0
880,362,103,0
828,367,72,0
793,391,91,0
759,404,106,0
721,448,200,0
737,470,241,0
796,481,236,0
890,482,224,0
957,457,188,0
1392,493,41,0
1225,484,26,0
986,428,99,0
725,455,147,0
702,450,50,0
999,445,-73,0
1142,429,-81,0
990,354,-54,0
874,309,-2,0
879,389,86,0
939,402,46,0
910,472,104,0
857,498,145,0
713,349,120,0
679,360,168,0
848,373,146,0
1099,389,25,0
945,430,137,0
856,500,467,0
981,488,636,0
1083,324,284,0
1033,352,65,0
914,448,33,0
794,501,37,0
743,597,1,0
670,476,-40,0
571,561,-135,0
572,650,-463,0
426,908,-540,0
419,922,-619,0
461,746,-521,0
424,643,-590,0
503,532,-623,0
648,506,-854,0
455,521,-694,0
295,419,-573,0
276,332,-733,0
473,378,-724,0
586,408,-924,0
574,615,-1042,0
447,738,-838,0
349,889,-734,0
283,826,-748,0
209,666,-692,0
248,744,-423,0
308,1013,-146,0
385,1070,189,0
344,688,399,0
210,666,193,0
-91,1094,-15,0
-337,1319,-166,0
-327,958,-243,0
5,719,-106,0
329,691,411,0
513,645,848,0
443,991,676,0
5,924,146,0
-504,300,131,0
-589,22,369,0
-330,119,654,0
-16,494,408,0
-166,911,135,0
-458,1600,126,0
-567,1222,-98,0
-615,306,-208,0
-520,402,173,0
-163,949,483,0
279,1038,626,0
247,612,382,0
10,667,-14,0
76,1121,-437,0
203,1665,-822,0
186,1364,-757,0
271,1187,-737,0
368,619,-796,0
372,870,-744,0
1191,1261,1835,0
-25,455,297,0
26,446,-345,0
216,646,-260,0
367,681,-219,0
1047,636,-378,0
1555,775,-243,0
1832,697,105,0
1480,405,2,0
1031,141,139,0
1037,-35,140,0
1031,281,-96,0
890,1032,-177,0
651,603,170,0
456,383,234,0
476,474,36,0
538,643,-70,0
518,767,-152,0
547,834,-213,0
648,888,-104,0
1005,889,-224,0
1100,927,-426,0
644,858,-259,0
686,722,-414,0
917,970,-414,0
868,949,-278,0
872,784,-185,0
768,429,-207,0
550,468,-307,0
390,551,-432,0
307,606,-439,0
272,645,-270,0
350,478,-317,0
457,274,-425,0
510,289,-322,0
682,486,-282,0
957,522,-521,0
836,756,-360,0
909,897,-236,0
994,803,-185,0
999,74,-174,0
1140,-354,113,0
1141,-216,261,0
1032,139,208,0
945,674,164,0
848,750,181,0
730,747,252,0
749,572,261,0
779,498,233,0
823,442,250,0
989,431,207,0
1051,465,157,0
1531,579,57,0
1093,580,62,0
755,405,108,0
829,370,59,0
1167,497,-58,0
1201,578,-6,0
1029,421,25,0
952,412,162,0
934,430,202,0
863,534,168,0
776,494,236,0
633,368,249,0
583,307,216,0
587,297,222,0
587,312,244,0
828,272,130,0
942,359,125,0
897,414,361,0
1023,362,322,0
1044,342,185,0
1080,244,226,0
1031,219,153,0
907,319,224,0
862,349,230,0
809,400,220,0
814,423,262,0
811,419,257,0
824,456,307,0
824,484,327,0
909,491,295,0
977,491,240,0
971,485,191,0
1574,601,93,0
1073,610,112,0
725,440,185,0
784,391,85,0
1067,495,-83,0
1086,492,-28,0
924,410,31,0
912,389,33,0
966,465,63,0
1005,513,38,0
919,613,137,0
843,625,177,0
715,553,193,0
605,449,196,0
563,433,192,0
579,409,229,0
830,359,132,0
730,445,146,0
617,451,255,0
835,453,313,0
1101,469,156,0
1112,344,46,0
960,281,41,0
966,324,33,0
908,498,96,0
795,462,196,0
789,537,282,0
783,765,495,0
826,598,565,0
1013,335,530,0
1141,442,394,0
1128,466,351,0
1626,516,123,0
1057,617,86,0
771,510,135,0
902,406,-5,0
1169,425,-112,0
977,539,57,0
924,618,104,0
1070,585,160,0
1015,400,261,0
897,760,375,0
695,516,310,0
526,509,362,0
394,530,342,0
318,484,421,0
306,476,397,0
503,509,322,0
329,633,345,0
545,1084,775,0
687,1105,809,0
625,969,784,0
451,734,586,0
193,564,528,0
34,471,448,0
-11,420,488,0
-19,514,416,0
-18,562,338,0
3,608,351,0
19,503,382,0
71,346,307,0
128,313,128,0
375,337,1,0
828,486,-176,0
1822,734,-471,0
1592,700,182,0
1032,744,778,0
923,995,894,0
1285,1140,864,0
1101,890,905,0
1073,841,828,0
977,779,682,0
906,878,594,0
951,946,606,0
803,1114,649,0
785,1209,820,0
750,1305,832,0
812,1330,759,0
760,1173,709,0
750,954,665,0
617,522,218,0
229,506,502,0
432,443,374,0
308,167,309,0
163,-74,388,0
54,-85,383,0
-15,-93,430,0
-94,-107,578,0
-141,-130,688,0
-187,-188,696,0
-221,-170,748,0
-259,-119,795,0
-274,-142,864,0
-242,-194,952,0
-176,-175,1046,0
-222,-195,1067,0
-289,-115,1139,0
-193,-167,864,0
-371,58,1098,0
-332,35,1219,0
-82,-158,984,0
-128,-110,759,0
-156,196,873,0
-125,292,985,0
-103,52,1030,0
-72,-99,1011,0
-95,-37,1044,0
-141,-21,1020,0
-184,-39,1032,0
-226,-66,988,0
-298,-147,981,0
-335,-175,967,0
-310,-176,1020,0
-452,-495,875,0
-449,-579,905,0
120,-349,1041,0
163,-343,729,0
91,-337,421,0
358,-75,8,0
527,-49,-122,0
505,-28,-107,0
625,-4,81,0
681,464,274,0
487,1347,448,0
1039,1251,854,0
1057,926,409,0
1097,1067,246,0
1141,1569,1183,0
979,1507,1434,0
1038,1645,1494,0
1323,1548,1313,0
958,1393,1035,0
594,1184,829,0
742,1093,379,0
994,1027,249,0
949,1122,251,0
758,1069,257,0
539,954,149,0
346,922,-7,0
255,978,-152,0
189,909,-99,0
295,853,96,0
296,175,602,0
329,-83,855,0
315,-479,809,0
312,-337,858,0
336,-332,742,0
298,-249,601,0
325,25,512,0
396,87,167,0
435,266,37,0
538,306,-231,0
680,574,-268,0
864,824,-307,0
1154,944,-103,0
1437,918,231,0
1469,116,134,0
1591,470,727,0
1475,-145,962,0
1488,21,757,0
1781,750,363,0
1318,1165,256,0
652,944,368,0
637,579,218,0
876,545,-7,0
1153,577,-26,0
1043,507,5,0
957,379,26,0
1002,368,2,0
1012,446,-28,0
989,450,6,0
903,345,-28,0
850,231,-83,0
829,225,-65,0
778,210,-48,0
755,228,-79,0
1000,194,-144,0
1150,506,-24,0
818,1408,1238,0
1036,1059,1288,0
1363,984,786,0
1061,925,237,0
672,897,-99,0
330,936,-411,0
26,966,-729,0
290,1146,-530,0
430,563,-35,0
344,5,-694,0
120,504,-450,0
-65,498,-416,0
-217,407,-410,0
-375,383,-421,0
-463,350,-460,0
-334,380,-802,0
-499,718,-625,0
-359,519,-663,0
-203,745,-695,0
-141,768,-802,0
-246,659,-632,0
-320,723,-424,0
-254,671,-532,0
-280,498,-526,0
-290,671,-603,0
-357,588,-659,0
-328,455,-598,0
-377,373,-465,0
-232,354,-443,0
36,584,-385,0
431,320,-620,0
991,714,-582,0
678,1687,53,0
895,803,114,0
1160,145,154,0
1219,104,536,0
852,276,760,0
738,810,762,0
701,948,575,0
700,787,545,0
760,744,624,0
754,1241,800,0
909,1204,578,0
991,1126,427,0
954,1251,122,0
941,1314,-11,0
289,927,-706,0
296,796,-707,0
513,713,-378,0
495,675,298,0
332,525,543,0
76,496,570,0
-86,390,473,0
-250,337,256,0
-371,308,44,0
-347,318,-60,0
-203,377,-138,0
42,334,-248,0
492,621,-272,0
1060,816,-327,0
1132,1352,-129,0
1123,1461,295,0
974,544,-20,0
1286,-22,7,0
1098,5,405,0
898,377,590,0
1193,1452,1661,0
835,380,1396,0
574,-82,318,0
606,58,-37,0
662,448,18,0
754,769,12,0
830,412,-45,0
885,347,13,0
1422,431,40,0
1289,584,23,0
560,488,147,0
789,361,506,0
1131,342,185,0
957,735,233,0
820,474,470,0
839,388,426,0
877,398,301,0
879,391,180,0
827,374,111,0
853,363,74,0
953,374,32,0
1003,324,-58,0
1372,250,-217,0
1140,371,-202,0
737,495,74,0
635,468,259,0
765,355,139,0
821,214,41,0
789,305,118,0
708,357,178,0
669,403,210,0
700,401,252,0
758,437,230,0
811,450,263,0
822,466,220,0
929,504,221,0
997,498,165,0
1156,543,126,0
1628,628,-17,0
858,607,-12,0
552,515,106,0
805,533,-73,0
1229,738,-144,0
1000,541,-43,0
937,443,-6,0
971,394,36,0
945,517,-34,0
895,587,54,0
776,584,10,0
731,497,-21,0
676,167,-90,0
632,309,-206,0
709,488,-263,0
976,446,-353,0
870,385,-412,0
613,618,-183,0
774,857,-243,0
915,787,-462,0
845,396,-327,0
836,-2,-46,0
850,-110,142,0
931,106,169,0
906,393,203,0
861,639,242,0
805,660,275,0
853,548,212,0
1046,575,168,0
1066,633,113,0
1075,526,143,0
1593,615,-16,0
761,588,-23,0
709,565,-56,0
1137,945,-368,0
1420,1212,-317,0
1556,978,-124,0
1725,1271,41,0
1739,1519,114,0
1513,1429,170,0
1177,1110,259,0
753,681,191,0
278,260,167,0
-70,98,117,0
-240,62,133,0
-376,-111,168,0
-548,-229,177,0
-779,-307,301,0
-614,-313,464,0
-398,-322,462,0
-385,-434,429,0
-396,-644,472,0
-462,-416,606,0
-591,-295,532,0
-626,-243,445,0
-640,-401,459,0
-703,-384,574,0
-790,-499,523,0
-950,-560,557,0
-1012,-578,723,0
-980,-537,694,0
-1002,-462,456,0
-965,-393,467,0
-814,-497,254,0
-593,-533,75,0
-631,-96,230,0
-792,-215,250,0
-799,-256,350,0
-763,53,408,0
-807,270,582,0
-800,153,631,0
-835,-79,642,0
-816,-125,591,0
-839,-66,495,0
-832,-59,408,0
-687,149,525,0
-572,111,541,0
-392,319,710,0
-317,416,1049,0
-82,450,1210,0
192,384,1228,0
264,142,1084,0
155,117,853,0
-12,231,656,0
-113,296,597,0
-89,755,663,0
0,1839,1105,0
92,1759,1483,0
-58,1558,1611,0
-307,1315,1439,0
-243,1199,961,0
-127,1133,909,0
82,667,517,0
379,783,383,0
259,692,450,0
314,585,543,0
445,365,318,0
260,264,322,0
99,158,524,0
74,217,713,0
82,107,739,0
69,67,832,0
69,86,980,0
41,88,982,0
-44,-9,1007,0
-10,-29,992,0
23,-24,1019,0
-109,-60,662,0
38,190,1289,0
201,116,1262,0
180,-34,890,0
-23,28,1012,0
-68,14,1042,0
-100,35,932,0
-94,38,783,0
-138,170,832,0
-200,139,858,0
-180,155,915,0
-138,181,1006,0
-115,105,1078,0
-142,152,1045,0
-185,206,1041,0
35,248,815,0
-110,269,1136,0
-78,197,1185,0
7,256,1003,0
152,190,831,0
23,246,1052,0
35,108,1054,0
111,115,1047,0
139,16,965,0
120,219,959,0
52,223,1028,0
67,75,988,0
134,255,1086,0
65,246,1211,0
56,-157,794,0
-107,53,1066,0
394,71,1230,0
90,63,1105,0
-25,366,1288,0
81,468,1010,0
126,550,938,0
-39,589,881,0
-62,564,571,0
108,131,512,0
-22,80,874,0
-50,239,1185,0
-17,-100,1230,0
-89,116,1168,0
18,464,855,0
-166,748,623,0
-442,542,1042,0
78,903,686,0
36,715,646,0
-32,418,846,0
53,347,871,0
79,149,851,0
76,7,882,0
71,6,943,0
0,140,1009,0
-29,147,1019,0
-102,339,1080,0
-77,317,1106,0
-6,314,1061,0
-18,238,901,0
130,31,880,0
254,536,498,0
-236,1100,564,0
-227,1335,494,0
-63,1014,346,0
-86,936,164,0
-149,1058,79,0
-194,793,57,0
-227,849,84,0
-246,950,100,0
-243,1008,232,0
-188,1031,315,0
-197,1034,243,0
-136,970,86,0
25,857,-8,0
-470,1034,254,0
-102,1002,139,0
179,898,60,0
83,993,228,0
1,974,334,0
1,923,426,0
89,933,450,0
17,1006,368,0
-32,962,372,0
-1,769,371,0
-43,826,384,0
-45,897,362,0
-51,883,407,0
84,669,292,0
457,596,-129,0
75,1189,-20,0
404,1259,406,0
751,140,862,0
879,582,1246,0
1112,403,1713,0
1045,-91,1924,0
627,-4,1976,0
518,207,1521,0
514,423,1039,0
500,408,273,0
385,200,-157,0
109,82,-335,0
329,531,-56,0
340,1152,154,0
887,520,-210,0
622,105,371,0
531,539,762,0
1253,536,873,0
1667,169,1669,0
1997,-206,1998,0
1997,-718,1956,0
1840,-1251,1403,0
1447,-1141,916,0
1142,-945,582,0
956,-974,507,0
606,-1513,130,0
321,-1352,-40,0
649,-51,-42,0
918,342,-274,0
1643,217,-688,0
1997,359,-1246,0
1872,1659,-51,0
643,1289,-665,0
566,493,-476,0
1052,730,202,0
1444,489,400,0
1123,631,908,0
1149,22,1176,0
1247,-394,1066,0
1186,49,1007,0
1105,326,959,0
1115,290,692,0
1149,333,435,0
1219,510,285,0
1556,692,217,0
831,422,100,0
737,330,-56,0
1099,420,-210,0
1160,612,-87,0
954,497,49,0
910,391,124,0
954,436,140,0
966,491,149,0
841,485,219,0
704,343,206,0
606,264,197,0
590,279,209,0
561,298,262,0
724,277,238,0
1028,305,173,0
930,336,325,0
880,345,445,0
1116,283,289,0
1236,213,118,0
1100,227,131,0
923,327,239,0
825,389,263,0
795,417,209,0
804,459,212,0
792,466,249,0
758,475,316,0
763,490,316,0
858,488,240,0
959,463,152,0
1774,532,0,0
1172,528,102,0
644,409,270,0
814,337,147,0
1097,532,-51,0
1084,551,67,0
957,419,120,0
942,409,120,0
917,521,126,0
900,555,107,0
773,515,168,0
683,430,166,0
660,384,97,0
660,400,89,0
715,405,115,0
980,395,6,0
784,435,93,0
828,462,258,0
994,381,197,0
1031,234,-30,0
1048,234,87,0
1044,317,173,0
987,392,229,0
920,355,238,0
884,392,236,0
816,416,225,0
808,443,243,0
787,472,245,0
795,444,226,0
938,399,163,0
1049,368,73,0
1580,468,50,0
1151,504,65,0
718,356,70,0
812,335,82,0
1111,532,-13,0
1177,521,29,0
1062,402,76,0
1016,270,72,0
963,182,-27,0
890,382,46,0
780,406,202,0
621,271,233,0
546,305,202,0
559,324,163,0
637,362,200,0
938,361,166,0
1202,351,-2,0
1132,260,10,0
1450,608,259,0
1197,641,167,0
912,275,199,0
963,376,242,0
834,394,62,0
693,417,57,0
643,348,45,0
714,368,123,0
758,366,96,0
703,454,177,0
689,489,288,0
843,443,277,0
1061,340,132,0
1766,442,44,0
1271,422,32,0
749,414,105,0
658,320,82,0
979,498,-55,0
1069,538,-49,0
957,400,-63,0
959,420,-53,0
1038,501,-55,0
1018,574,-43,0
913,619,43,0
881,557,60,0
836,516,34,0
822,450,51,0
753,373,91,0
724,314,103,0
898,300,58,0
725,515,120,0
600,977,145,0
743,753,-18,0
813,611,-5,0
681,716,26,0
535,688,7,0
467,694,-10,0
450,827,131,0
348,789,66,0
375,871,-22,0
422,962,62,0
424,887,85,0
420,851,23,0
404,871,-8,0
535,1088,-50,0
677,1290,-114,0
557,856,-33,0
387,746,29,0
498,1000,-29,0
648,1111,-17,0
651,886,92,0
529,689,148,0
459,691,191,0
433,664,172,0
391,606,169,0
401,572,198,0
438,478,180,0
486,410,118,0
587,407,106,0
940,305,-2,0
1393,382,9,0
1253,430,362,0
1328,53,78,0
1389,341,76,0
1128,454,292,0
901,396,401,0
829,376,360,0
846,363,208,0
858,426,142,0
847,580,187,0
749,615,229,0
765,597,271,0
927,590,187,0
1011,588,162,0
1440,602,53,0
1164,523,53,0
835,437,145,0
1024,412,31,0
1202,521,-32,0
1115,542,111,0
1135,382,86,0
1194,343,63,0
1134,339,64,0
998,386,89,0
779,371,124,0
642,286,84,0
575,264,42,0
543,269,49,0
568,280,102,0
880,306,30,0
818,387,221,0
821,435,463,0
1159,346,308,0
1309,343,127,0
1161,118,71,0
1001,188,141,0
945,343,195,0
916,439,182,0
865,505,245,0
802,514,278,0
763,523,304,0
769,474,348,0
906,404,251,0
1050,424,186,0
1511,493,107,0
1389,497,101,0
784,321,95,0
795,242,82,0
1022,427,-23,0
1092,644,28,0
886,351,102,0
824,296,96,0
874,340,24,0
926,552,19,0
916,607,66,0
825,627,166,0
730,657,143,0
600,590,135,0
506,514,135,0
485,505,167,0
776,454,67,0
719,481,70,0
624,448,196,0
1036,433,76,0
1088,273,57,0
1000,215,74,0
938,337,151,0
946,414,135,0
945,451,214,0
906,442,214,0
861,468,224,0
838,419,136,0
956,435,174,0
967,470,258,0
993,622,279,0
1125,585,253,0
1446,679,245,0
1038,355,48,0
1049,185,-28,0
1024,322,-5,0
1157,496,-8,0
1143,352,-104,0
1163,224,-144,0
1185,232,-160,0
1005,311,-140,0
841,404,-110,0
706,342,-142,0
625,477,-172,0
557,582,-134,0
515,567,-118,0
525,465,-91,0
790,258,-140,0
1001,383,-156,0
1015,681,253,0
1385,577,478,0
1183,544,634,0
940,76,746,0
984,-296,718,0
1045,-460,661,0
1061,-228,406,0
997,161,216,0
840,392,235,0
676,412,218,0
661,346,112,0
662,359,78,0
694,372,104,0
726,425,193,0
874,450,248,0
980,541,326,0
1433,385,21,0
1162,431,68,0
771,443,301,0
638,386,177,0
650,523,3,0
925,581,-34,0
1044,508,10,0
940,533,55,0
924,408,220,0
976,284,201,0
1016,433,253,0
1075,347,269,0
1038,308,248,0
950,365,258,0
862,328,215,0
835,313,189,0
786,290,199,0
768,248,130,0
964,366,-8,0
731,501,129,0
630,401,378,0
867,286,258,0
1113,317,141,0
1137,153,254,0
928,159,372,0
835,197,320,0
871,221,189,0
844,325,213,0
807,369,253,0
779,388,279,0
740,355,272,0
857,336,205,0
948,331,144,0
1196,332,66,0
1605,531,80,0
1035,486,186,0
671,362,274,0
737,421,89,0
935,624,-33,0
946,571,29,0
890,477,157,0
930,483,236,0
907,510,265,0
900,463,300,0
834,354,270,0
719,306,241,0
703,265,216,0
785,275,196,0
899,255,115,0
1228,298,-103,0
897,439,43,0
788,513,276,0
920,486,181,0
992,391,186,0
1002,81,69,0
942,127,159,0
867,248,185,0
846,379,187,0
781,434,207,0
789,439,183,0
766,454,197,0
761,451,199,0
943,480,170,0
1115,516,113,0
1810,591,-40,0
975,527,25,0
579,403,177,0
945,392,5,0
1187,643,-73,0
1039,402,-2,0
958,351,46,0
971,384,34,0
1035,406,28,0
986,427,20,0
867,483,153,0
818,438,136,0
725,368,98,0
693,327,104,0
645,302,127,0
916,300,22,0
917,349,50,0
847,388,155,0
865,415,249,0
958,399,173,0
1040,256,71,0
1037,293,105,0
941,365,207,0
870,365,207,0
848,354,214,0
844,366,197,0
815,409,231,0
758,431,304,0
780,439,306,0
938,424,271,0
1057,425,206,0
1471,489,130,0
1279,521,103,0
725,414,116,0
778,379,100,0
1031,471,-43,0
1070,467,-47,0
900,289,-4,0
811,281,3,0
842,380,-33,0
903,314,-91,0
890,303,-91,0
832,348,-103,0
778,377,-218,0
691,353,-295,0
664,358,-295,0
791,426,-365,0
1368,512,-632,0
1190,1214,-550,0
752,1442,-204,0
909,942,-305,0
979,1089,-557,0
897,1003,-683,0
774,899,-656,0
861,741,-387,0
554,297,-35,0
339,19,-249,0
166,13,-232,0
31,84,-217,0
6,251,-251,0
-76,568,-252,0
-39,830,-516,0
-48,954,-800,0
37,1194,-1054,0
-107,1026,-972,0
-245,704,-632,0
-266,583,-613,0
-72,741,-873,0
94,834,-950,0
57,772,-726,0
-3,681,-493,0
-28,668,-429,0
-107,731,-491,0
-184,728,-566,0
-221,770,-623,0
-241,661,-659,0
-178,714,-625,0
-104,575,-759,0
69,915,-436,0
248,1125,-625,0
152,1298,-335,0
213,1068,-189,0
281,909,-172,0
271,804,-206,0
173,616,-353,0
88,571,-455,0
88,696,-486,0
35,712,-410,0
-16,653,-400,0
-83,721,-474,0
-117,738,-552,0
-132,866,-681,0
-109,843,-778,0
-77,915,-839,0
42,1126,-1026,0
7,914,-821,0
-135,683,-589,0
-133,722,-651,0
22,947,-701,0
142,948,-641,0
161,960,-506,0
131,980,-363,0
77,903,-282,0
33,859,-243,0
5,780,-209,0
25,739,-185,0
65,663,-177,0
69,575,-98,0
151,546,62,0
464,495,-17,0
524,577,-72,0
624,538,229,0
993,525,228,0
1436,609,-24,0
1473,521,-59,0
1289,379,20,0
1131,383,216,0
1071,513,277,0
1056,571,331,0
926,542,286,0
829,461,271,0
762,515,305,0
893,553,263,0
921,596,168,0
1099,654,34,0
1344,759,-60,0
749,521,66,0
741,420,27,0
1181,534,-184,0
1221,669,-108,0
1115,663,-76,0
1137,367,-90,0
1228,145,117,0
1296,-21,283,0
1145,76,308,0
877,76,292,0
625,-54,293,0
483,-38,289,0
472,13,329,0
675,33,283,0
931,183,218,0
908,229,320,0
1209,333,415,0
1508,425,112,0
1249,365,-45,0
1030,250,47,0
982,320,151,0
917,394,138,0
879,431,134,0
860,443,78,0
821,470,105,0
765,496,117,0
798,541,167,0
943,521,147,0
1088,534,80,0
1463,592,7,0
1007,514,28,0
747,461,104,0
932,483,-24,0
1200,562,-116,0
1074,445,-96,0
1023,330,-60,0
1023,334,-18,0
1046,350,-2,0
1028,355,-27,0
935,396,8,0
850,354,58,0
778,302,46,0
749,281,92,0
830,233,48,0
1031,296,9,0
809,393,265,0
884,473,537,0
1071,325,295,0
1075,134,83,0
992,72,44,0
929,224,114,0
886,392,132,0
867,402,102,0
828,410,125,0
782,440,186,0
795,492,220,0
923,533,191,0
1039,595,103,0
1013,595,63,0
1560,638,-47,0
864,631,13,0
582,494,110,0
913,450,-110,0
1256,612,-191,0
1094,525,-116,0
1035,339,-100,0
1053,385,-82,0
1060,517,15,0
1126,445,101,0
979,464,152,0
885,522,234,0
761,410,208,0
640,286,228,0
578,277,301,0
749,258,208,0
780,290,174,0
716,301,223,0
874,315,202,0
1129,367,86,0
1175,340,20,0
1077,386,60,0
929,498,225,0
955,424,189,0
956,392,177,0
947,408,253,0
912,403,235,0
824,454,240,0
809,466,268,0
953,494,173,0
1017,534,127,0
1267,579,48,0
1287,676,15,0
667,511,96,0
741,403,49,0
1151,495,-108,0
1135,513,-62,0
995,342,-16,0
948,311,13,0
1004,275,-34,0
924,279,-62,0
893,289,-61,0
874,266,-49,0
906,248,-16,0
945,272,10,0
908,336,93,0
1269,363,11,0
994,502,360,0
833,450,591,0
880,117,426,0
957,-140,344,0
1032,-33,224,0
1004,270,141,0
844,421,166,0
769,401,112,0
749,360,91,0
751,340,23,0
770,413,78,0
763,433,91,0
776,456,121,0
893,464,109,0
974,487,53,0
1261,566,-26,0
1438,744,-91,0
802,608,79,0
723,513,203,0
962,627,-20,0
1171,687,-120,0
978,477,-10,0
922,427,58,0
960,466,-5,0
1015,549,-30,0
1018,592,5,0
916,583,57,0
837,543,29,0
750,500,1,0
669,420,32,0
611,368,105,0
737,326,89,0
945,393,33,0
712,408,257,0
727,334,368,0
929,271,181,0
1048,214,91,0
1015,243,133,0
972,317,168,0
977,354,113,0
979,401,119,0
1000,446,127,0
1011,483,133,0
988,458,95,0
918,561,120,0
902,545,135,0
985,580,91,0
984,531,72,0
1366,637,23,0
1097,684,57,0
746,561,132,0
963,492,-16,0
1294,566,-160,0
1189,430,-86,0
1003,276,-32,0
1004,287,-52,0
1079,338,-75,0
1064,374,-84,0
967,378,-33,0
813,356,22,0
728,312,3,0
632,265,39,0
603,327,228,0
841,310,249,0
986,305,223,0
790,271,418,0
915,253,443,0
1229,306,270,0
1171,254,149,0
980,257,143,0
915,375,181,0
861,435,142,0
868,433,144,0
842,445,138,0
828,510,151,0
760,537,224,0
809,545,208,0
949,539,139,0
1360,543,20,0
1620,727,-111,0
806,696,78,0
812,253,45,0
974,398,-162,0
1095,506,-204,0
1018,461,-140,0
965,370,-85,0
953,348,-47,0
956,409,-25,0
927,461,-36,0
866,550,76,0
794,520,74,0
703,492,128,0
647,438,176,0
593,424,196,0
666,413,159,0
843,474,91,0
777,546,110,0
878,625,174,0
801,635,223,0
814,503,218,0
899,371,150,0
825,399,137,0
740,437,202,0
726,377,199,0
698,443,196,0
738,599,206,0
760,588,172,0
800,510,183,0
774,480,188,0
851,485,156,0
944,484,105,0
1170,466,59,0
1529,609,37,0
1027,515,22,0
827,371,78,0
759,369,30,0
971,444,-55,0
975,463,-38,0
848,364,18,0
838,406,44,0
897,527,23,0
897,565,13,0
853,612,97,0
821,621,91,0
729,672,77,0
658,614,110,0
610,551,76,0
586,551,72,0
604,505,67,0
908,441,-74,0
793,582,-25,0
656,529,147,0
836,452,125,0
1034,404,-15,0
1032,256,13,0
915,264,129,0
793,373,231,0
773,375,213,0
778,345,231,0
798,396,255,0
824,443,244,0
832,478,207,0
828,535,227,0
942,491,189,0
1026,444,140,0
1023,472,142,0
1513,549,58,0
1035,519,23,0
711,415,81,0
830,444,61,0
1117,558,-46,0
1008,490,-16,0
901,412,29,0
878,462,47,0
875,470,34,0
861,464,28,0
767,482,45,0
680,415,56,0
696,365,12,0
704,400,2,0
572,415,124,0
838,343,58,0
985,467,106,0
874,487,334,0
955,412,318,0
1090,423,225,0
1092,229,96,0
954,255,174,0
860,301,188,0
837,381,147,0
787,377,142,0
742,370,140,0
731,379,133,0
770,398,118,0
808,458,158,0
930,524,160,0
992,537,103,0
1081,535,98,0
1497,605,62,0
934,549,43,0
707,382,95,0
938,489,-19,0
1196,610,-86,0
969,477,-12,0
824,468,57,0
865,513,34,0
937,543,-24,0
902,533,-13,0
786,503,24,0
683,478,17,0
635,430,-12,0
618,408,-8,0
596,394,88,0
913,337,-12,0
893,493,121,0
813,483,414,0
948,360,346,0
1135,269,161,0
1097,139,129,0
973,239,167,0
878,328,174,0
831,318,79,0
862,357,42,0
828,483,129,0
769,466,199,0
790,453,268,0
811,497,266,0
940,484,206,0
1035,466,102,0
1232,483,79,0
1528,539,-22,0
795,513,25,0
675,428,117,0
997,493,-55,0
1170,608,-121,0
969,439,13,0
932,403,98,0
967,498,30,0
978,557,45,0
890,536,92,0
766,552,149,0
690,500,124,0
631,441,106,0
583,396,126,0
607,384,139,0
919,397,18,0
749,428,150,0
791,388,294,0
952,327,167,0
1002,314,71,0
1016,253,73,0
929,324,99,0
872,396,174,0
858,408,155,0
892,468,192,0
896,495,205,0
894,488,270,0
858,451,342,0
863,475,347,0
1021,498,162,0
1308,534,114,0
1326,639,48,0
758,496,42,0
838,392,3,0
1139,419,-98,0
1115,528,-14,0
971,526,-5,0
937,548,-90,0
995,562,-144,0
974,585,-75,0
830,580,4,0
704,506,92,0
628,411,113,0
568,378,130,0
554,389,186,0
719,326,111,0
767,406,117,0
652,368,277,0
812,306,281,0
1029,321,149,0
1101,253,118,0
1034,327,106,0
1004,407,186,0
1019,428,172,0
1008,476,166,0
996,494,190,0
933,485,197,0
848,481,234,0
800,497,238,0
823,499,200,0
937,489,121,0
1568,564,-11,0
1121,565,-7,0
808,404,39,0
1083,346,-43,0
1223,553,-131,0
974,514,-46,0
890,374,49,0
917,416,32,0
976,518,-24,0
969,568,3,0
882,582,69,0
799,550,74,0
686,447,63,0
559,356,96,0
469,363,173,0
574,339,158,0
870,379,87,0
744,359,307,0
864,394,427,0
1003,535,315,0
1090,455,114,0
1136,351,127,0
1065,414,287,0
889,303,248,0
832,254,154,0
829,269,79,0
806,372,48,0
769,411,89,0
811,431,171,0
765,445,260,0
855,503,377,0
978,412,344,0
947,343,255,0
1231,397,126,0
1438,589,101,0
939,423,144,0
714,253,204,0
795,407,62,0
1155,518,-35,0
1093,485,-42,0
938,420,60,0
900,484,160,0
832,682,336,0
874,603,391,0
876,689,329,0
818,508,319,0
722,313,260,0
665,269,289,0
693,374,461,0
667,410,445,0
793,271,162,0
959,170,30,0
692,243,178,0
825,105,172,0
815,201,211,0
839,346,255,0
974,240,155,0
1004,354,302,0
989,315,234,0
947,199,227,0
978,158,188,0
956,43,72,0
978,424,265,0
911,903,397,0
758,816,465,0
752,663,430,0
960,574,247,0
1052,515,110,0
1532,613,10,0
1058,652,30,0
692,492,20,0
889,389,-132,0
1211,461,-167,0
999,352,-63,0
819,255,-4,0
864,288,71,0
915,257,-6,0
778,350,8,0
659,756,-13,0
670,859,-20,0
606,695,-54,0
581,595,-71,0
592,537,-74,0
623,513,-89,0
935,465,-168,0
1007,579,-255,0
691,719,112,0
793,581,254,0
976,391,45,0
1014,153,1,0
992,119,81,0
924,295,127,0
874,410,79,0
840,383,87,0
771,292,55,0
696,402,69,0
726,533,126,0
821,726,188,0
1031,742,80,0
1076,678,7,0
1395,538,31,0
1367,512,-30,0
752,545,28,0
694,436,6,0
1075,503,-70,0
1250,727,-34,0
1050,488,-62,0
945,297,-68,0
919,363,58,0
906,375,125,0
832,328,150,0
723,161,159,0
663,160,110,0
726,250,132,0
816,282,69,0
1127,262,-139,0
1014,484,-22,0
815,566,244,0
1046,581,326,0
1172,540,128,0
1072,209,5,0
1004,157,43,0
922,258,88,0
844,441,319,0
789,147,-18,0
845,626,-93,0
836,731,-163,0
792,831,-115,0
801,626,-45,0
928,468,-31,0
947,452,-21,0
1354,558,-102,0
1245,710,-95,0
671,510,24,0
927,395,-77,0
1327,569,-191,0
1064,587,-73,0
913,376,62,0
934,323,145,0
939,475,52,0
884,580,81,0
768,485,154,0
653,380,157,0
643,371,140,0
641,385,141,0
534,382,177,0
811,342,70,0
990,474,108,0
844,487,327,0
843,393,314,0
906,394,263,0
1071,255,129,0
992,241,133,0
915,288,289,0
892,436,373,0
866,337,341,0
859,346,319,0
783,364,331,0
794,360,273,0
818,432,264,0
838,459,232,0
907,506,186,0
970,522,133,0
1558,587,-2,0
1104,594,68,0
722,410,165,0
844,366,87,0
1183,523,-57,0
1116,511,23,0
956,371,106,0
949,398,170,0
971,470,125,0
948,517,118,0
837,480,172,0
690,389,184,0
629,381,143,0
588,314,101,0
571,338,114,0
665,358,81,0
1037,333,-78,0
921,425,0,0
963,550,208,0
1088,581,265,0
1070,422,186,0
1083,104,55,0
941,133,187,0
867,270,232,0
827,402,244,0
827,379,202,0
851,470,136,0
787,563,117,0
744,628,141,0
790,597,138,0
920,524,92,0
958,476,20,0
1227,517,-24,0
1381,609,-44,0
902,469,-24,0
768,385,65,0
798,434,17,0
1048,443,-63,0
1076,416,-53,0
966,372,-8,0
909,386,-28,0
900,465,-6,0
903,573,-66,0
851,681,-56,0
765,583,-31,0
662,509,74,0
574,439,5,0
517,452,-31,0
536,430,-70,0
832,375,-274,0
730,619,-203,0
753,706,-66,0
860,757,-58,0
880,521,-128,0
952,303,18,0
1033,154,55,0
957,318,192,0
862,408,166,0
859,471,141,0
854,434,147,0
835,452,161,0
801,470,242,0
751,493,241,0
783,502,205,0
883,460,135,0
1535,508,-4,0
1450,471,-92,0
836,460,24,0
713,461,13,0
830,572,-203,0
1030,497,-179,0
954,383,-85,0
866,423,-63,0
881,480,-23,0
880,524,32,0
841,538,67,0
812,577,119,0
783,543,124,0
723,481,87,0
676,443,82,0
685,424,95,0
977,387,-26,0
824,487,16,0
731,464,152,0
900,399,134,0
969,398,50,0
929,306,113,0
897,317,202,0
844,361,230,0
816,372,235,0
838,387,237,0
872,411,241,0
850,416,250,0
816,421,278,0
835,421,278,0
984,391,225,0
1353,422,108,0
1428,561,93,0
728,430,140,0
746,326,108,0
1056,466,-10,0
1051,504,60,0
871,354,123,0
903,390,110,0
920,468,95,0
876,495,89,0
800,570,117,0
779,682,109,0
752,622,140,0
680,499,94,0
659,507,75,0
752,486,70,0
937,463,24,0
681,420,140,0
687,357,190,0
797,289,47,0
886,352,157,0
959,387,291,0
892,346,264,0
813,393,284,0
785,410,286,0
798,389,284,0
846,405,246,0
908,422,251,0
896,434,250,0
871,453,303,0
973,415,259,0
1029,433,166,0
1343,477,128,0
1460,614,118,0
656,465,159,0
674,343,109,0
1011,480,-56,0
1095,546,-37,0
928,385,-6,0
956,351,23,0
1036,417,-8,0
1067,433,2,0
1000,438,15,0
878,438,63,0
833,398,77,0
811,341,58,0
813,319,136,0
957,261,102,0
1036,311,59,0
697,345,319,0
732,330,390,0
961,330,287,0
1042,228,174,0
979,178,113,0
913,285,187,0
868,365,183,0
869,395,141,0
864,415,147,0
817,431,162,0
785,411,205,0
800,425,237,0
835,427,232,0
899,443,197,0
1023,441,160,0
1540,569,104,0
1112,539,124,0
757,451,221,0
768,492,110,0
1005,464,-15,0
1081,389,80,0
967,281,112,0
954,230,73,0
989,281,104,0
993,301,107,0
960,359,182,0
930,337,174,0
887,322,173,0
841,297,207,0
752,250,205,0
725,257,226,0
1037,232,57,0
1117,344,23,0
885,373,144,0
826,317,228,0
895,323,152,0
928,293,88,0
909,316,134,0
834,338,187,0
792,327,172,0
787,374,197,0
798,431,235,0
828,411,255,0
859,390,262,0
866,353,266,0
916,348,264,0
1037,332,237,0
1077,366,218,0
1480,504,269,0
1142,482,228,0
688,341,210,0
907,484,147,0
1249,693,22,0
1060,597,75,0
912,471,147,0
917,616,167,0
968,676,92,0
919,639,101,0
804,575,149,0
716,500,133,0
629,438,104,0
569,390,119,0
549,357,151,0
763,325,88,0
832,357,47,0
701,400,349,0
837,352,414,0
1041,258,194,0
1087,135,161,0
1056,188,151,0
993,318,198,0
972,373,204,0
932,398,164,0
961,478,184,0
940,507,174,0
953,547,225,0
948,636,277,0
1004,690,282,0
958,523,233,0
1073,454,73,0
1423,616,-77,0
825,564,112,0
652,425,128,0
987,446,-136,0
1306,556,-199,0
1250,491,-54,0
1148,257,-24,0
1169,284,-38,0
1167,629,-6,0
1172,928,-58,0
1070,666,13,0
835,88,88,0
560,-230,185,0
487,389,201,0
467,563,128,0
700,478,-76,0
710,589,9,0
571,577,279,0
753,242,228,0
1166,38,154,0
1351,-35,121,0
1277,208,76,0
1212,511,137,0
1087,891,107,0
1018,558,178,0
956,58,306,0
933,151,393,0
859,378,447,0
863,461,421,0
1027,520,369,0
1269,611,232,0
1474,615,108,0
926,459,209,0
874,476,122,0
1146,700,-55,0
1258,508,-54,0
1151,346,-13,0
1095,292,-25,0
1150,395,-34,0
1154,368,-47,0
1042,368,-30,0
922,319,91,0
875,282,119,0
791,244,63,0
677,212,94,0
625,245,199,0
941,296,183,0
761,333,416,0
743,247,599,0
1042,152,408,0
1217,89,242,0
1072,89,154,0
1006,263,182,0
1004,456,229,0
958,438,126,0
917,457,150,0
901,492,129,0
838,579,174,0
832,584,238,0
958,597,158,0
974,578,129,0
1462,677,-7,0
1129,659,43,0
653,494,210,0
881,517,10,0
1279,620,-151,0
1114,554,41,0
1043,251,-18,0
1128,571,19,0
1200,416,-44,0
1133,265,20,0
958,245,126,0
759,290,247,0
733,293,162,0
593,291,188,0
579,213,333,0
667,247,270,0
834,35,188,0
983,331,249,0
938,535,216,0
1083,379,374,0
1238,283,378,0
1077,-21,337,0
1100,363,259,0
966,505,138,0
777,384,339,0
849,454,281,0
798,402,283,0
805,555,233,0
643,493,441,0
826,456,367,0
963,573,331,0
1458,678,131,0
1166,637,85,0
632,453,242,0
924,399,117,0
1126,477,106,0
1047,491,0,0
1016,556,-46,0
930,527,165,0
1026,303,129,0
1003,648,338,0
973,652,-55,0
723,521,193,0
559,982,179,0
387,1082,-59,0
367,1118,79,0
434,817,-205,0
372,789,199,0
320,731,241,0
440,884,502,0
589,720,263,0
561,529,217,0
358,396,405,0
272,384,142,0
248,703,337,0
253,842,91,0
234,820,-151,0
180,964,74,0
162,861,-238,0
182,1128,16,0
131,1187,-352,0
86,1074,-151,0
126,1209,-167,0
139,1169,-373,0
322,1369,-255,0
224,1130,-385,0
76,786,-213,0
164,986,-216,0
277,910,-430,0
394,1349,-124,0
364,1191,-255,0
256,1016,-10,0
146,941,69,0
28,767,68,0
-29,618,176,0
35,696,125,0
65,493,20,0
59,362,115,0
384,496,144,0
547,70,67,0
876,724,589,0
1292,880,297,0
1407,298,147,0
1468,261,248,0
1262,384,249,0
1047,561,385,0
1075,265,148,0
1040,252,85,0
970,388,242,0
846,558,377,0
831,507,438,0
847,520,360,0
1027,587,253,0
1028,551,216,0
1471,567,108,0
1116,557,155,0
763,423,224,0
940,364,57,0
1296,553,-40,0
1205,548,122,0
1174,332,117,0
1151,428,156,0
1024,359,162,0
805,234,190,0
652,202,181,0
547,213,187,0
508,165,199,0
497,170,218,0
605,173,269,0
1009,188,165,0
1109,265,285,0
1085,276,541,0
1403,198,318,0
1450,226,110,0
1132,152,76,0
974,217,129,0
919,359,145,0
847,432,115,0
803,485,162,0
757,495,159,0
734,527,220,0
763,491,269,0
923,504,242,0
1026,510,186,0
1067,520,152,0
1566,677,84,0
932,538,109,0
727,377,125,0
1004,379,-58,0
1305,607,-105,0
1120,489,-32,0
1003,346,-18,0
1090,403,-21,0
1170,479,-22,0
1153,612,37,0
998,574,105,0
809,432,162,0
638,305,165,0
509,252,156,0
510,230,188,0
751,243,115,0
679,310,251,0
740,303,411,0
920,237,305,0
1129,200,211,0
1245,144,86,0
1191,277,82,0
1117,416,195,0
1081,460,147,0
1027,489,149,0
991,466,129,0
919,485,162,0
859,555,214,0
867,630,206,0
959,648,168,0
994,629,125,0
1652,725,-35,0
904,612,68,0
636,428,136,0
1051,460,-97,0
1344,626,-135,0
1172,438,-64,0
1147,347,-73,0
1220,393,-40,0
1254,482,7,0
1151,607,36,0
953,544,129,0
773,423,141,0
635,322,142,0
523,243,171,0
473,235,189,0
642,278,159,0
620,363,372,0
793,411,547,0
1032,306,473,0
1179,7,313,0
1229,-133,84,0
1202,115,9,0
1057,464,157,0
1017,497,99,0
995,479,2,0
995,492,23,0
972,485,57,0
945,572,129,0
902,622,177,0
969,644,144,0
1000,594,162,0
1526,742,59,0
1108,701,125,0
681,477,229,0
880,423,49,0
1274,560,-61,0
1248,448,18,0
1137,256,-21,0
1136,302,-41,0
1181,390,-30,0
1194,365,-31,0
1065,343,26,0
924,332,77,0
809,270,91,0
707,213,111,0
673,214,155,0
812,181,116,0
948,256,69,0
836,352,123,0
858,550,87,0
1065,634,54,0
980,448,-74,0
881,471,-9,0
801,561,7,0
1095,1127,1198,0
548,1148,443,0
437,748,-190,0
534,461,173,0
571,323,66,0
670,369,-126,0
985,744,-171,0
1115,720,67,0
1499,734,122,0
1070,821,-51,0
735,425,-35,0
691,429,71,0
809,628,42,0
830,688,50,0
798,586,110,0
796,675,96,0
789,790,96,0
728,792,121,0
623,774,179,0
545,660,195,0
519,586,195,0
491,543,163,0
464,469,193,0
521,429,203,0
789,416,79,0
679,472,149,0
731,403,342,0
970,355,321,0
1102,294,156,0
1102,192,76,0
1025,259,135,0
996,362,151,0
952,386,118,0
924,408,142,0
909,442,133,0
880,499,201,0
882,512,241,0
918,533,230,0
1011,568,186,0
1082,582,142,0
1533,674,26,0
804,573,145,0
838,487,145,0
1197,554,-62,0
1130,608,-62,0
977,457,15,0
995,383,-7,0
1108,425,-56,0
1179,464,-52,0
1099,496,-6,0
951,509,43,0
841,463,104,0
726,368,81,0
624,302,120,0
620,275,178,0
785,304,121,0
600,320,305,0
662,315,430,0
845,293,386,0
1050,221,307,0
1208,120,184,0
1219,248,178,0
1076,351,256,0
966,365,191,0
901,394,188,0
887,411,177,0
836,427,180,0
802,464,235,0
808,465,275,0
881,467,246,0
999,482,192,0
1107,524,150,0
1481,696,135,0
782,557,169,0
774,400,113,0
1278,503,-64,0
1197,599,-42,0
960,392,21,0
929,357,47,0
1076,428,-1,0
1174,402,21,0
1098,388,30,0
907,433,125,0
809,385,123,0
696,314,134,0
627,273,163,0
574,271,195,0
930,300,98,0
862,355,244,0
850,364,417,0
981,317,406,0
1113,241,261,0
1152,92,135,0
1101,185,124,0
986,294,130,0
915,368,115,0
865,417,113,0
826,468,146,0
817,403,175,0
849,440,210,0
805,463,240,0
881,516,195,0
966,502,126,0
1262,590,44,0
1378,692,18,0
709,574,129,0
727,589,120,0
1040,609,-79,0
1179,542,-81,0
1078,484,11,0
1081,503,44,0
1168,553,58,0
1177,643,59,0
1129,659,197,0
940,562,280,0
781,443,329,0
576,310,216,0
415,266,226,0
340,292,265,0
440,299,200,0
657,313,80,0
644,345,196,0
789,400,307,0
1118,400,164,0
1321,289,113,0
1222,151,24,0
1168,358,151,0
1139,499,205,0
1074,574,187,0
1000,648,207,0
937,680,185,0
844,631,174,0
767,590,193,0
890,620,122,0
1027,597,43,0
1567,617,-127,0
1087,596,-38,0
892,493,28,0
896,462,-84,0
1123,492,-179,0
1121,420,-149,0
1029,321,-113,0
1036,323,-29,0
1025,309,-62,0
976,330,-45,0
880,314,14,0
782,302,24,0
739,341,90,0
746,350,160,0
1043,262,36,0
1093,332,63,0
824,421,478,0
819,379,548,0
934,219,324,0
1022,31,148,0
1032,146,149,0
949,333,212,0
887,401,200,0
824,377,183,0
802,397,144,0
789,417,133,0
787,419,141,0
778,442,163,0
830,455,179,0
897,447,137,0
1055,457,78,0
1578,575,2,0
962,585,93,0
747,453,223,0
755,484,103,0
1002,562,-36,0
1127,469,-20,0
1062,369,22,0
1048,295,26,0
1077,385,54,0
1082,438,37,0
992,462,34,0
902,403,100,0
845,344,92,0
818,340,104,0
824,293,145,0
802,301,121,0
612,359,353,0
746,370,430,0
934,304,287,0
1036,105,98,0
1087,225,113,0
993,337,154,0
905,377,114,0
906,383,106,0
901,461,108,0
863,461,135,0
838,459,192,0
809,479,222,0
807,475,226,0
876,476,189,0
915,471,133,0
1111,499,84,0
1428,614,40,0
864,508,67,0
741,419,81,0
867,469,-52,0
1170,467,-105,0
1167,402,-71,0
1111,335,-89,0
1085,274,-85,0
1020,295,-47,0
1005,381,13,0
959,432,10,0
874,439,83,0
769,392,130,0
693,347,134,0
649,337,190,0
594,319,237,0
805,267,143,0
993,345,157,0
921,344,230,0
1046,393,232,0
1067,459,207,0
1081,403,142,0
1091,398,145,0
1020,323,188,0
915,306,150,0
868,362,94,0
835,396,90,0
765,397,125,0
693,411,172,0
773,442,255,0
800,388,267,0
811,318,231,0
893,303,200,0
1082,311,135,0
1422,458,98,0
939,391,55,0
849,372,99,0
730,487,116,0
756,464,7,0
1019,425,-50,0
1099,404,-58,0
1031,318,-80,0
996,314,-55,0
991,373,-19,0
1018,498,-28,0
1073,644,-21,0
1062,414,43,0
942,168,128,0
813,184,212,0
745,240,301,0
852,161,239,0
1054,145,224,0
792,129,397,0
744,154,379,0
828,297,352,0
909,293,228,0
1000,274,141,0
1102,356,187,0
985,361,159,0
867,322,161,0
843,347,137,0
823,384,133,0
761,393,181,0
753,398,226,0
719,387,239,0
749,380,230,0
844,392,210,0
939,388,166,0
1384,443,103,0
1308,476,74,0
1084,402,55,0
856,460,100,0
705,465,81,0
831,390,23,0
1004,426,-13,0
986,421,-37,0
936,392,-51,0
871,469,-57,0
861,617,-27,0
888,673,25,0
881,776,106,0
832,741,141,0
750,682,230,0
688,600,319,0
629,545,330,0
566,450,318,0
649,376,260,0
808,553,255,0
667,571,304,0
707,773,188,0
624,927,23,0
324,924,-104,0
165,885,-252,0
254,828,-226,0
452,729,-204,0
574,696,-197,0
637,826,-97,0
732,666,-70,0
799,639,-23,0
834,804,-22,0
876,736,15,0
996,256,313,0
945,291,436,0
798,679,143,0
729,795,-144,0
705,875,-128,0
694,663,-68,0
891,635,1,0
774,705,-122,0
645,819,-191,0
387,817,-279,0
351,713,-360,0
488,907,-363,0
604,969,-264,0
604,763,-85,0
515,717,-92,0
492,688,-120,0
534,724,-33,0
577,706,42,0
570,672,22,0
513,605,-81,0
518,824,-79,0
557,1045,36,0
587,993,56,0
683,970,25,0
763,1178,-111,0
656,1102,-75,0
497,811,-6,0
476,753,-42,0
445,725,-81,0
390,621,-128,0
336,741,-209,0
272,781,-238,0
275,708,-328,0
264,794,-407,0
255,808,-472,0
260,773,-526,0
272,707,-589,0
303,628,-702,0
290,652,-801,0
266,568,-893,0
227,605,-880,0
203,580,-727,0
200,548,-799,0
181,502,-759,0
186,378,-632,0
200,362,-726,0
147,455,-917,0
134,449,-902,0
66,584,-842,0
34,645,-1035,0
6,513,-965,0
-53,390,-909,0
-158,391,-1016,0
-191,308,-993,0
-193,288,-876,0
-195,172,-766,0
-236,214,-658,0
-256,177,-895,0
-234,62,-962,0
-271,248,-892,0
-289,261,-938,0
-347,346,-869,0
-345,302,-880,0
-307,261,-888,0
-325,330,-816,0
-317,409,-914,0
-349,457,-796,0
-377,563,-802,0
-400,403,-808,0
-379,516,-731,0
-378,489,-788,0
-352,575,-734,0
-363,673,-725,0
-369,601,-769,0
-373,581,-767,0
-371,610,-685,0
-363,589,-633,0
-369,566,-582,0
-335,610,-606,0
-323,634,-624,0
-315,614,-607,0
-324,624,-555,0
-334,624,-600,0
-378,626,-544,0
-401,646,-546,0
-402,675,-593,0
-418,697,-548,0
-413,701,-569,0
-400,685,-565,0
-400,694,-554,0
-389,714,-576,0
-374,693,-530,0
-320,695,-481,0
-230,709,-345,0
-151,432,-398,0
-169,308,-513,0
-79,941,-835,0
-177,957,-772,0
-239,845,-737,0
-231,786,-624,0
-208,793,-457,0
-154,849,-336,0
-58,945,-263,0
-2,988,-168,0
71,1057,-231,0
98,1000,-235,0
48,990,-198,0
17,961,-233,0
5,924,-237,0
31,873,-275,0
51,932,-327,0
95,933,-338,0
114,859,-329,0
120,947,-422,0
117,1009,-444,0
94,913,-505,0
53,889,-429,0
79,907,-421,0
81,911,-387,0
95,932,-360,0
123,907,-382,0
132,918,-381,0
140,892,-371,0
164,866,-331,0
161,920,-277,0
157,889,-258,0
145,874,-284,0
136,911,-251,0
143,918,-230,0
144,926,-254,0
144,903,-219,0
155,968,-274,0
143,803,-267,0
173,835,-277,0
177,859,-266,0
175,781,-299,0
193,776,-336,0
157,890,-309,0
260,739,-225,0
311,892,-56,0
387,817,-105,0
431,666,-77,0
509,591,-9,0
616,534,66,0
765,614,18,0
880,664,-50,0
984,618,-49,0
1084,606,4,0
1128,536,17,0
1095,438,-26,0
1033,492,20,0
967,503,53,0
934,512,39,0
917,491,34,0
893,453,12,0
878,446,-7,0
863,447,-9,0
881,441,-17,0
907,417,-22,0
930,393,-25,0
938,383,-28,0
940,367,-22,0
945,348,-16,0
944,341,2,0
942,332,44,0
971,327,148,0
946,271,105,0
914,278,146,0
871,272,173,0
832,312,176,0
816,320,154,0
841,327,118,0
884,346,69,0
938,430,27,0
937,432,9,0
921,427,-1,0
909,435,2,0
902,440,-8,0
889,438,-14,0
891,434,-9,0
904,441,2,0
895,415,2,0
893,398,7,0
909,399,14,0
919,389,14,0
922,381,13,0
917,372,14,0
915,354,14,0
917,341,17,0
917,326,18,0
915,320,25,0
912,307,22,0
903,299,31,0
901,310,44,0
904,320,51,0
906,322,58,0
903,324,71,0
908,345,76,0
914,359,78,0
927,362,72,0
933,358,59,0
917,349,39,0
917,356,21,0
880,349,26,0
926,336,-5,0
941,372,-1,0
889,373,12,0
874,364,20,0
896,350,19,0
910,355,23,0
909,369,29,0
919,385,33,0
919,386,40,0
903,386,39,0
888,377,42,0
889,366,46,0
924,365,47,0
942,355,48,0
933,332,32,0
905,323,19,0
894,320,0,0
889,326,-10,0
881,333,-9,0
874,319,-4,0
870,313,5,0
890,329,22,0
918,339,45,0
931,354,80,0
926,381,119,0
912,410,87,0
901,448,63,0
901,399,57,0
903,385,48,0
889,396,35,0
887,388,13,0
915,396,4,0
920,397,0,0
908,394,-15,0
893,393,-23,0
886,381,-28,0
896,372,-37,0
903,368,-34,0
897,357,-32,0
900,352,-26,0
908,349,-19,0
916,347,-11,0
932,353,2,0
933,354,20,0
928,313,31,0
925,284,57,0
922,287,83,0
916,287,109,0
916,299,129,0
925,338,113,0
931,358,84,0
924,366,67,0
922,348,60,0
929,338,39,0
921,347,17,0
906,347,8,0
893,354,8,0
891,345,6,0
897,332,10,0
893,345,27,0
902,382,43,0
893,382,74,0
901,370,85,0
914,382,98,0
912,380,113,0
907,368,109,0
901,379,104,0
897,372,90,0
897,370,80,0
906,381,68,0
909,385,65,0
900,384,80,0
896,373,81,0
895,365,83,0
891,357,86,0
890,351,84,0
892,351,90,0
892,343,106,0
899,339,118,0
901,339,129,0
892,338,135,0
895,346,133,0
895,355,133,0
888,364,135,0
886,392,142,0
892,408,141,0
870,575,192,0
911,520,315,0
943,668,384,0
970,563,514,0
965,516,543,0
991,436,565,0
936,240,620,0
905,135,685,0
822,72,761,0
723,4,738,0
663,-56,727,0
595,-109,672,0
560,-155,650,0
471,-192,583,0
405,-237,603,0
338,-259,611,0
300,-281,639,0
283,-301,691,0
281,-317,729,0
269,-313,786,0
248,-260,765,0
239,-273,781,0
282,-204,783,0
265,-135,665,0
403,-116,733,0
673,-8,805,0
802,12,783,0
925,117,920,0
822,215,1129,0
678,368,1065,0
740,273,1034,0
744,230,1042,0
646,207,896,0
607,215,830,0
570,220,784,0
530,268,719,0
513,228,696,0
507,201,670,0
497,226,627,0
480,194,596,0
510,199,577,0
560,214,578,0
814,172,384,0
992,220,346,0
836,273,448,0
928,334,352,0
969,348,245,0
1082,307,246,0
1068,324,202,0
1044,403,294,0
1011,351,233,0
969,331,206,0
950,375,256,0
896,392,265,0
877,391,292,0
863,358,270,0
830,381,280,0
840,383,290,0
862,355,238,0
888,309,183,0
1235,305,123,0
1275,340,100,0
1111,180,-24,0
885,88,75,0
799,249,109,0
979,176,51,0
1103,112,-6,0
1063,343,79,0
1025,579,189,0
1105,606,151,0
1100,-78,343,0
1079,-174,649,0
1168,136,622,0
1069,-79,445,0
841,160,252,0
624,457,-119,0
383,543,-445,0
307,625,-599,0
262,543,-495,0
296,341,-558,0
269,275,-601,0
214,451,-677,0
218,480,-854,0
226,462,-920,0
225,481,-894,0
294,495,-937,0
348,502,-917,0
336,487,-851,0
290,438,-817,0
290,464,-759,0
291,448,-789,0
217,494,-750,0
177,447,-768,0
152,393,-814,0
118,421,-805,0
124,400,-833,0
135,384,-852,0
123,373,-833,0
193,347,-829,0
341,285,-898,0
478,233,-912,0
454,239,-924,0
310,292,-772,0
354,268,-771,0
499,246,-875,0
516,237,-883,0
468,299,-824,0
433,286,-776,0
410,213,-807,0
437,190,-807,0
