AccX [mg],AccY,AccZ,Ground Truth
752,485,174,0
711,486,207,0
705,465,222,0
802,488,242,0
894,501,226,0
871,490,216,0
795,475,211,0
1012,499,184,0
1318,529,124,0
1177,450,40,0
1005,434,86,0
821,482,59,0
686,436,13,0
729,387,1,0
959,480,-19,0
1065,572,-63,0
1019,466,-86,0
969,363,-97,0
937,455,-26,0
903,573,-5,0
853,668,66,0
767,707,134,0
668,713,232,0
509,654,273,0
401,572,288,0
392,582,315,0
463,580,315,0
636,577,221,0
702,592,180,0
676,493,209,0
844,430,176,0
959,453,139,0
992,426,85,0
1020,467,76,0
1067,539,68,0
976,472,60,0
867,407,97,0
839,371,190,0
906,261,211,0
791,191,-4,0
673,500,-37,0
696,772,79,0
753,783,-11,0
772,701,-141,0
830,542,-191,0
803,609,-175,0
904,649,-153,0
1127,518,-171,0
1236,489,-174,0
1152,549,-103,0
838,459,-80,0
721,424,-99,0
891,455,-143,0
999,432,-173,0
920,426,-152,0
819,406,-228,0
818,545,-286,0
831,588,-290,0
789,464,-298,0
730,419,-294,0
694,448,-312,0
639,416,-331,0
578,449,-280,0
621,530,-220,0
911,647,-258,0
919,733,-313,0
643,638,-38,0
772,557,116,0
967,444,11,0
981,219,40,0
977,260,185,0
1016,447,169,0
924,494,92,0
812,461,81,0
756,421,84,0
768,415,90,0
745,460,128,0
719,481,190,0
686,508,235,0
721,508,272,0
862,445,219,0
935,401,141,0
1005,429,135,0
1122,520,118,0
1124,534,25,0
1138,483,35,0
917,507,102,0
692,462,113,0
789,440,49,0
974,487,5,0
948,455,-9,0
822,358,8,0
792,363,40,0
818,410,26,0
841,366,14,0
802,335,29,0
800,350,23,0
892,401,30,0
1057,423,66,0
1321,446,-6,0
1074,484,86,0
820,445,270,0
813,378,208,0
825,314,101,0
842,361,129,0
886,427,167,0
777,379,159,0
719,332,131,0
744,368,78,0
789,399,66,0
791,435,111,0
765,442,137,0
777,459,154,0
839,455,173,0
922,440,178,0
935,363,116,0
944,317,84,0
1118,361,29,0
1241,507,-40,0
1086,564,-38,0
770,477,86,0
719,436,184,0
886,390,96,0
1041,301,2,0
976,236,19,0
858,154,68,0
849,69,40,0
910,58,-92,0
942,130,-144,0
908,234,-160,0
885,345,-156,0
857,622,-208,0
660,1069,-477,0
874,629,-680,0
1093,52,-432,0
1130,-13,-220,0
1208,363,-223,0
1082,383,-78,0
995,9,22,0
1062,-140,-18,0
978,-223,-229,0
955,44,-294,0
1060,-1,-210,0
1008,-62,-168,0
917,104,-156,0
949,167,-76,0
922,168,-66,0
854,217,-70,0
830,323,-49,0
819,370,4,0
852,355,12,0
913,391,-1,0
959,381,-43,0
966,372,-27,0
1132,436,-23,0
1217,549,-85,0
970,378,-172,0
732,372,-73,0
690,488,-83,0
899,616,-209,0
1060,629,-258,0
1045,528,-266,0
1006,429,-221,0
987,455,-165,0
977,479,-167,0
943,416,-159,0
865,399,-122,0
765,438,-157,0
637,411,-164,0
513,365,-46,0
454,386,50,0
517,471,222,0
830,557,288,0
1168,559,224,0
1164,513,369,0
1089,422,470,0
1171,327,342,0
1155,270,190,0
1053,309,137,0
904,444,100,0
790,472,21,0
716,427,-37,0
673,418,-133,0
657,432,-137,0
735,519,-82,0
774,527,53,0
786,595,236,0
845,582,440,0
956,460,372,0
999,422,324,0
1203,553,359,0
1211,470,212,0
942,385,15,0
787,503,43,0
714,598,-8,0
900,524,-93,0
1022,486,-202,0
916,433,-186,0
731,327,-247,0
775,429,-208,0
799,568,-244,0
828,601,-222,0
849,567,-181,0
803,519,-159,0
764,533,-126,0
743,563,-85,0
738,587,35,0
998,581,51,0
959,671,144,0
666,374,132,0
714,273,207,0
954,402,153,0
973,466,86,0
940,537,159,0
842,513,100,0
795,396,28,0
819,386,43,0
811,453,60,0
783,501,97,0
765,496,107,0
849,498,216,0
917,361,239,0
830,429,239,0
795,559,200,0
1117,659,82,0
1242,686,40,0
957,475,8,0
826,494,-19,0
833,528,-16,0
905,476,-75,0
1123,523,-157,0
1124,505,-142,0
927,357,-77,0
862,361,-43,0
932,475,-7,0
863,535,40,0
733,600,114,0
654,667,141,0
582,639,159,0
555,663,279,0
547,696,459,0
522,567,444,0
586,612,406,0
785,597,298,0
793,523,293,0
696,547,410,0
648,470,355,0
678,350,228,0
780,350,147,0
770,414,149,0
749,445,181,0
770,415,151,0
864,426,119,0
948,506,142,0
981,610,203,0
993,627,192,0
912,640,224,0
904,656,266,0
939,624,227,0
1148,640,165,0
1217,711,151,0
806,597,186,0
735,555,153,0
837,624,35,0
988,650,-6,0
1075,581,-108,0
942,554,12,0
939,723,-4,0
1047,597,-94,0
1001,583,-7,0
866,464,71,0
726,451,155,0
632,453,236,0
616,442,278,0
671,530,297,0
877,473,216,0
1077,630,32,0
928,1056,245,0
902,834,231,0
818,508,126,0
663,361,102,0
463,383,130,0
422,430,86,0
508,435,1,0
558,563,-20,0
615,835,-62,0
675,839,-123,0
854,724,-68,0
802,747,-105,0
805,539,-94,0
1035,530,-132,0
1103,722,-90,0
852,518,93,0
845,740,170,0
1119,735,-75,0
994,674,-139,0
648,650,-12,0
570,584,89,0
675,645,-82,0
788,714,-163,0
785,708,-147,0
800,720,-206,0
743,780,-211,0
647,764,-226,0
624,742,-185,0
671,708,-159,0
764,690,-156,0
967,610,-53,0
1197,557,-83,0
1111,652,12,0
885,568,227,0
797,484,244,0
829,350,130,0
900,162,55,0
840,143,42,0
664,216,17,0
555,300,18,0
560,351,5,0
676,427,-42,0
835,471,-26,0
931,498,40,0
973,540,117,0
1073,531,158,0
1055,438,129,0
1192,498,169,0
1216,682,215,0
1015,632,125,0
882,460,81,0
794,473,62,0
895,567,34,0
999,608,11,0
926,546,-56,0
838,559,-82,0
866,566,-128,0
940,571,-161,0
934,636,-135,0
912,673,-132,0
839,701,-166,0
729,717,-116,0
585,646,-27,0
434,644,51,0
491,641,161,0
672,605,245,0
748,498,363,0
699,387,566,0
753,326,690,0
896,89,509,0
962,85,386,0
947,249,275,0
903,410,175,0
859,464,67,0
871,494,-51,0
909,505,-127,0
929,485,-142,0
905,449,-90,0
906,392,-56,0
955,453,-26,0
994,579,72,0
948,550,70,0
1122,537,119,0
1314,745,160,0
1035,644,217,0
663,472,285,0
682,573,259,0
957,568,195,0
1115,523,147,0
1044,496,104,0
1006,517,107,0
1052,512,109,0
1132,437,112,0
1149,545,137,0
1068,586,179,0
923,453,195,0
770,381,187,0
646,340,159,0
594,333,203,0
590,334,222,0
766,377,162,0
898,411,201,0
775,385,296,0
891,500,349,0
1149,478,275,0
1123,437,172,0
971,500,142,0
894,561,114,0
841,471,62,0
836,440,48,0
826,456,70,0
805,493,70,0
767,538,154,0
727,534,237,0
783,563,327,0
943,525,295,0
1008,510,236,0
1141,597,240,0
1128,576,185,0
977,491,120,0
965,515,95,0
985,504,33,0
1048,511,12,0
1059,419,-1,0
1053,521,-10,0
984,453,-99,0
1089,678,-59,0
1127,808,-69,0
1116,632,50,0
884,287,214,0
703,204,402,0
521,249,466,0
437,146,503,0
436,104,503,0
522,46,455,0
703,57,341,0
720,147,362,0
730,139,356,0
919,369,320,0
1041,387,319,0
1142,338,206,0
1159,592,226,0
1050,456,304,0
948,377,274,0
929,415,241,0
929,351,232,0
915,344,194,0
870,381,230,0
806,419,264,0
868,553,334,0
928,613,388,0
1157,595,309,0
1336,570,290,0
1110,473,229,0
930,450,205,0
901,504,130,0
979,501,50,0
1054,469,29,0
1060,454,23,0
997,537,17,0
990,522,-52,0
976,587,-73,0
923,596,-51,0
843,564,-33,0
755,566,-15,0
713,477,-22,0
627,430,-15,0
588,430,70,0
722,402,124,0
834,420,217,0
775,400,441,0
865,275,474,0
1014,87,385,0
1045,1,325,0
1018,170,185,0
982,390,146,0
902,452,77,0
895,502,51,0
910,509,79,0
955,537,120,0
948,484,162,0
929,498,153,0
916,659,249,0
936,678,319,0
938,561,265,0
1052,541,255,0
1328,669,241,0
1121,553,175,0
852,429,123,0
952,452,41,0
1233,488,-30,0
1367,455,-100,0
1298,401,-151,0
1169,401,-155,0
1113,431,-140,0
1102,449,-154,0
1054,424,-136,0
937,389,-77,0
790,430,-15,0
667,394,30,0
542,319,134,0
507,292,245,0
493,288,364,0
594,370,467,0
825,270,486,0
885,232,531,0
902,178,583,0
1135,236,469,0
1149,301,297,0
1197,351,177,0
1148,502,114,0
1029,548,63,0
921,571,45,0
897,519,40,0
884,455,47,0
820,492,27,0
734,505,44,0
723,532,81,0
772,551,146,0
891,548,209,0
1013,475,210,0
1278,556,214,0
1095,542,272,0
909,470,246,0
853,468,180,0
832,447,81,0
940,535,67,0
1022,526,31,0
974,463,14,0
916,534,56,0
928,576,24,0
922,641,34,0
864,602,55,0
763,615,84,0
697,581,93,0
633,561,100,0
587,510,96,0
544,509,154,0
625,433,176,0
872,477,164,0
866,354,238,0
772,499,333,0
913,485,321,0
1005,380,200,0
1019,368,158,0
979,434,173,0
885,437,129,0
825,416,50,0
829,414,77,0
814,385,98,0
791,432,122,0
734,426,163,0
740,469,208,0
857,539,219,0
925,480,182,0
1307,615,156,0
1369,765,133,0
930,552,139,0
763,516,154,0
777,445,106,0
946,478,90,0
1057,464,25,0
965,352,102,0
911,463,109,0
939,467,98,0
946,473,94,0
895,481,119,0
842,444,112,0
808,427,95,0
777,409,92,0
780,389,107,0
897,444,175,0
1005,435,212,0
880,399,267,0
772,417,363,0
818,360,327,0
924,370,213,0
952,415,229,0
865,445,240,0
764,442,216,0
744,401,195,0
767,401,194,0
762,428,200,0
729,452,214,0
716,486,256,0
783,515,280,0
935,497,219,0
947,496,169,0
1228,659,204,0
1233,627,122,0
901,471,86,0
814,476,86,0
898,492,47,0
1048,500,12,0
1053,477,-1,0
897,380,23,0
892,453,49,0
908,439,31,0
866,470,64,0
789,424,93,0
740,461,82,0
695,421,92,0
660,435,115,0
598,499,167,0
764,521,134,0
904,502,117,0
891,598,260,0
848,488,270,0
976,369,196,0
1021,356,221,0
1026,343,220,0
946,399,240,0
830,361,210,0
761,326,137,0
766,342,114,0
850,193,129,0
792,-66,70,0
799,103,131,0
952,212,63,0
1014,260,-95,0
988,444,-146,0
916,506,-71,0
1217,676,-62,0
1256,648,-35,0
982,610,94,0
848,611,265,0
828,531,278,0
998,465,305,0
1071,424,232,0
993,363,170,0
935,368,124,0
909,494,62,0
936,538,-15,0
942,537,-77,0
917,630,-154,0
852,721,-196,0
780,714,-240,0
660,659,-247,0
552,593,-203,0
651,573,-213,0
777,554,-196,0
540,512,-39,0
499,563,103,0
631,559,173,0
789,498,212,0
985,386,223,0
1031,317,247,0
922,409,402,0
831,513,461,0
824,491,343,0
842,478,278,0
867,522,221,0
818,569,123,0
757,553,20,0
824,517,-68,0
943,527,-202,0
886,424,-286,0
988,404,-256,0
1145,403,-363,0
978,470,-366,0
758,478,-401,0
641,301,-568,0
572,146,-583,0
814,253,-974,0
1038,6,-1121,0
813,-29,-932,0
427,93,-649,0
201,251,-448,0
210,470,-487,0
254,495,-594,0
267,410,-920,0
153,630,-1008,0
130,589,-954,0
118,607,-825,0
203,553,-646,0
373,380,-469,0
615,283,-383,0
968,272,-407,0
1307,193,-490,0
1389,161,-516,0
1062,204,-476,0
882,188,-556,0
839,239,-337,0
904,238,-344,0
947,384,-380,0
988,394,-345,0
1032,396,-383,0
1004,367,-464,0
890,145,-566,0
655,-87,-682,0
547,-56,-693,0
617,96,-617,0
678,206,-502,0
789,332,-462,0
859,469,-453,0
878,571,-395,0
1120,636,-350,0
1276,665,-442,0
936,556,-362,0
816,558,-159,0
910,446,-218,0
1033,349,-294,0
1001,317,-318,0
891,313,-298,0
812,233,-290,0
790,208,-305,0
814,229,-346,0
817,199,-372,0
797,230,-336,0
824,406,-322,0
817,426,-330,0
768,455,-282,0
721,493,-228,0
943,513,-212,0
1111,642,-287,0
897,636,-265,0
736,602,-84,0
794,568,-66,0
864,351,-83,0
933,246,44,0
901,224,81,0
806,326,13,0
789,392,-14,0
772,420,-16,0
745,421,31,0
678,437,79,0
659,475,159,0
733,540,240,0
909,542,244,0
1004,493,155,0
1048,538,189,0
1201,645,166,0
1019,601,15,0
784,478,7,0
874,493,5,0
1062,565,-55,0
1123,471,-51,0
1008,442,-46,0
941,465,-30,0
963,463,18,0
983,514,32,0
923,555,60,0
818,569,115,0
728,577,98,0
625,499,125,0
564,486,91,0
548,486,90,0
653,490,62,0
880,495,12,0
805,472,43,0
723,501,89,0
919,533,135,0
1083,435,84,0
1061,409,65,0
958,445,99,0
875,433,95,0
848,396,95,0
853,429,135,0
777,440,189,0
710,478,229,0
716,530,300,0
789,572,304,0
914,560,277,0
959,560,222,0
920,541,170,0
1162,647,136,0
1275,652,31,0
1014,514,-11,0
816,475,36,0
834,531,-2,0
1029,537,-78,0
1090,461,-89,0
970,384,-53,0
870,366,-82,0
868,449,-91,0
871,616,-162,0
825,612,-194,0
696,480,-138,0
618,396,-102,0
581,345,-81,0
615,415,-9,0
851,493,-11,0
911,553,31,0
873,522,221,0
1032,476,227,0
1083,332,168,0
1051,263,137,0
1012,452,170,0
926,494,110,0
811,379,53,0
789,444,109,0
776,439,125,0
738,439,132,0
731,499,194,0
736,541,264,0
837,575,334,0
985,486,252,0
1023,456,212,0
1198,554,229,0
1227,598,152,0
914,463,93,0
797,484,131,0
865,529,90,0
1045,517,16,0
1091,498,-2,0
1009,389,2,0
939,428,25,0
934,526,51,0
965,536,56,0
889,558,110,0
791,541,135,0
668,477,101,0
483,467,87,0
358,416,60,0
353,484,94,0
523,495,141,0
800,492,88,0
981,495,1,0
935,566,136,0
1029,628,201,0
1151,629,122,0
1085,412,42,0
998,290,133,0
969,299,127,0
882,402,108,0
805,447,87,0
679,451,93,0
597,519,182,0
645,554,244,0
717,568,264,0
870,546,301,0
997,487,225,0
983,471,188,0
1076,555,234,0
1259,637,171,0
1027,514,50,0
797,421,51,0
760,454,85,0
891,556,30,0
1075,567,-25,0
1021,494,-86,0
898,458,-42,0
845,477,1,0
847,531,-28,0
842,531,-6,0
832,504,29,0
778,479,51,0
747,455,70,0
717,456,102,0
680,447,183,0
903,426,138,0
968,518,103,0
764,469,201,0
782,431,255,0
888,438,204,0
989,379,127,0
1031,370,139,0
935,403,181,0
823,402,154,0
808,435,154,0
810,457,178,0
795,426,170,0
745,446,217,0
705,466,256,0
810,493,278,0
950,471,212,0
1052,495,194,0
1258,603,231,0
1128,550,156,0
915,438,118,0
849,441,96,0
927,501,60,0
1029,524,35,0
1006,463,11,0
931,403,-5,0
932,477,-2,0
969,495,-7,0
964,704,-15,0
934,574,10,0
856,489,63,0
757,425,85,0
691,396,150,0
670,346,232,0
736,221,212,0
769,205,170,0
697,645,227,0
985,722,159,0
1082,584,85,0
1061,362,138,0
1003,290,220,0
887,345,137,0
836,461,119,0
829,515,134,0
783,541,138,0
717,550,217,0
761,544,267,0
863,507,275,0
976,426,249,0
930,392,200,0
939,432,194,0
1160,578,204,0
1113,612,181,0
893,450,191,0
855,423,184,0
929,482,105,0
1059,495,56,0
1035,456,52,0
955,415,37,0
927,416,40,0
946,481,45,0
915,535,24,0
790,583,119,0
576,574,247,0
409,627,269,0
394,714,193,0
487,743,269,0
547,690,306,0
743,622,199,0
830,558,143,0
610,547,178,0
620,587,175,0
717,608,114,0
690,524,144,0
753,442,142,0
809,481,126,0
800,509,139,0
770,464,147,0
804,484,127,0
854,525,155,0
847,524,173,0
853,553,198,0
854,552,229,0
841,547,247,0
898,526,257,0
970,482,200,0
953,482,189,0
1086,552,196,0
1139,613,158,0
986,519,118,0
851,457,96,0
862,483,56,0
963,516,13,0
1053,508,-1,0
1018,421,-15,0
937,387,-44,0
917,446,-37,0
940,484,-39,0
897,537,-56,0
781,594,1,0
692,610,22,0
626,566,38,0
592,563,47,0
553,587,81,0
477,549,167,0
639,520,130,0
841,578,79,0
734,555,111,0
713,519,185,0
912,595,177,0
1005,510,148,0
1034,300,113,0
1031,322,146,0
953,409,161,0
841,416,138,0
817,431,134,0
782,434,149,0
739,435,159,0
726,468,206,0
736,477,238,0
803,476,276,0
950,436,252,0
988,403,181,0
1031,438,184,0
1228,538,182,0
1210,582,162,0
887,438,148,0
810,421,175,0
871,477,131,0
988,465,75,0
1052,450,55,0
1012,414,45,0
914,360,26,0
905,433,44,0
927,474,48,0
879,473,59,0
764,518,100,0
653,532,142,0
556,482,150,0
450,495,168,0
380,547,223,0
440,540,229,0
702,562,158,0
822,576,167,0
881,549,234,0
1069,588,225,0
1056,524,123,0
958,471,117,0
989,481,183,0
955,419,182,0
876,398,161,0
804,402,129,0
773,397,134,0
735,418,166,0
711,444,220,0
726,454,266,0
764,473,311,0
825,446,333,0
891,384,278,0
928,358,205,0
963,393,165,0
1171,524,169,0
1186,571,131,0
930,444,103,0
807,430,139,0
794,482,106,0
861,462,66,0
1017,488,43,0
1043,472,13,0
908,433,-11,0
870,486,56,0
897,541,49,0
890,585,28,0
836,591,65,0
756,622,81,0
692,633,109,0
608,610,123,0
560,619,154,0
562,598,187,0
661,560,191,0
753,565,174,0
727,571,180,0
679,535,197,0
722,483,182,0
801,421,81,0
894,367,6,0
1006,372,55,0
950,404,136,0
872,403,209,0
813,490,233,0
853,637,248,0
890,736,259,0
857,675,152,0
764,608,99,0
734,559,94,0
780,526,94,0
812,469,47,0
944,476,52,0
1341,591,67,0
1212,583,-28,0
943,476,69,0
714,498,172,0
706,505,101,0
941,528,40,0
1042,557,8,0
959,492,40,0
933,480,57,0
935,529,43,0
900,532,58,0
849,529,73,0
804,520,55,0
760,497,28,0
719,452,19,0
695,454,29,0
671,451,51,0
842,436,16,0
978,465,-48,0
756,443,-2,0
698,445,109,0
856,497,170,0
941,393,173,0
1032,271,118,0
1032,409,277,0
881,433,318,0
833,446,326,0
845,417,344,0
831,451,313,0
789,456,327,0
775,435,309,0
812,427,275,0
878,427,235,0
918,400,150,0
1013,424,105,0
1164,559,60,0
1095,618,10,0
990,587,0,0
729,623,-21,0
684,589,-63,0
866,602,-156,0
955,625,-174,0
849,654,-198,0
742,648,-174,0
669,594,-146,0
646,568,-200,0
575,582,-260,0
523,602,-314,0
504,619,-362,0
532,610,-375,0
611,572,-372,0
915,488,-388,0
1037,592,-409,0
690,663,-328,0
691,690,-295,0
792,508,-235,0
731,484,-146,0
674,761,75,0
638,809,161,0
615,690,212,0
630,504,238,0
712,432,186,0
726,439,107,0
732,428,-17,0
769,498,-77,0
863,519,-165,0
951,558,-233,0
953,527,-227,0
1174,586,-208,0
1180,603,-187,0
1116,616,-105,0
742,632,-11,0
603,598,54,0
832,585,30,0
939,527,-8,0
888,486,24,0
892,519,24,0
898,510,13,0
869,483,0,0
824,441,15,0
795,418,42,0
916,457,32,0
1028,479,15,0
1194,535,22,0
981,521,103,0
800,397,102,0
751,444,168,0
646,476,181,0
559,427,152,0
585,456,159,0
592,485,117,0
619,524,119,0
598,571,136,0
588,609,127,0
646,633,121,0
691,643,117,0
723,641,109,0
984,685,75,0
1124,734,7,0
1002,692,5,0
857,700,68,0
700,713,44,0
806,652,-19,0
948,597,-59,0
926,547,-81,0
838,534,-78,0
827,515,-103,0
808,487,-128,0
824,480,-108,0
854,503,-94,0
881,584,-105,0
857,590,-65,0
767,603,-27,0
665,575,31,0
609,526,92,0
781,533,-11,0
734,631,66,0
539,545,322,0
786,555,299,0
939,497,95,0
909,406,198,0
904,497,266,0
919,554,143,0
837,462,121,0
778,456,154,0
778,463,132,0
776,479,99,0
753,487,76,0
791,544,86,0
1004,524,47,0
1095,516,34,0
1238,548,46,0
1114,516,34,0
878,457,27,0
797,419,-1,0
894,389,-40,0
971,418,-100,0
891,434,-163,0
787,515,-246,0
734,569,-306,0
742,645,-331,0
768,668,-292,0
796,718,-289,0
746,735,-200,0
680,669,-23,0
602,689,231,0
503,705,455,0
409,781,521,0
413,817,890,0
541,596,761,0
705,453,429,0
906,345,270,0
1124,536,210,0
1383,715,87,0
1273,613,-101,0
1023,431,-145,0
947,408,-125,0
1044,473,-161,0
1059,517,-187,0
899,485,-197,0
771,374,-175,0
709,327,-138,0
695,332,-137,0
664,413,-81,0
698,502,-2,0
813,632,144,0
887,634,272,0
932,537,382,0
946,506,459,0
1214,667,464,0
1206,628,334,0
975,470,312,0
830,473,257,0
801,519,124,0
972,581,56,0
1149,602,-29,0
1084,505,-58,0
948,519,-35,0
961,610,-7,0
990,636,-30,0
888,663,-18,0
751,600,37,0
620,507,68,0
516,429,69,0
464,414,102,0
462,387,113,0
590,341,36,0
776,377,-38,0
836,460,25,0
986,535,139,0
1109,635,167,0
1084,407,-33,0
1100,276,-36,0
1100,333,186,0
1034,455,177,0
987,525,116,0
901,450,81,0
783,463,128,0
742,512,197,0
771,574,228,0
808,619,293,0
926,563,237,0
981,459,136,0
958,424,102,0
1123,537,114,0
1209,645,101,0
986,458,52,0
858,392,51,0
933,454,2,0
1123,480,-50,0
1223,432,-58,0
1148,373,-50,0
1009,405,-28,0
946,483,26,0
962,520,30,0
885,517,17,0
720,483,69,0
579,449,85,0
485,423,88,0
436,386,103,0
458,407,143,0
593,413,135,0
855,414,30,0
972,439,-1,0
1055,532,99,0
1226,768,224,0
1168,744,110,0
1006,412,31,0
1034,200,220,0
1013,296,189,0
934,588,105,0
826,459,131,0
706,414,120,0
699,485,170,0
732,486,188,0
753,518,227,0
856,498,254,0
934,420,188,0
971,370,117,0
1151,436,88,0
1220,565,92,0
1000,465,73,0
913,431,80,0
828,476,54,0
870,438,7,0
1015,485,2,0
1050,462,-29,0
955,421,-53,0
926,520,13,0
945,562,-15,0
910,622,-3,0
850,650,30,0
735,628,52,0
611,620,65,0
497,596,109,0
438,587,130,0
397,610,169,0
429,581,181,0
568,552,94,0
644,565,52,0
591,548,92,0
669,518,157,0
913,539,188,0
1074,456,42,0
1136,373,33,0
1093,450,173,0
970,459,188,0
884,438,171,0
856,436,147,0
826,444,135,0
803,460,168,0
782,496,188,0
748,510,225,0
800,496,255,0
896,450,212,0
959,423,138,0
1203,510,123,0
1277,607,114,0
943,437,67,0
872,415,82,0
868,485,51,0
969,465,12,0
1078,476,-13,0
1030,460,-41,0
945,421,-52,0
913,448,-17,0
911,509,-38,0
878,533,-34,0
798,567,2,0
697,566,3,0
591,515,12,0
520,512,49,0
524,554,99,0
542,550,138,0
603,529,102,0
789,531,76,0
961,551,76,0
952,536,129,0
980,568,253,0
972,393,184,0
909,333,145,0
978,463,206,0
973,603,248,0
822,577,185,0
707,503,181,0
675,494,132,0
674,530,127,0
686,540,125,0
683,634,149,0
672,689,119,0
778,941,-30,0
867,1159,-100,0
840,1309,-131,0
830,1251,-295,0
767,1400,-460,0
535,1181,-368,0
310,920,-228,0
229,907,-248,0
226,890,-247,0
270,665,-261,0
186,835,-262,0
147,1240,-360,0
154,1189,-355,0
49,1128,-297,0
-93,801,-366,0
-174,566,-315,0
-225,246,-278,0
-290,-118,-203,0
-511,-431,-151,0
-762,-178,-207,0
-1083,229,-152,0
-1203,284,-146,0
-1191,238,-266,0
-1180,354,-361,0
-1068,397,-333,0
-865,269,-231,0
-674,25,-109,0
-544,-120,-56,0
-454,-118,-65,0
-361,-125,-268,0
-271,-180,-678,0
-129,-129,-1156,0
-44,394,-1478,0
66,231,-882,0
224,-107,-1329,0
374,-100,-1852,0
398,11,-1789,0
393,29,-1740,0
309,271,-1463,0
292,420,-1378,0
449,357,-1642,0
503,382,-1457,0
331,505,-1125,0
139,516,-646,0
23,338,-326,0
-13,252,-239,0
-136,-38,-130,0
-292,-236,-247,0
-428,-406,-377,0
-418,-232,-740,0
-481,-140,-1479,0
-541,-58,-1736,0
-538,245,-1431,0
-501,1120,-858,0
-388,1450,-151,0
-89,876,229,0
-52,561,761,0
-134,873,338,0
-48,1184,-361,0
47,1550,-490,0
295,1010,-112,0
-69,454,-422,0
-753,835,-933,0
-1054,1102,-638,0
-804,1000,-42,0
-568,303,244,0
-395,-491,151,0
-198,-723,-123,0
7,-3,-373,0
138,439,-923,0
272,456,-1692,0
643,569,-1616,0
567,1317,-1439,0
319,1125,-1016,0
166,808,-629,0
42,932,-382,0
41,1054,-280,0
129,892,-209,0
210,806,-129,0
286,584,-64,0
385,394,28,0
547,296,109,0
807,304,127,0
1286,492,-12,0
1756,822,-23,0
1519,1155,224,0
1010,867,33,0
813,360,86,0
969,-17,185,0
891,231,188,0
915,744,78,0
625,580,62,0
516,502,97,0
571,471,102,0
689,479,120,0
696,459,143,0
792,399,210,0
1007,575,148,0
1396,702,-12,0
1275,540,-78,0
987,441,-46,0
794,432,-19,0
787,588,-40,0
943,661,-111,0
967,598,-185,0
860,578,-136,0
810,541,-103,0
800,562,-120,0
777,563,-95,0
769,474,-86,0
878,476,-47,0
905,425,-36,0
1058,338,-125,0
915,372,-84,0
725,458,121,0
710,458,184,0
767,409,127,0
806,319,93,0
885,385,119,0
877,461,157,0
809,443,143,0
809,467,160,0
843,510,150,0
848,523,165,0
834,516,206,0
798,557,236,0
872,584,299,0
1023,509,208,0
1071,490,147,0
1195,576,158,0
1120,607,116,0
971,516,72,0
860,474,41,0
909,511,-3,0
1035,587,-33,0
1058,551,-34,0
933,522,-73,0
887,531,-49,0
917,542,-46,0
908,592,-78,0
825,586,-50,0
734,550,-27,0
656,486,-11,0
567,459,-28,0
504,431,-9,0
496,443,61,0
656,445,125,0
904,444,94,0
853,419,127,0
794,441,276,0
1005,542,290,0
1161,570,207,0
1129,497,169,0
1024,465,229,0
933,415,188,0
864,428,119,0
839,481,114,0
804,545,89,0
740,599,152,0
708,547,192,0
727,550,224,0
895,526,193,0
989,487,126,0
1033,504,107,0
1072,582,114,0
1014,564,99,0
1037,518,66,0
907,525,35,0
805,507,1,0
983,510,-30,0
1137,515,-33,0
1043,463,-64,0
950,508,-52,0
965,543,-27,0
963,575,-80,0
865,649,-50,0
723,635,-20,0
611,537,-22,0
504,487,15,0
469,471,53,0
476,451,99,0
606,452,116,0
809,451,75,0
837,429,126,0
789,418,174,0
957,515,171,0
1119,547,130,0
1168,500,105,0
1090,502,203,0
996,428,189,0
935,415,126,0
898,445,125,0
847,488,139,0
761,531,180,0
718,535,215,0
707,538,228,0
827,529,263,0
955,475,192,0
962,438,143,0
955,440,104,0
1075,538,84,0
1127,605,85,0
992,513,52,0
882,452,12,0
842,464,-7,0
935,481,-33,0
1107,502,-73,0
1117,460,-110,0
1006,414,-125,0
948,470,-86,0
923,506,-99,0
879,581,-70,0
779,641,-8,0
654,749,119,0
528,742,241,0
404,649,290,0
326,607,274,0
281,611,286,0
283,577,343,0
419,501,268,0
637,482,126,0
760,581,90,0
705,544,142,0
887,514,118,0
1121,587,16,0
1107,541,-30,0
1062,477,24,0
1008,415,84,0
933,387,63,0
924,440,81,0
866,479,74,0
780,548,136,0
750,549,244,0
759,593,301,0
818,606,370,0
935,496,311,0
981,420,220,0
918,429,170,0
956,516,133,0
1151,658,119,0
1121,625,66,0
943,487,11,0
895,509,0,0
877,527,-41,0
994,525,-60,0
1128,512,-102,0
1100,465,-99,0
953,463,-104,0
877,553,-36,0
857,577,-25,0
783,573,-41,0
673,544,-11,0
594,490,-14,0
501,499,-67,0
454,604,-113,0
421,627,-161,0
510,665,-202,0
630,761,-172,0
655,840,-66,0
600,867,0,0
676,950,65,0
999,1530,1547,0
725,800,502,0
620,570,-230,0
571,605,-310,0
498,428,-337,0
360,661,-349,0
332,904,-264,0
396,1051,191,0
566,887,652,0
464,788,16,0
674,940,106,0
648,746,161,0
648,819,162,0
841,1043,174,0
665,1181,229,0
547,948,-96,0
435,577,-104,0
352,524,-38,0
419,766,118,0
466,945,214,0
398,996,138,0
375,733,188,0
385,591,264,0
388,657,227,0
392,698,274,0
431,666,401,0
571,605,401,0
652,566,198,0
590,839,30,0
597,900,13,0
820,705,-56,0
937,725,-69,0
855,693,66,0
1002,616,159,0
1069,564,38,0
998,409,-89,0
958,344,-75,0
873,359,-37,0
795,365,-53,0
757,395,-42,0
724,385,-34,0
683,402,-17,0
639,389,39,0
644,496,105,0
776,593,248,0
927,570,259,0
1045,495,227,0
1267,592,272,0
1152,611,152,0
907,559,102,0
796,562,84,0
817,616,-20,0
1026,617,-44,0
1112,604,-93,0
1009,519,-93,0
945,504,-111,0
902,586,-115,0
849,626,-120,0
790,647,-149,0
709,669,-144,0
677,685,-138,0
645,643,-100,0
638,612,-38,0
677,551,-11,0
874,516,-25,0
621,559,136,0
511,442,302,0
620,412,227,0
689,431,167,0
739,434,159,0
792,529,181,0
877,615,143,0
857,582,122,0
854,558,109,0
794,575,88,0
790,601,111,0
784,621,126,0
788,603,136,0
883,597,133,0
894,624,142,0
808,619,159,0
804,621,139,0
946,672,100,0
942,627,29,0
899,598,-20,0
909,636,-35,0
837,617,-51,0
873,568,-74,0
1024,614,-71,0
1008,539,-55,0
867,482,-26,0
778,446,-21,0
758,542,-15,0
703,598,11,0
611,616,49,0
496,617,110,0
440,624,133,0
429,619,152,0
505,623,148,0
809,624,8,0
922,725,81,0
852,748,272,0
851,597,178,0
633,305,3,0
677,175,37,0
1336,363,127,0
1304,646,-65,0
848,422,-88,0
637,339,56,0
606,438,73,0
636,514,32,0
680,495,61,0
690,556,130,0
839,600,166,0
1031,594,104,0
1014,615,96,0
1092,704,181,0
1108,719,118,0
971,635,53,0
872,654,110,0
843,690,87,0
1027,655,18,0
1158,602,0,0
993,512,19,0
821,439,59,0
817,464,30,0
830,476,-2,0
819,410,-7,0
756,360,-15,0
735,335,-16,0
746,335,-32,0
719,346,-27,0
820,371,-25,0
1017,442,-40,0
885,501,134,0
716,507,332,0
937,541,372,0
1163,488,297,0
1109,447,335,0
820,408,143,0
775,438,74,0
778,472,28,0
759,537,35,0
695,541,90,0
647,512,89,0
744,566,161,0
917,545,126,0
971,545,77,0
1095,623,116,0
1179,652,90,0
935,523,39,0
861,499,47,0
907,524,14,0
1030,515,-27,0
1143,500,-41,0
1083,472,-47,0
936,461,-83,0
903,564,-49,0
884,571,-53,0
860,635,-89,0
720,657,-27,0
555,611,5,0
478,580,33,0
448,543,44,0
505,538,89,0
556,534,161,0
717,466,103,0
775,517,142,0
699,477,207,0
799,468,200,0
900,452,131,0
1014,424,75,0
1143,522,128,0
1111,549,158,0
976,477,124,0
946,448,103,0
945,480,95,0
872,548,177,0
729,581,259,0
651,566,297,0
671,533,321,0
802,463,270,0
932,348,160,0
954,406,69,0
1083,445,82,0
1198,509,65,0
1082,464,11,0
835,359,-15,0
751,387,6,0
738,446,2,0
957,508,-40,0
1077,572,-95,0
977,616,-84,0
907,500,-77,0
941,513,-16,0
958,592,-8,0
853,656,34,0
710,631,73,0
579,610,68,0
438,551,75,0
391,529,95,0
400,529,98,0
481,510,91,0
820,493,36,0
1130,686,83,0
1062,676,214,0
1050,690,248,0
1001,498,42,0
993,242,57,0
1029,215,158,0
973,465,180,0
850,433,128,0
682,332,76,0
548,299,-63,0
358,644,203,0
527,869,649,0
870,536,545,0
1041,299,492,0
995,335,349,0
871,464,211,0
962,534,35,0
1223,542,-81,0
1042,522,-120,0
750,365,-137,0
726,369,-170,0
790,478,-167,0
975,571,-150,0
1092,621,-150,0
1017,518,-121,0
903,479,-34,0
863,585,13,0
858,643,187,0
820,611,523,0
716,505,556,0
615,662,699,0
558,696,442,0
478,722,403,0
465,742,90,0
490,864,-100,0
640,830,-113,0
913,772,-117,0
868,665,-51,0
729,536,103,0
857,515,79,0
940,393,-133,0
907,408,-114,0
862,475,-45,0
854,500,-29,0
808,423,-28,0
797,394,-62,0
800,429,-6,0
791,454,3,0
778,528,113,0
778,559,237,0
844,579,321,0
965,559,344,0
943,531,291,0
906,483,257,0
1092,653,197,0
1094,728,52,0
739,565,-76,0
801,608,-193,0
1317,508,-593,0
1338,302,-634,0
1025,127,-499,0
856,158,-527,0
838,197,-509,0
852,398,-524,0
804,456,-478,0
678,493,-435,0
501,529,-374,0
389,442,-303,0
347,467,-360,0
346,509,-363,0
492,508,-481,0
733,601,-721,0
693,612,-693,0
614,698,-582,0
753,463,-771,0
869,592,-621,0
926,490,-427,0
880,401,-510,0
761,367,-464,0
658,322,-358,0
641,297,-319,0
667,333,-350,0
633,380,-373,0
591,432,-310,0
674,615,-190,0
910,833,-76,0
971,834,-128,0
750,669,-135,0
742,696,-9,0
1034,854,17,0
1065,845,-96,0
888,676,-92,0
781,539,-24,0
827,502,-46,0
1038,621,-88,0
1100,633,-105,0
979,516,-113,0
900,567,-33,0
914,605,-18,0
841,602,-53,0
744,558,3,0
651,486,26,0
607,424,7,0
615,408,28,0
646,405,65,0
852,407,33,0
1019,524,24,0
869,522,170,0
849,530,246,0
915,507,161,0
993,389,58,0
1030,369,82,0
939,391,160,0
807,389,104,0
804,440,132,0
843,484,89,0
816,544,171,0
770,546,210,0
749,613,263,0
811,554,280,0
899,463,190,0
953,469,109,0
1237,536,76,0
1275,652,-70,0
928,546,-293,0
767,697,-309,0
735,754,-221,0
1119,669,-207,0
1404,311,-463,0
1207,324,-191,0
1092,351,-155,0
1007,445,-142,0
854,540,-82,0
623,615,-89,0
581,710,151,0
457,365,2,0
297,434,-94,0
367,404,-137,0
645,402,-254,0
1128,499,-351,0
1267,554,-438,0
1111,569,-337,0
961,667,-253,0
896,391,-277,0
939,372,-58,0
972,487,-21,0
926,540,-69,0
822,499,-79,0
750,522,-39,0
752,506,-53,0
781,594,62,0
769,680,185,0
759,706,226,0
814,660,274,0
869,473,193,0
937,481,156,0
1172,586,112,0
1206,662,15,0
973,539,-46,0
807,470,-44,0
785,497,-121,0
961,553,-190,0
1153,599,-264,0
1116,548,-333,0
962,420,-304,0
929,375,-251,0
960,377,-323,0
921,276,-461,0
876,113,-634,0
761,132,-737,0
655,245,-657,0
645,305,-641,0
663,854,-385,0
823,1887,620,0
736,1702,654,0
536,963,719,0
548,821,145,0
682,727,-259,0
779,630,-205,0
940,359,-285,0
913,226,-364,0
802,243,-294,0
809,241,-344,0
871,265,-450,0
905,370,-363,0
984,468,-269,0
1088,512,-371,0
1103,628,-379,0
979,780,-312,0
807,918,-4,0
664,1079,123,0
828,1185,129,0
1099,1023,69,0
1074,763,-27,0
982,711,-179,0
1042,945,-124,0
1010,707,-198,0
1135,616,-397,0
1403,732,-558,0
1513,730,-470,0
1593,724,-377,0
1449,784,-252,0
831,862,-27,0
269,554,186,0
-114,499,140,0
109,284,-376,0
209,72,-560,0
323,399,-687,0
259,369,-881,0
321,372,-667,0
135,499,-596,0
193,714,-171,0
235,1103,337,0
332,981,272,0
453,534,-193,0
448,453,-520,0
683,338,-627,0
698,254,-587,0
908,634,-515,0
1065,950,-675,0
921,1059,-826,0
970,-79,-808,0
1032,252,96,0
1067,226,413,0
1066,725,435,0
1049,857,287,0
1219,741,254,0
1245,703,224,0
1177,634,310,0
994,571,289,0
833,556,168,0
1029,547,45,0
1190,558,-48,0
1120,521,-72,0
1041,444,-54,0
1013,437,-66,0
980,471,-107,0
913,452,-131,0
824,407,-120,0
742,374,-116,0
673,359,-82,0
631,356,-43,0
723,388,25,0
864,448,37,0
754,484,191,0
740,484,332,0
873,447,242,0
1011,419,156,0
1132,398,128,0
1135,462,184,0
1013,353,212,0
900,371,147,0
915,422,165,0
892,505,123,0
842,609,198,0
738,576,212,0
735,552,266,0
810,473,253,0
905,434,187,0
929,416,122,0
1013,450,96,0
1279,580,82,0
1160,589,10,0
877,426,1,0
710,410,37,0
688,444,-21,0
893,490,-65,0
1106,545,-106,0
1061,494,-153,0
973,383,-172,0
930,452,-106,0
917,515,-89,0
883,576,-80,0
818,605,-24,0
758,587,22,0
683,572,63,0
604,532,102,0
521,499,126,0
478,490,165,0
647,467,193,0
974,493,72,0
850,505,80,0
817,499,206,0
950,573,206,0
982,565,127,0
976,418,46,0
999,421,119,0
940,441,106,0
864,441,72,0
841,455,68,0
804,479,43,0
772,462,71,0
734,465,103,0
746,520,163,0
780,541,230,0
832,518,240,0
887,421,140,0
965,413,106,0
1249,566,117,0
1226,609,77,0
958,435,32,0
828,426,60,0
739,487,27,0
847,491,-18,0
1016,546,-39,0
1036,492,-68,0
927,393,-101,0
874,519,-44,0
856,569,-30,0
813,633,-74,0
757,644,-18,0
665,610,-7,0
618,616,17,0
586,606,71,0
547,582,85,0
488,551,143,0
541,528,159,0
752,520,78,0
878,538,107,0
787,456,158,0
871,474,113,0
1040,520,98,0
1038,447,18,0
1008,471,95,0
976,492,168,0
886,457,81,0
842,422,58,0
817,425,48,0
758,478,57,0
740,520,123,0
719,551,153,0
762,578,218,0
855,562,201,0
940,475,99,0
1087,507,95,0
1271,625,101,0
989,571,47,0
840,445,52,0
860,476,36,0
967,567,-17,0
1110,581,-44,0
1084,513,-33,0
973,441,-20,0
938,500,31,0
960,566,14,0
915,562,2,0
795,518,51,0
719,477,33,0
624,444,11,0
554,402,29,0
483,378,59,0
572,414,66,0
835,466,73,0
923,468,71,0
884,407,104,0
1106,495,121,0
1214,579,121,0
1100,520,115,0
971,447,178,0
889,433,146,0
846,426,72,0
847,456,52,0
804,493,88,0
724,502,86,0
705,526,141,0
739,571,169,0
825,596,230,0
934,496,192,0
967,437,128,0
1227,541,115,0
1293,642,53,0
951,508,2,0
839,443,44,0
821,501,29,0
935,530,-14,0
1067,502,-21,0
1094,432,-75,0
991,420,-75,0
911,489,3,0
867,554,-22,0
819,559,-18,0
727,512,18,0
672,472,4,0
621,441,-1,0
610,428,-5,0
582,463,49,0
741,493,94,0
957,531,90,0
909,508,124,0
944,490,139,0
929,544,148,0
899,516,206,0
977,467,175,0
998,495,208,0
877,447,181,0
810,462,177,0
801,462,166,0
781,474,158,0
746,482,194,0
688,478,213,0
695,488,245,0
754,462,261,0
884,429,210,0
951,398,102,0
1175,497,122,0
1300,642,133,0
919,491,71,0
745,422,117,0
750,478,65,0
944,528,18,0
1069,524,2,0
1019,439,-57,0
942,352,-68,0
925,381,-65,0
911,471,-108,0
864,580,-120,0
779,654,-134,0
702,662,-76,0
641,610,-19,0
594,610,31,0
530,617,66,0
477,569,98,0
523,522,83,0
680,518,44,0
788,564,43,0
811,591,46,0
922,695,85,0
952,605,4,0
967,495,5,0
1038,521,91,0
989,493,64,0
884,443,32,0
821,446,36,0
761,467,22,0
733,494,60,0
728,498,84,0
706,538,115,0
732,552,181,0
806,509,179,0
929,461,122,0
1016,476,96,0
1234,576,101,0
1165,564,79,0
954,441,63,0
820,448,80,0
759,455,66,0
916,460,61,0
1107,473,24,0
1063,366,-52,0
892,321,-32,0
834,370,15,0
843,405,-11,0
835,370,-28,0
808,338,-8,0
809,357,2,0
805,377,0,0
797,378,34,0
868,379,44,0
1223,464,-4,0
1118,526,61,0
837,509,236,0
819,512,267,0
839,366,85,0
920,349,124,0
999,430,162,0
872,439,103,0
760,410,99,0
734,427,60,0
761,451,63,0
764,473,83,0
717,483,135,0
710,499,189,0
785,496,207,0
902,419,114,0
1058,459,84,0
1292,605,99,0
1097,533,57,0
885,455,99,0
786,515,122,0
821,476,42,0
950,468,17,0
1007,455,-16,0
912,394,-54,0
857,421,-25,0
869,464,-26,0
880,459,-67,0
861,479,-67,0
840,493,-41,0
828,498,-55,0
819,486,-69,0
762,476,-24,0
745,470,61,0
988,483,67,0
1143,488,0,0
870,411,103,0
683,410,231,0
792,472,221,0
889,418,146,0
882,392,131,0
830,392,175,0
773,367,121,0
767,411,122,0
807,450,141,0
807,471,155,0
786,491,200,0
772,511,245,0
745,517,292,0
891,486,262,0
1032,410,104,0
1154,442,61,0
1293,582,112,0
951,545,69,0
799,440,55,0
945,507,42,0
1039,514,-13,0
1001,414,-3,0
928,389,24,0
899,443,5,0
911,438,-14,0
870,434,-22,0
819,459,7,0
766,449,0,0
694,430,-23,0
710,501,-5,0
747,547,89,0
947,615,124,0
1004,605,56,0
682,511,66,0
589,514,112,0
623,565,135,0
748,569,82,0
807,571,140,0
853,543,176,0
842,526,141,0
826,559,209,0
833,517,261,0
826,733,210,0
781,651,168,0
770,488,168,0
837,482,146,0
961,539,106,0
1024,533,56,0
1198,598,65,0
1008,494,-22,0
958,487,-34,0
857,529,-46,0
835,526,-31,0
1000,586,-41,0
1041,557,-78,0
875,494,-54,0
768,546,-19,0
748,605,-22,0
700,581,-27,0
617,519,0,0
563,592,8,0
562,614,10,0
570,638,32,0
588,651,18,0
832,664,-35,0
881,754,3,0
603,728,189,0
589,617,199,0
785,543,62,0
852,515,81,0
756,537,64,0
640,542,79,0
597,527,85,0
625,572,47,0
676,609,23,0
689,795,74,0
660,707,94,0
694,632,144,0
829,563,66,0
953,542,9,0
968,528,30,0
1069,653,102,0
1105,707,80,0
945,619,38,0
844,572,67,0
840,571,42,0
988,587,36,0
1030,534,-4,0
959,453,-22,0
909,404,-17,0
951,417,-31,0
977,489,-38,0
903,528,-45,0
813,553,-5,0
751,574,-5,0
677,546,-24,0
641,530,1,0
598,547,65,0
680,528,72,0
836,549,49,0
760,571,202,0
775,547,270,0
843,418,135,0
871,320,97,0
920,375,123,0
927,461,157,0
834,443,146,0
781,399,83,0
799,418,96,0
803,467,116,0
801,540,177,0
811,569,229,0
794,509,259,0
904,461,239,0
992,462,101,0
966,511,99,0
1205,645,157,0
1173,666,59,0
817,485,47,0
732,444,105,0
964,536,73,0
1182,579,14,0
1083,459,0,0
921,361,56,0
866,421,51,0
877,463,96,0
867,423,48,0
803,375,50,0
741,308,45,0
836,351,8,0
862,398,72,0
935,342,50,0
1109,429,23,0
1004,484,147,0
867,428,203,0
854,385,157,0
884,365,69,0
942,451,107,0
897,488,142,0
773,436,98,0
766,434,86,0
792,452,74,0
790,477,112,0
724,513,152,0
670,550,220,0
715,534,220,0
907,480,132,0
1530,617,88,0
1289,578,49,0
954,478,98,0
884,518,84,0
912,527,-25,0
958,517,-3,0
899,547,59,0
838,470,-3,0
850,476,7,0
862,518,37,0
825,504,23,0
754,483,32,0
732,460,18,0
749,451,12,0
782,435,31,0
1022,437,9,0
1308,518,-31,0
870,467,121,0
725,459,266,0
804,456,214,0
800,341,68,0
794,396,115,0
816,466,207,0
773,394,72,0
807,420,71,0
854,485,102,0
834,523,153,0
805,603,286,0
746,486,301,0
756,425,271,0
861,435,231,0
976,388,183,0
1017,387,168,0
1227,475,164,0
1219,585,124,0
906,475,64,0
717,380,67,0
789,457,31,0
998,554,12,0
1105,529,-41,0
1013,456,-78,0
897,419,3,0
818,463,28,0
792,515,3,0
802,461,-14,0
830,465,56,0
893,504,123,0
888,324,7,0
961,241,-56,0
1161,316,-91,0
943,532,88,0
820,510,324,0
915,277,274,0
891,115,167,0
920,192,217,0
922,321,263,0
821,452,227,0
744,442,177,0
706,409,127,0
682,391,77,0
695,433,104,0
735,479,173,0
744,467,237,0
859,446,241,0
973,427,212,0
963,492,195,0
1098,594,205,0
1209,641,209,0
935,506,145,0
828,430,96,0
969,471,46,0
1090,499,-7,0
1087,406,-4,0
977,403,9,0
901,444,27,0
899,457,31,0
900,453,30,0
829,489,45,0
736,537,14,0
694,512,-5,0
679,424,-12,0
632,499,-90,0
603,511,-84,0
739,373,96,0
884,489,132,0
1006,469,172,0
971,574,286,0
1016,701,369,0
1018,497,89,0
966,375,111,0
906,337,159,0
863,429,146,0
801,385,144,0
724,408,157,0
656,380,177,0
650,405,158,0
684,428,163,0
725,404,146,0
851,427,171,0
984,430,114,0
1188,448,0,0
1367,607,39,0
1054,563,53,0
774,497,82,0
696,518,60,0
817,494,32,0
929,498,32,0
917,446,-8,0
830,441,-8,0
860,424,9,0
947,387,51,0
961,387,15,0
936,472,-5,0
923,453,-31,0
842,429,-36,0
724,419,-46,0
684,392,-60,0
761,444,-32,0
985,496,-52,0
1149,470,-64,0
986,479,49,0
832,533,218,0
858,472,211,0
951,352,139,0
947,359,229,0
867,415,250,0
750,379,188,0
709,356,136,0
756,382,127,0
759,391,112,0
721,400,123,0
696,407,124,0
703,408,187,0
765,382,186,0
906,404,130,0
1030,400,64,0
1309,533,96,0
1177,632,141,0
914,520,102,0
909,508,85,0
937,522,22,0
918,473,15,0
860,436,39,0
792,385,53,0
782,386,46,0
842,395,37,0
925,375,33,0
958,346,19,0
964,346,25,0
975,356,11,0
929,351,15,0
992,354,64,0
1312,389,-56,0
1062,423,-27,0
670,377,160,0
697,426,304,0
793,360,170,0
835,309,105,0
829,378,200,0
748,395,179,0
727,409,177,0
760,438,183,0
795,466,185,0
801,466,234,0
763,455,252,0
809,491,292,0
901,455,278,0
994,358,129,0
1126,552,111,0
806,421,60,0
778,473,88,0
773,536,1,0
879,495,-25,0
1014,485,-35,0
994,426,-71,0
954,367,-55,0
960,385,-46,0
973,418,-60,0
960,445,-71,0
920,471,-35,0
893,573,-10,0
812,645,-28,0
663,650,-23,0
512,640,5,0
431,645,22,0
440,650,37,0
530,629,35,0
731,614,38,0
728,569,43,0
713,506,143,0
952,564,258,0
1140,497,134,0
1094,368,58,0
1042,360,122,0
961,397,127,0
845,409,74,0
797,404,70,0
757,393,22,0
734,426,50,0
715,430,76,0
686,444,106,0
757,450,155,0
845,463,167,0
838,433,204,0
804,389,175,0
855,412,125,0
1194,528,83,0
1246,688,27,0
1084,602,24,0
893,596,121,0
735,526,63,0
810,403,1,0
1086,434,-27,0
1242,448,-48,0
1110,368,-44,0
1008,472,-64,0
998,707,-154,0
962,826,-156,0
804,614,-124,0
600,443,-60,0
446,404,-14,0
366,364,23,0
333,346,80,0
395,428,102,0
588,530,46,0
800,725,-39,0
764,852,-5,0
733,796,82,0
878,701,131,0
1088,574,43,0
1181,445,-16,0
1124,451,30,0
975,463,81,0
850,452,19,0
850,438,-23,0
831,432,-52,0
771,459,-38,0
727,459,9,0
643,473,70,0
699,515,164,0
786,492,168,0
1038,412,95,0
1359,542,93,0
1111,506,32,0
917,458,105,0
781,480,47,0
794,470,-13,0
937,444,-24,0
968,456,-47,0
875,416,-60,0
867,448,-37,0
879,451,-49,0
857,372,-69,0
880,383,-42,0
913,369,-86,0
944,369,-130,0
964,390,-138,0
944,428,-112,0
975,401,-92,0
1219,372,-106,0
1033,422,-63,0
739,536,134,0
632,554,282,0
679,433,217,0
751,310,147,0
841,380,220,0
830,429,206,0
791,411,156,0
820,424,140,0
818,439,121,0
768,443,116,0
721,464,146,0
658,474,153,0
715,471,185,0
928,439,107,0
1273,398,-21,0
1341,467,-14,0
1313,527,-24,0
1010,488,-21,0
727,478,-4,0
740,316,9,0
862,276,-21,0
940,444,-65,0
849,397,-90,0
823,348,-68,0
827,409,-39,0
816,469,-51,0
799,478,-37,0
786,479,-7,0
806,472,-14,0
836,484,-13,0
865,474,-14,0
860,498,3,0
869,503,17,0
1074,496,-35,0
1172,494,-72,0
867,467,22,0
768,555,181,0
849,549,172,0
853,396,84,0
888,316,107,0
941,371,90,0
877,377,55,0
806,362,71,0
799,375,58,0
779,370,87,0
717,329,107,0
692,344,122,0
637,306,236,0
747,369,317,0
925,446,142,0
1014,368,73,0
971,435,99,0
1102,454,24,0
1226,501,-66,0
861,517,-68,0
663,479,5,0
825,472,-18,0
914,372,-213,0
899,571,80,0
837,373,0,0
835,534,-38,0
842,633,-33,0
838,491,-57,0
842,457,-55,0
851,511,-47,0
846,500,-66,0
860,485,-82,0
871,471,-76,0
937,399,-149,0
1145,387,-245,0
1125,490,-161,0
825,534,48,0
915,494,57,0
1004,397,218,0
1076,170,247,0
1016,61,209,0
868,149,247,0
713,239,240,0
683,260,178,0
716,208,166,0
738,233,94,0
747,336,107,0
744,389,128,0
773,519,211,0
884,779,365,0
873,1507,393,0
1156,877,40,0
1188,694,-122,0
922,224,-110,0
735,226,-54,0
597,306,-51,0
710,420,-82,0
864,511,-129,0
824,569,-178,0
754,533,-195,0
782,556,-180,0
769,534,-191,0
738,546,-155,0
722,564,-108,0
715,537,-113,0
728,573,-86,0
802,623,-18,0
865,940,405,0
1072,659,200,0
1156,485,9,0
930,457,40,0
809,495,48,0
790,509,-20,0
793,410,-59,0
833,367,-42,0
945,359,-62,0
876,351,-80,0
749,331,-82,0
725,342,-85,0
780,448,-35,0
793,415,57,0
738,402,153,0
707,433,310,0
863,677,665,0
917,736,550,0
1083,435,179,0
926,400,63,0
868,315,-86,0
1171,470,-224,0
946,534,-249,0
634,340,-213,0
629,710,-106,0
837,614,-162,0
891,484,-205,0
829,422,-146,0
780,456,-106,0
784,486,-84,0
821,459,-44,0
830,443,-28,0
803,449,-5,0
812,424,13,0
926,461,54,0
1016,487,42,0
920,405,40,0
903,416,41,0
972,512,39,0
1006,553,55,0
935,500,101,0
871,447,180,0
864,370,231,0
793,323,131,0
811,451,86,0
876,504,66,0
873,435,51,0
806,384,50,0
772,393,38,0
807,371,94,0
801,393,28,0
734,520,54,0
691,562,121,0
678,488,106,0
709,493,99,0
784,474,89,0
851,491,56,0
1015,519,2,0
1024,536,-30,0
1018,537,-48,0
1026,540,-84,0
831,493,-62,0
820,484,-48,0
997,481,-55,0
1007,434,-67,0
910,381,-15,0
862,375,-5,0
843,403,0,0
863,413,4,0
876,398,15,0
866,383,8,0
811,341,-21,0
749,362,13,0
836,492,67,0
1063,460,-6,0
1031,444,1,0
895,398,134,0
1083,521,181,0
991,435,105,0
721,335,135,0
732,477,102,0
861,472,77,0
904,420,88,0
799,417,89,0
763,446,107,0
775,465,156,0
769,488,165,0
755,521,215,0
729,521,227,0
691,518,275,0
724,520,313,0
857,530,311,0
1119,587,261,0
1087,536,188,0
983,555,171,0
805,492,153,0
717,427,112,0
889,464,94,0
1001,464,58,0
925,449,41,0
878,487,49,0
894,490,50,0
897,458,48,0
883,453,52,0
861,405,36,0
850,549,18,0
638,527,107,0
636,559,30,0
677,455,117,0
718,464,109,0
798,530,96,0
913,462,131,0
1156,526,118,0
1094,474,122,0
945,488,322,0
962,528,298,0
929,392,236,0
773,430,253,0
837,499,210,0
892,437,169,0
810,327,117,0
750,335,160,0
763,271,125,0
772,325,168,0
806,351,207,0
812,371,252,0
778,410,327,0
779,313,277,0
811,341,295,0
816,401,298,0
1044,306,173,0
938,449,334,0
1011,364,164,0
1205,482,98,0
968,493,108,0
726,423,139,0
763,416,150,0
922,401,160,0
988,358,132,0
916,306,106,0
847,353,115,0
848,383,113,0
879,381,109,0
895,395,112,0
856,406,88,0
835,424,67,0
803,428,62,0
810,460,74,0
874,434,116,0
974,458,146,0
1069,490,128,0
906,451,123,0
802,488,138,0
748,484,153,0
822,453,189,0
885,452,173,0
865,469,164,0
853,468,168,0
842,494,181,0
884,493,216,0
893,458,214,0
884,402,224,0
960,423,178,0
1039,431,140,0
969,418,132,0
855,351,141,0
790,353,132,0
733,337,188,0
703,297,212,0
743,301,230,0
850,338,260,0
860,323,262,0
914,302,222,0
916,356,137,0
883,401,107,0
828,433,115,0
906,440,108,0
1064,443,71,0
1130,424,43,0
1024,428,61,0
895,417,83,0
865,211,-52,0
944,708,222,0
829,251,55,0
804,412,65,0
784,468,113,0
798,367,66,0
841,440,97,0
886,419,117,0
877,457,189,0
808,379,210,0
806,367,243,0
871,406,206,0
908,423,194,0
924,458,169,0
918,494,174,0
903,446,141,0
892,437,142,0
889,420,109,0
903,420,84,0
929,412,58,0
915,404,36,0
884,396,54,0
886,369,46,0
875,374,59,0
875,364,60,0
887,371,68,0
879,382,83,0
881,387,92,0
871,398,101,0
873,404,128,0
883,389,103,0
890,423,124,0
904,408,115,0
895,422,108,0
895,421,108,0
896,422,93,0
890,421,81,0
886,406,66,0
871,426,65,0
869,387,28,0
881,384,-8,0
882,387,-13,0
894,380,10,0
879,383,24,0
890,393,41,0
894,367,72,0
890,413,88,0
896,433,86,0
882,451,79,0
887,399,54,0
902,378,43,0
891,370,29,0
885,377,23,0
886,362,14,0
923,420,-100,0
851,410,251,0
826,356,48,0
895,421,13,0
911,417,21,0
916,318,27,0
924,304,65,0
894,405,44,0
860,399,0,0
869,495,-4,0
865,514,-61,0
856,503,-39,0
847,533,-80,0
849,460,-97,0
862,442,-96,0
852,451,-118,0
848,404,-117,0
854,401,-132,0
876,393,-180,0
889,448,-191,0
864,521,-305,0
765,876,-255,0
936,1058,-422,0
1152,1633,-693,0
1469,1797,-586,0
1357,1418,-16,0
1030,1050,152,0
641,534,371,0
357,428,405,0
147,152,355,0
-112,125,264,0
-217,36,169,0
-297,-91,96,0
-368,-101,199,0
-420,-34,451,0
-438,77,818,0
-484,97,987,0
-566,30,1001,0
-626,-86,916,0
-623,-109,890,0
-615,-59,913,0
-607,-12,890,0
-590,24,890,0
-569,47,866,0
-556,49,844,0
-552,45,845,0
-549,23,836,0
-544,22,839,0
-538,36,849,0
-531,32,857,0
-534,17,858,0
-553,9,859,0
-575,25,842,0
-585,53,868,0
-569,73,899,0
-526,97,904,0
-495,97,888,0
-485,69,849,0
-494,43,836,0
-501,27,826,0
-507,27,865,0
-510,47,898,0
-520,58,916,0
-537,49,910,0
-555,45,881,0
-555,53,858,0
-549,59,844,0
-539,79,840,0
-535,95,854,0
-534,95,861,0
-533,91,862,0
-529,80,855,0
-520,60,819,0
-505,44,806,0
-473,83,823,0
-452,106,866,0
-462,107,875,0
-490,119,891,0
-508,125,895,0
-517,135,885,0
-518,143,903,0
-525,151,921,0
-518,159,901,0
-495,171,885,0
-477,174,828,0
-459,175,805,0
-449,221,842,0
-447,251,854,0
-454,301,878,0
-473,304,882,0
-478,293,848,0
-474,314,856,0
-471,328,835,0
-464,339,827,0
-465,349,831,0
-459,375,831,0
-447,381,840,0
-432,376,844,0
-412,364,858,0
-392,349,874,0
-376,318,858,0
-386,295,788,0
-411,303,720,0
-410,343,655,0
-389,426,578,0
-360,526,628,0
-344,633,653,0
-328,752,666,0
-304,796,643,0
-290,945,556,0
-214,1124,502,0
-149,1101,255,0
-140,1102,152,0
-86,1079,45,0
-67,1010,-3,0
-77,929,-30,0
-66,920,-18,0
-60,904,-26,0
-5,752,-293,0
-114,1029,-253,0
-143,1055,-264,0
-136,852,-383,0
-140,851,-438,0
-139,900,-432,0
-125,851,-479,0
-136,819,-494,0
-136,869,-489,0
-123,858,-488,0
-124,864,-469,0
-118,867,-527,0
-135,820,-605,0
-153,804,-604,0
-135,775,-589,0
-107,788,-534,0
-79,814,-446,0
-37,812,-421,0
-6,754,-481,0
-6,772,-550,0
5,765,-653,0
18,669,-661,0
40,650,-677,0
46,620,-659,0
51,678,-687,0
40,606,-799,0
27,590,-836,0
42,500,-895,0
25,417,-900,0
13,307,-928,0
12,237,-945,0
36,221,-959,0
41,293,-929,0
19,359,-919,0
14,367,-1004,0
29,227,-983,0
43,245,-946,0
58,255,-917,0
64,239,-894,0
55,246,-886,0
19,278,-901,0
-10,315,-924,0
-36,318,-939,0
-46,303,-956,0
-36,283,-951,0
-28,269,-937,0
-14,267,-932,0
-12,260,-931,0
-14,271,-932,0
-17,312,-943,0
-10,335,-945,0
-2,316,-935,0
-1,299,-937,0
0,282,-918,0
-7,276,-910,0
-18,278,-929,0
-27,290,-928,0
-30,303,-941,0
-23,306,-951,0
-21,303,-942,0
-20,285,-933,0
-26,285,-928,0
-20,279,-929,0
-22,277,-928,0
-31,289,-934,0
