AccX [mg],AccY,AccZ,Ground Truth
984,549,-53,0
719,540,-11,0
782,577,-109,0
896,645,-288,0
846,724,-355,0
782,620,-294,0
830,538,-245,0
911,538,-171,0
963,478,-96,0
991,351,-15,0
955,333,-4,0
900,370,48,0
844,355,80,0
906,283,60,0
1137,444,46,0
787,543,206,0
601,564,382,0
757,450,216,0
987,300,-76,0
1085,290,-27,0
974,403,66,0
820,483,101,0
811,489,84,0
833,497,5,0
828,474,-5,0
793,480,13,0
746,478,57,0
740,497,50,0
837,505,43,0
851,529,17,0
885,546,98,0
982,533,78,0
1187,583,-50,0
1290,588,-77,0
817,470,3,0
655,443,0,0
883,516,-125,0
1038,542,-120,0
984,387,-167,0
948,366,-110,0
929,388,-83,0
896,402,-32,0
851,420,33,0
767,390,63,0
702,338,51,0
686,300,50,0
728,335,98,0
774,398,163,0
1112,461,80,0
1431,573,55,0
1125,588,182,0
963,556,188,0
949,480,25,0
941,378,10,0
898,382,13,0
802,476,-43,0
767,515,-52,0
734,435,-46,0
674,432,-43,0
632,503,37,0
644,527,86,0
724,593,137,0
782,572,169,0
864,508,143,0
895,450,106,0
856,441,86,0
1133,550,61,0
1235,616,-1,0
945,480,-58,0
782,422,-36,0
839,469,-46,0
980,489,-82,0
1049,469,-126,0
967,479,-113,0
853,476,-108,0
753,501,-128,0
682,664,-312,0
676,630,-431,0
759,921,-358,0
880,540,-316,0
866,-61,-86,0
1002,119,-65,0
1283,567,148,0
1420,572,889,0
1061,-157,651,0
885,-147,265,0
906,80,42,0
1014,417,14,0
1066,474,-21,0
971,538,-115,0
864,537,-178,0
789,423,-204,0
766,362,-175,0
799,385,-102,0
802,434,-32,0
773,532,73,0
821,632,144,0
885,638,141,0
1266,-405,631,0
1708,-243,626,0
1015,979,329,0
1069,406,171,0
892,196,23,0
846,405,-154,0
1002,526,-103,0
857,468,-390,0
658,492,-554,0
669,561,-680,0
739,580,-388,0
690,493,-328,0
664,471,-330,0
643,514,-243,0
619,439,-198,0
614,345,-206,0
648,266,-158,0
805,203,-74,0
1213,386,-21,0
1360,625,87,0
1091,641,245,0
961,487,393,0
991,207,294,0
1124,191,260,0
1096,310,133,0
926,578,1,0
766,636,-25,0
705,537,-42,0
650,466,-32,0
607,439,-27,0
592,484,4,0
617,515,50,0
708,538,85,0
879,521,45,0
892,429,-8,0
1071,475,17,0
1169,584,24,0
1034,595,23,0
875,567,31,0
810,560,42,0
954,538,-11,0
1097,543,-41,0
1029,485,-8,0
934,360,25,0
922,333,5,0
942,363,10,0
925,379,6,0
856,390,-11,0
798,379,-16,0
739,342,-24,0
691,290,-32,0
653,305,23,0
771,354,62,0
1080,459,22,0
1216,487,-7,0
1056,569,140,0
1046,649,301,0
998,443,40,0
973,278,13,0
955,329,43,0
876,476,17,0
756,495,26,0
652,511,98,0
619,379,68,0
570,475,18,0
609,481,53,0
834,522,55,0
941,549,6,0
1003,568,0,0
1340,708,33,0
1145,625,6,0
849,564,-14,0
1037,546,-66,0
912,439,-39,0
861,432,34,0
935,397,-4,0
1009,309,-85,0
1013,284,-99,0
947,307,-77,0
884,316,-79,0
848,398,-105,0
797,502,-56,0
661,648,-289,0
783,653,-429,0
986,268,138,0
1221,-806,672,0
1210,-655,608,0
1124,156,278,0
970,618,30,0
751,875,-12,0
591,878,79,0
557,568,-79,0
574,563,-176,0
549,506,-355,0
496,416,-405,0
466,300,-415,0
560,110,-396,0
687,136,-220,0
1235,580,185,0
1349,726,69,0
1420,705,177,0
1423,-732,668,0
1042,1713,316,0
830,661,-41,0
1023,352,145,0
1095,-28,213,0
890,210,272,0
794,553,182,0
842,500,173,0
886,450,58,0
890,395,28,0
843,354,69,0
825,325,84,0
820,247,41,0
796,210,-131,0
801,362,-246,0
978,798,-241,0
1063,959,-259,0
938,431,27,0
859,-121,658,0
1302,-296,1198,0
1509,-205,601,0
900,146,259,0
689,400,1,0
621,654,93,0
557,449,0,0
547,339,-36,0
555,344,-86,0
515,383,-88,0
628,414,-6,0
880,491,17,0
1025,471,-123,0
1250,512,-78,0
1440,708,83,0
944,589,101,0
766,491,203,0
1013,626,153,0
1130,776,65,0
921,478,92,0
755,314,136,0
757,357,68,0
883,416,1,0
953,365,-78,0
913,354,-67,0
875,355,-68,0
901,351,-124,0
973,342,-186,0
895,344,-162,0
1014,398,-139,0
1050,436,-166,0
895,444,-100,0
782,548,111,0
871,509,123,0
968,190,125,0
987,150,299,0
926,480,700,0
877,723,898,0
657,409,427,0
639,287,188,0
588,272,136,0
567,442,76,0
624,455,61,0
756,475,64,0
953,449,25,0
929,351,-62,0
1004,398,-23,0
1199,580,19,0
1136,631,-18,0
865,588,27,0
825,595,98,0
972,677,87,0
1037,582,69,0
899,356,115,0
851,334,182,0
904,374,98,0
959,321,33,0
900,202,-6,0
780,166,-112,0
717,383,-140,0
744,349,-211,0
814,411,-252,0
831,407,-247,0
1050,524,-193,0
1123,659,-214,0
893,742,-132,0
803,628,173,0
920,582,110,0
1005,477,-27,0
870,713,53,0
813,479,-216,0
692,-18,20,0
650,347,-176,0
572,460,-286,0
521,449,-285,0
505,413,-244,0
547,615,-192,0
748,686,-221,0
824,1053,-351,0
1191,509,-429,0
1389,652,-116,0
798,692,-142,0
630,660,-66,0
784,648,-98,0
920,775,-153,0
917,706,-125,0
794,575,-86,0
698,622,-11,0
703,512,-86,0
720,436,-61,0
699,568,-75,0
643,450,-142,0
688,281,-35,0
803,207,62,0
772,224,-64,0
893,270,-49,0
1142,457,48,0
1348,646,85,0
1161,645,301,0
916,494,501,0
877,389,551,0
989,364,351,0
953,547,165,0
872,531,137,0
766,429,137,0
710,386,115,0
692,382,67,0
655,451,19,0
635,478,47,0
645,489,69,0
744,472,138,0
867,435,92,0
809,373,53,0
1110,489,123,0
1306,657,84,0
1011,562,76,0
749,439,135,0
828,525,111,0
1085,589,54,0
1049,506,53,0
847,412,87,0
763,372,103,0
827,382,37,0
881,358,-27,0
851,369,-24,0
790,349,-16,0
819,375,-30,0
854,372,-68,0
751,347,-38,0
955,454,-9,0
1169,646,81,0
1004,598,177,0
931,552,666,0
1142,-295,491,0
1147,-505,471,0
902,747,627,0
684,704,394,0
515,457,101,0
484,488,-10,0
588,175,31,0
660,-97,121,0
662,97,151,0
685,467,250,0
752,555,212,0
855,537,262,0
897,417,243,0
1151,387,200,0
1304,506,186,0
1082,652,121,0
898,681,222,0
837,602,285,0
1046,643,199,0
1091,564,154,0
876,388,170,0
781,353,173,0
850,381,98,0
881,369,32,0
849,368,31,0
794,362,17,0
841,405,37,0
935,385,-88,0
951,374,-111,0
1080,368,-104,0
1166,404,-32,0
918,381,135,0
769,276,244,0
909,249,326,0
983,185,244,0
912,217,193,0
844,240,193,0
769,236,117,0
738,392,160,0
732,502,187,0
768,549,200,0
767,516,221,0
792,450,198,0
846,453,187,0
998,498,92,0
999,521,52,0
1172,566,99,0
1096,575,33,0
895,507,-17,0
953,535,-10,0
1095,641,-8,0
1039,568,-9,0
911,435,11,0
870,322,15,0
924,279,-51,0
978,308,-66,0
974,352,-46,0
896,355,-24,0
816,354,-7,0
770,327,-127,0
745,288,-191,0
783,289,-94,0
1006,386,27,0
935,357,181,0
917,340,244,0
1099,493,411,0
1196,470,321,0
1113,404,260,0
912,389,232,0
754,329,139,0
724,358,110,0
743,445,105,0
718,523,82,0
637,541,100,0
638,542,112,0
798,573,135,0
915,526,63,0
1005,448,-3,0
1459,541,5,0
1299,550,-41,0
950,451,-13,0
778,478,70,0
813,571,60,0
967,578,0,0
994,499,-7,0
914,413,53,0
833,251,-4,0
830,240,8,0
872,281,4,0
905,319,-15,0
904,323,-33,0
879,322,-54,0
876,325,-78,0
936,348,-68,0
1068,403,-63,0
961,437,32,0
788,430,173,0
933,459,195,0
1077,439,126,0
977,384,135,0
856,382,257,0
782,422,191,0
768,461,208,0
775,475,212,0
776,498,215,0
744,496,233,0
719,484,230,0
776,481,215,0
919,457,142,0
983,435,77,0
1287,512,86,0
915,428,-19,0
797,407,19,0
918,486,-28,0
1019,575,-39,0
967,482,-8,0
856,455,42,0
818,377,57,0
851,266,-10,0
884,265,-20,0
853,315,10,0
823,344,14,0
786,327,-30,0
767,327,-41,0
782,384,30,0
986,435,68,0
1175,487,75,0
964,442,109,0
870,493,296,0
1083,542,298,0
1072,418,112,0
917,337,142,0
826,374,100,0
747,439,76,0
688,451,101,0
649,463,132,0
617,475,151,0
685,478,208,0
771,482,250,0
857,450,199,0
899,379,96,0
1025,440,99,0
1358,609,94,0
1097,564,15,0
772,439,53,0
861,493,50,0
1094,590,-12,0
1085,483,-24,0
973,412,26,0
925,360,-3,0
947,396,-42,0
964,420,-52,0
915,440,-63,0
814,394,-40,0
723,345,-22,0
658,308,-21,0
640,296,-21,0
700,364,69,0
923,486,86,0
1069,531,-1,0
942,660,35,0
984,850,141,0
1074,786,-9,0
980,466,-19,0
926,281,87,0
845,350,26,0
780,517,-4,0
674,479,35,0
580,465,75,0
585,481,141,0
716,580,236,0
783,625,268,0
868,523,184,0
1004,469,113,0
1268,507,60,0
1299,574,30,0
831,467,3,0
864,441,11,0
1037,538,-35,0
1102,575,-59,0
987,441,-32,0
860,354,-16,0
809,311,-11,0
812,304,-20,0
834,316,-37,0
829,319,-40,0
822,318,-56,0
810,309,-89,0
756,313,-97,0
775,357,-75,0
877,439,54,0
1158,534,193,0
1278,289,-10,0
935,535,433,0
988,786,787,0
1024,701,128,0
930,614,32,0
925,489,-82,0
893,451,-158,0
795,390,-120,0
710,334,-81,0
657,323,-114,0
609,412,-126,0
587,373,-5,0
595,414,150,0
685,425,206,0
886,570,200,0
979,566,212,0
1126,550,153,0
1288,585,77,0
1104,519,-15,0
796,462,30,0
776,458,41,0
1001,603,22,0
1097,598,15,0
993,397,-4,0
849,278,-20,0
811,317,-12,0
845,349,-49,0
884,357,-54,0
878,338,-41,0
857,302,-65,0
839,323,-138,0
857,324,-126,0
818,355,-2,0
960,436,123,0
1139,384,58,0
1130,286,18,0
926,415,166,0
801,598,340,0
806,523,305,0
942,420,185,0
963,419,123,0
861,428,96,0
762,451,67,0
740,441,50,0
696,417,47,0
652,465,63,0
605,468,71,0
651,516,92,0
797,575,139,0
959,545,70,0
1050,490,49,0
1282,593,95,0
979,529,58,0
772,451,49,0
946,521,12,0
1117,596,-41,0
1048,505,-24,0
916,445,9,0
844,371,22,0
846,278,-5,0
874,303,0,0
857,301,7,0
894,361,11,0
945,441,-36,0
838,364,-62,0
682,326,12,0
616,416,133,0
742,511,194,0
1170,563,154,0
1349,551,135,0
772,412,347,0
864,280,296,0
1216,312,21,0
1129,446,10,0
887,419,48,0
709,362,-19,0
644,403,-87,0
649,455,-91,0
632,391,-75,0
617,444,-7,0
624,508,52,0
781,637,143,0
1002,561,99,0
1247,546,56,0
1226,674,13,0
788,530,60,0
718,496,71,0
868,553,56,0
984,520,26,0
1013,505,30,0
979,473,52,0
888,396,66,0
847,350,67,0
859,340,23,0
898,378,26,0
881,316,-9,0
834,327,-29,0
776,294,-69,0
818,336,-70,0
896,381,-5,0
990,397,32,0
1140,451,98,0
1021,305,169,0
1050,246,145,0
835,591,329,0
846,337,180,0
907,526,196,0
913,463,119,0
801,417,84,0
735,414,112,0
730,404,84,0
739,416,104,0
715,432,128,0
665,465,167,0
700,507,232,0
858,518,236,0
1033,470,138,0
1349,551,126,0
1127,494,74,0
605,391,70,0
763,418,73,0
1149,568,-12,0
1162,580,-44,0
974,425,-4,0
926,384,16,0
912,335,-50,0
892,339,-48,0
877,369,-17,0
830,357,9,0
796,365,7,0
716,372,26,0
771,324,24,0
892,440,85,0
799,463,197,0
797,295,233,0
1013,258,294,0
1295,404,325,0
1160,435,366,0
894,313,353,0
762,533,214,0
870,631,10,0
927,589,-8,0
804,479,1,0
709,436,-7,0
688,427,23,0
681,411,41,0
671,433,79,0
662,462,127,0
638,496,189,0
646,491,275,0
778,457,348,0
916,447,283,0
1124,536,251,0
1336,668,214,0
882,541,142,0
822,465,160,0
1024,553,89,0
1097,554,57,0
992,468,78,0
908,386,96,0
871,372,79,0
887,390,48,0
924,405,3,0
915,436,-13,0
882,418,-1,0
850,454,-16,0
764,368,-86,0
717,305,-129,0
712,320,-58,0
769,326,122,0
1014,273,184,0
1365,245,171,0
1092,513,281,0
846,612,1066,0
1138,146,269,0
1112,382,-21,0
984,473,147,0
919,453,-25,0
838,467,-114,0
761,459,-102,0
703,388,-102,0
659,393,-89,0
593,436,-31,0
559,452,20,0
748,521,76,0
980,585,39,0
1202,585,52,0
1212,615,42,0
859,628,91,0
762,646,128,0
953,653,92,0
1104,642,6,0
1072,541,-36,0
991,412,0,0
922,331,-8,0
903,369,-20,0
888,381,-50,0
846,356,-52,0
802,341,-45,0
823,303,-61,0
843,246,-135,0
794,320,-107,0
876,415,9,0
976,459,36,0
1054,456,50,0
851,544,259,0
902,655,486,0
1084,547,313,0
1099,418,175,0
951,394,129,0
810,444,63,0
765,448,2,0
687,432,-1,0
624,463,-1,0
580,487,32,0
628,502,56,0
905,545,31,0
972,485,-110,0
975,484,-24,0
1142,574,56,0
1039,593,-22,0
902,528,-41,0
1027,524,-49,0
1176,582,-75,0
1059,533,-13,0
887,366,7,0
805,291,-2,0
847,349,-5,0
937,368,-22,0
954,356,-33,0
856,351,-22,0
786,338,-37,0
760,327,-60,0
766,329,-39,0
881,385,-27,0
1096,477,-7,0
1078,502,97,0
839,490,253,0
970,515,262,0
1016,415,93,0
984,417,127,0
934,466,141,0
835,473,66,0
772,446,59,0
756,404,35,0
733,416,70,0
681,443,111,0
631,476,135,0
661,499,198,0
849,485,209,0
991,414,56,0
1248,520,72,0
1202,619,60,0
825,513,40,0
794,471,41,0
919,508,-28,0
1020,549,-79,0
1055,506,-60,0
1006,452,-79,0
961,378,-79,0
978,398,-68,0
1026,381,-84,0
1010,364,-110,0
915,366,-120,0
814,357,-86,0
717,339,-44,0
675,327,-16,0
669,373,56,0
698,433,156,0
924,443,167,0
1168,438,58,0
982,481,205,0
800,510,446,0
1151,468,245,0
1209,398,-40,0
1009,372,25,0
915,402,25,0
831,486,-20,0
819,517,-40,0
758,452,-59,0
630,422,-60,0
630,457,-25,0
687,492,-33,0
762,563,61,0
925,603,102,0
882,537,68,0
921,501,110,0
1125,618,70,0
1093,640,-21,0
953,541,-17,0
922,505,-32,0
1018,565,-58,0
1136,576,-65,0
1144,467,-69,0
1080,355,-64,0
1012,300,-39,0
977,316,-28,0
934,323,-47,0
844,343,-42,0
753,330,-9,0
668,306,-23,0
654,371,0,0
655,462,0,0
606,560,60,0
828,616,89,0
966,649,62,0
1024,576,-7,0
903,545,58,0
971,594,237,0
1119,500,106,0
1070,479,-31,0
958,472,-1,0
815,484,-4,0
736,476,-11,0
696,463,-22,0
656,477,-10,0
620,499,42,0
615,560,102,0
703,629,184,0
910,617,166,0
997,519,68,0
1094,510,105,0
1244,583,95,0
962,527,31,0
823,464,25,0
1029,510,-34,0
1200,605,-76,0
1079,483,-57,0
973,371,-22,0
938,333,-60,0
932,438,-86,0
923,477,-88,0
862,478,-57,0
756,480,-43,0
676,446,-27,0
676,409,-67,0
669,407,-76,0
622,412,71,0
852,474,149,0
1009,539,200,0
946,424,248,0
953,318,273,0
1066,379,238,0
1076,405,129,0
1023,426,104,0
963,504,90,0
851,358,17,0
756,450,-46,0
742,423,-39,0
741,372,-31,0
771,379,-26,0
702,493,-14,0
813,658,83,0
1159,853,147,0
1438,926,75,0
1064,482,64,0
919,391,180,0
846,566,33,0
942,645,-50,0
1087,454,18,0
1091,461,-2,0
1015,372,-70,0
999,337,-111,0
1008,337,-129,0
977,336,-139,0
922,335,-149,0
809,350,-320,0
719,328,-330,0
712,280,-331,0
783,395,-207,0
995,521,-69,0
1049,501,87,0
754,553,419,0
868,528,517,0
1091,357,498,0
1049,188,460,0
908,263,327,0
821,352,242,0
782,432,132,0
764,493,68,0
758,564,86,0
731,546,81,0
721,528,94,0
721,569,134,0
850,601,144,0
997,529,42,0
1296,600,66,0
1189,571,59,0
762,434,63,0
836,496,35,0
1118,540,-33,0
1194,490,-55,0
1072,420,-26,0
966,415,-24,0
915,361,-35,0
935,323,-39,0
953,353,-98,0
864,436,-132,0
724,482,-126,0
664,471,-73,0
698,448,-68,0
693,505,-2,0
609,566,211,0
746,537,299,0
1066,429,226,0
1143,302,222,0
903,384,312,0
820,552,378,0
894,477,183,0
972,319,53,0
1018,399,78,0
916,480,55,0
759,489,65,0
721,495,54,0
707,399,53,0
710,429,90,0
645,505,152,0
630,542,259,0
752,584,262,0
931,536,223,0
1087,515,163,0
1434,610,156,0
1173,556,59,0
783,453,86,0
757,526,132,0
907,545,63,0
1022,480,53,0
1006,454,42,0
938,351,42,0
896,291,9,0
908,369,8,0
969,381,-13,0
963,366,-32,0
916,350,-17,0
893,348,0,0
849,339,-18,0
744,356,50,0
813,378,141,0
993,426,111,0
858,383,156,0
753,388,274,0
921,524,309,0
1079,495,261,0
1038,497,239,0
908,521,254,0
809,478,173,0
792,499,156,0
785,475,141,0
740,491,158,0
695,385,195,0
642,563,172,0
708,567,223,0
896,513,190,0
969,512,98,0
1195,574,98,0
1186,569,97,0
850,442,28,0
834,435,34,0
990,526,9,0
1126,531,-20,0
1095,468,-1,0
990,348,-28,0
902,328,-26,0
902,338,-42,0
930,387,-53,0
935,344,-61,0
884,365,-73,0
823,336,-98,0
790,312,-124,0
739,315,-97,0
775,382,12,0
931,444,90,0
1014,351,84,0
946,424,301,0
912,595,586,0
1059,519,434,0
1188,377,177,0
1070,443,157,0
904,565,80,0
797,564,0,0
754,452,-12,0
728,389,-46,0
680,413,-17,0
619,432,-5,0
617,494,41,0
706,527,97,0
812,525,84,0
910,505,34,0
1316,641,46,0
1151,583,15,0
848,512,84,0
886,486,51,0
1084,567,-2,0
1145,576,5,0
1054,520,39,0
907,406,17,0
862,266,-11,0
902,305,-14,0
966,341,-30,0
883,412,-47,0
740,433,-88,0
630,398,-137,0
600,400,-121,0
636,467,71,0
818,526,125,0
1064,573,119,0
1094,537,175,0
926,547,304,0
946,572,320,0
975,488,224,0
974,472,176,0
910,478,127,0
854,473,79,0
793,423,42,0
763,390,27,0
720,408,16,0
690,424,45,0
650,448,79,0
617,463,123,0
698,485,191,0
889,461,134,0
1074,446,23,0
1381,580,27,0
1122,526,-22,0
729,434,-32,0
672,502,0,0
908,618,-15,0
1142,646,-68,0
1148,588,-91,0
979,322,-135,0
865,335,-83,0
886,405,-100,0
938,394,-193,0
855,396,-247,0
829,439,-55,0
703,396,-11,0
653,457,-78,0
620,534,-8,0
803,611,64,0
1043,503,4,0
959,443,94,0
867,548,257,0
938,571,282,0
1014,335,160,0
991,338,48,0
898,441,36,0
798,440,8,0
770,418,-6,0
786,434,21,0
788,486,39,0
721,589,156,0
684,623,299,0
759,605,334,0
910,533,205,0
1075,585,143,0
1271,640,94,0
1045,524,2,0
912,457,-28,0
919,524,-48,0
1045,561,-57,0
1081,589,-47,0
1016,461,-19,0
958,277,-30,0
938,301,36,0
939,332,28,0
878,316,-4,0
792,300,10,0
781,291,11,0
856,304,19,0
924,332,29,0
898,349,32,0
955,437,163,0
1155,528,246,0
1054,378,175,0
843,149,119,0
911,289,166,0
1018,447,98,0
932,412,3,0
852,451,34,0
842,466,35,0
847,469,17,0
815,477,5,0
804,509,72,0
786,522,124,0
744,517,192,0
736,549,244,0
788,505,232,0
844,506,205,0
1055,619,191,0
1202,670,154,0
938,543,87,0
862,530,71,0
918,534,9,0
892,533,-15,0
986,529,-32,0
1056,457,-66,0
1001,358,-118,0
926,391,-95,0
916,443,-95,0
927,439,-120,0
906,499,-108,0
832,427,-80,0
772,337,-40,0
731,334,-27,0
699,370,11,0
741,400,102,0
874,407,151,0
1183,378,5,0
1106,402,72,0
753,448,243,0
888,546,286,0
1137,427,109,0
1069,359,15,0
918,465,118,0
845,472,54,0
805,454,-5,0
782,465,1,0
765,492,27,0
765,526,54,0
706,544,107,0
668,565,182,0
809,569,181,0
999,484,59,0
1104,523,37,0
1213,628,33,0
960,518,-39,0
894,466,-86,0
1046,535,-107,0
1118,557,-107,0
1030,507,-90,0
967,457,-125,0
933,423,-145,0
942,467,-157,0
954,459,-183,0
927,476,-161,0
885,461,-152,0
833,408,-143,0
737,351,-125,0
611,331,-93,0
561,371,8,0
782,474,116,0
934,443,167,0
785,371,320,0
894,361,416,0
1233,379,400,0
1213,311,280,0
1093,397,218,0
962,499,183,0
845,479,87,0
792,483,71,0
755,498,56,0
700,512,59,0
638,529,110,0
645,541,172,0
792,594,214,0
959,495,133,0
926,411,81,0
1118,563,90,0
1219,603,65,0
1002,485,10,0
874,454,-23,0
986,548,-29,0
1035,568,-47,0
983,521,-40,0
957,429,-61,0
932,350,-111,0
978,474,-90,0
967,443,-270,0
925,574,-84,0
759,439,-199,0
662,472,-91,0
579,390,-72,0
554,369,0,0
537,443,166,0
672,574,259,0
935,568,231,0
1114,330,189,0
1073,310,250,0
1227,519,337,0
1308,465,120,0
1124,408,-12,0
947,441,-14,0
808,432,-71,0
726,442,-103,0
711,440,-134,0
717,464,-112,0
706,470,-80,0
688,496,-26,0
704,594,61,0
785,627,127,0
909,508,25,0
1137,601,52,0
1207,680,55,0
894,572,44,0
976,536,-15,0
1166,571,-55,0
1111,550,-81,0
977,472,-58,0
887,401,-42,0
890,384,-47,0
946,372,-59,0
1004,342,-97,0
1033,332,-104,0
1013,329,-139,0
938,289,-159,0
865,261,-184,0
749,275,-156,0
846,343,-123,0
1002,375,-122,0
834,478,136,0
847,665,419,0
983,549,295,0
1078,223,165,0
998,135,140,0
907,310,172,0
840,414,117,0
802,479,121,0
760,521,144,0
730,506,138,0
749,482,161,0
751,480,169,0
828,526,222,0
987,518,158,0
946,411,20,0
1029,449,83,0
1205,597,62,0
1022,558,-16,0
875,431,-27,0
974,496,-45,0
1090,583,-74,0
1092,505,-68,0
1024,443,-65,0
958,397,-82,0
974,399,-90,0
1006,442,-95,0
993,467,-90,0
891,441,-72,0
770,395,-49,0
708,345,-25,0
693,301,-33,0
655,310,29,0
722,398,123,0
797,437,195,0
857,486,298,0
967,573,480,0
1189,457,263,0
1272,240,2,0
1163,280,2,0
972,358,5,0
850,502,52,0
803,550,13,0
729,490,-30,0
689,483,-30,0
658,529,34,0
601,553,135,0
720,713,320,0
897,719,304,0
948,356,198,0
1325,289,179,0
1053,405,75,0
881,483,-5,0
1090,597,-4,0
1099,675,47,0
955,496,61,0
918,428,16,0
947,531,-71,0
1055,765,-134,0
1190,508,-150,0
1167,311,17,0
986,193,99,0
792,223,58,0
653,208,44,0
567,123,87,0
560,114,250,0
841,230,311,0
1037,282,319,0
993,168,289,0
1026,340,366,0
1210,654,484,0
1189,587,249,0
1143,435,174,0
995,373,162,0
878,331,107,0
855,370,119,0
800,436,107,0
725,446,106,0
668,434,104,0
588,458,113,0
602,492,187,0
763,492,234,0
1000,432,149,0
1335,389,3,0
1294,494,14,0
871,447,-4,0
880,465,16,0
991,556,-57,0
1038,526,-25,0
945,398,-29,0
860,285,-73,0
876,371,-77,0
945,392,-99,0
982,452,-116,0
940,456,-119,0
828,395,-122,0
698,371,-122,0
657,409,-64,0
765,468,66,0
1016,521,147,0
1026,467,114,0
906,455,250,0
872,469,358,0
962,335,221,0
993,208,139,0
957,270,139,0
859,387,116,0
756,421,123,0
713,375,73,0
759,473,72,0
768,496,71,0
756,509,113,0
795,550,193,0
857,617,232,0
969,610,167,0
901,490,79,0
1132,550,114,0
1264,649,30,0
1087,616,10,0
812,516,66,0
806,527,43,0
1039,607,5,0
1156,564,-24,0
1123,367,-63,0
1057,249,-101,0
1006,282,-261,0
862,514,-269,0
842,577,-167,0
857,404,-138,0
874,481,-19,0
867,430,-18,0
804,407,7,0
678,430,205,0
733,457,344,0
908,402,395,0
823,169,421,0
1003,-38,277,0
1250,104,154,0
1194,259,11,0
1034,393,-72,0
940,551,14,0
922,517,-57,0
931,488,-157,0
957,530,-158,0
912,586,-122,0
817,621,-74,0
788,668,-5,0
885,634,-52,0
1143,627,-28,0
1167,716,-95,0
916,722,-164,0
996,743,-189,0
993,713,-237,0
1043,684,-181,0
1070,613,-128,0
1067,492,-126,0
1069,271,-203,0
1079,212,-159,0
1054,267,-132,0
1008,337,-131,0
950,333,-155,0
887,304,-152,0
801,275,-135,0
707,275,-100,0
788,329,-17,0
1057,423,-45,0
756,490,237,0
727,336,322,0
1136,434,243,0
1228,599,287,0
1022,582,177,0
861,737,149,0
737,702,35,0
720,636,-51,0
728,554,-54,0
701,508,-42,0
680,557,0,0
648,558,40,0
666,588,98,0
778,578,150,0
933,442,39,0
958,381,11,0
1196,534,65,0
1177,600,-3,0
885,462,-48,0
798,444,2,0
879,543,-13,0
1028,579,-11,0
1060,546,30,0
1041,413,-3,0
959,251,-51,0
895,307,-38,0
873,419,-25,0
821,478,-26,0
773,482,-39,0
765,528,-52,0
703,535,-37,0
643,529,4,0
602,551,63,0
638,588,187,0
793,563,212,0
946,495,80,0
915,490,87,0
811,525,171,0
903,577,232,0
1009,520,170,0
1008,419,50,0
938,422,52,0
820,429,48,0
755,417,43,0
752,424,37,0
747,439,37,0
721,457,83,0
672,480,135,0
683,530,208,0
772,551,274,0
922,467,194,0
976,345,70,0
1385,496,72,0
1297,614,31,0
917,471,28,0
754,458,108,0
839,541,37,0
1017,533,-28,0
1051,480,-21,0
980,378,-53,0
908,368,-51,0
885,425,-67,0
894,420,-35,0
881,403,17,0
829,416,15,0
792,387,8,0
755,362,11,0
697,349,47,0
872,399,100,0
1017,473,65,0
1054,448,53,0
1009,499,240,0
939,524,380,0
893,333,239,0
959,275,156,0
963,387,123,0
878,475,79,0
785,462,83,0
731,418,80,0
723,371,83,0
739,410,33,0
712,505,87,0
671,540,152,0
765,592,208,0
895,564,183,0
795,429,105,0
1056,470,105,0
1406,625,61,0
1178,562,-31,0
929,441,13,0
965,492,-7,0
1051,575,-37,0
979,518,-27,0
885,405,0,0
883,394,-31,0
935,456,-64,0
915,498,-33,0
811,490,-7,0
670,466,19,0
622,434,22,0
711,437,13,0
736,484,52,0
767,475,101,0
925,479,118,0
1044,509,80,0
967,514,148,0
946,459,181,0
969,375,98,0
985,400,76,0
967,460,109,0
891,448,59,0
810,422,41,0
780,424,21,0
724,444,15,0
690,473,34,0
680,520,80,0
731,527,132,0
747,544,217,0
872,495,208,0
942,405,133,0
1047,455,153,0
1250,595,154,0
1088,579,84,0
846,470,93,0
791,490,97,0
926,575,48,0
1118,604,25,0
1158,524,-32,0
1060,351,-65,0
977,296,-49,0
971,360,-50,0
956,411,-45,0
884,415,-69,0
794,438,-50,0
711,396,-61,0
633,367,-39,0
630,419,48,0
759,484,130,0
975,508,156,0
1033,484,166,0
896,405,263,0
882,413,301,0
947,447,268,0
987,389,165,0
1030,410,167,0
946,411,149,0
822,376,85,0
786,417,85,0
775,413,39,0
748,440,46,0
690,492,129,0
686,494,203,0
709,528,245,0
811,527,279,0
913,432,137,0
914,410,88,0
1229,576,132,0
1227,672,64,0
949,518,44,0
823,485,77,0
862,532,29,0
1067,570,-9,0
1133,536,0,0
1093,517,-22,0
1060,559,-67,0
1085,441,-22,0
1026,483,-10,0
895,541,-49,0
721,475,-33,0
592,339,11,0
563,270,-9,0
582,289,-20,0
670,309,-40,0
831,410,28,0
924,403,24,0
1005,452,116,0
1230,581,210,0
1286,526,112,0
1162,309,48,0
1130,389,183,0
1029,431,117,0
888,481,76,0
796,489,51,0
730,481,31,0
711,464,34,0
691,491,78,0
695,501,121,0
731,557,184,0
822,541,217,0
1003,459,113,0
1070,424,72,0
1244,514,127,0
1067,512,61,0
858,463,5,0
878,530,13,0
1027,629,-15,0
1107,564,-31,0
998,408,-74,0
882,304,-58,0
888,367,-51,0
923,438,-88,0
926,443,-85,0
864,454,-61,0
824,468,-72,0
737,446,-60,0
652,436,-16,0
596,447,77,0
829,491,95,0
1001,560,99,0
818,481,211,0
816,482,291,0
968,548,337,0
1017,402,255,0
1041,258,141,0
858,372,101,0
770,430,107,0
721,446,95,0
693,460,93,0
683,470,102,0
776,492,155,0
854,522,200,0
826,590,376,0
911,470,353,0
928,306,154,0
1062,347,132,0
1117,554,161,0
834,508,90,0
730,476,99,0
825,577,58,0
1030,729,2,0
1172,669,-79,0
1151,462,-174,0
1071,267,-81,0
1045,306,-11,0
1059,425,-38,0
1068,468,-61,0
1003,410,10,0
936,411,85,0
938,404,142,0
967,316,118,0
779,229,180,0
835,286,255,0
846,306,248,0
751,265,177,0
640,274,122,0
728,365,131,0
1040,421,28,0
1296,435,-191,0
1355,549,-163,0
1191,603,-8,0
979,559,3,0
880,502,3,0
821,537,12,0
778,592,50,0
699,700,189,0
706,735,305,0
762,654,298,0
963,476,146,0
1018,357,36,0
1254,455,60,0
1280,685,99,0
997,659,69,0
834,563,-63,0
923,509,-173,0
1138,490,-197,0
1182,503,-146,0
1127,463,-158,0
1019,434,-176,0
973,413,-218,0
920,506,-262,0
862,642,-270,0
744,667,-199,0
691,485,-116,0
606,333,-69,0
569,354,-15,0
503,99,-22,0
715,553,418,0
800,255,164,0
885,367,353,0
1024,290,387,0
1305,295,336,0
1410,441,259,0
1295,482,178,0
1084,590,148,0
909,450,75,0
869,298,15,0
864,269,-8,0
773,381,-91,0
675,591,-51,0
640,760,79,0
710,808,219,0
786,639,244,0
981,460,120,0
1201,445,33,0
1342,525,38,0
1110,570,8,0
1011,504,-48,0
949,495,-29,0
980,479,-27,0
1084,472,-41,0
1091,455,-65,0
997,333,-64,0
924,219,-71,0
902,283,-54,0
887,327,-55,0
828,318,-70,0
745,294,-79,0
704,286,-80,0
741,297,-82,0
717,326,-68,0
816,365,-36,0
1059,588,121,0
1070,583,165,0
1011,542,119,0
1176,177,195,0
1106,1336,862,0
833,995,191,0
894,535,-77,0
737,381,-86,0
577,382,-168,0
507,419,-224,0
529,407,-219,0
552,432,-187,0
604,459,-138,0
808,486,63,0
1054,644,846,0
847,992,601,0
845,826,275,0
1126,731,74,0
1009,757,-40,0
813,290,-203,0
739,241,-118,0
862,399,-66,0
1043,625,-117,0
963,613,-142,0
815,477,-114,0
768,418,-78,0
774,444,-130,0
726,342,-192,0
603,608,-474,0
521,772,-695,0
516,899,-584,0
650,1133,-301,0
692,887,-103,0
632,797,-86,0
769,614,-288,0
792,313,-243,0
766,162,57,0
879,5,224,0
1084,106,197,0
1236,310,63,0
1226,452,-91,0
1049,525,-111,0
870,498,-46,0
793,427,-75,0
804,391,-122,0
757,396,-137,0
646,421,-108,0
576,445,-70,0
618,579,69,0
764,665,191,0
939,739,93,0
1061,946,225,0
1349,931,237,0
1072,836,94,0
922,738,76,0
796,558,-17,0
923,525,-99,0
1053,524,-104,0
1068,456,-141,0
1010,344,-166,0
961,298,-169,0
916,264,-162,0
926,232,-168,0
873,228,-201,0
812,277,-222,0
673,380,-247,0
585,420,-331,0
515,498,-381,0
744,666,-373,0
1061,729,-391,0
977,956,-235,0
777,1218,78,0
778,1608,486,0
1225,137,-195,0
1085,-379,117,0
837,-412,184,0
771,252,203,0
764,712,322,0
666,493,141,0
648,474,61,0
636,405,-20,0
615,409,-41,0
712,466,-25,0
802,442,-45,0
1003,370,-123,0
901,342,-185,0
1069,422,-92,0
1339,667,-51,0
1199,714,-95,0
996,742,-8,0
752,714,71,0
743,685,35,0
916,664,-18,0
945,532,-36,0
872,460,9,0
866,418,7,0
919,419,-45,0
968,427,-83,0
974,396,-73,0
962,360,-76,0
1010,370,-91,0
964,418,-13,0
862,445,106,0
930,435,139,0
1057,444,91,0
891,389,169,0
741,326,213,0
741,375,218,0
799,382,154,0
891,387,99,0
901,424,130,0
776,404,113,0
714,375,82,0
744,397,59,0
747,434,60,0
711,457,100,0
654,503,150,0
698,539,207,0
787,531,234,0
939,479,125,0
987,477,47,0
1291,576,55,0
1200,602,18,0
932,547,6,0
904,553,22,0
873,552,12,0
958,527,-25,0
1028,511,-37,0
995,431,16,0
888,338,-85,0
851,425,-164,0
873,514,-178,0
904,520,-210,0
836,551,-189,0
764,508,-177,0
724,405,-182,0
719,353,-168,0
730,427,-100,0
839,556,0,0
880,675,98,0
840,584,100,0
826,360,102,0
917,263,141,0
1039,342,179,0
1050,449,162,0
931,439,87,0
862,414,62,0
842,392,73,0
783,390,14,0
730,423,74,0
653,490,78,0
650,560,193,0
760,637,318,0
860,602,330,0
1034,496,216,0
1055,404,113,0
1177,457,104,0
1112,540,77,0
925,490,34,0
962,451,-15,0
1059,508,-78,0
1033,522,-86,0
932,620,-33,0
924,710,-97,0
973,609,-178,0
1036,278,-155,0
1038,176,-13,0
929,282,106,0
739,428,157,0
532,618,-11,0
460,648,109,0
496,329,370,0
498,133,462,0
880,-445,936,0
1738,-398,1476,0
1492,-235,860,0
1104,345,372,0
1102,539,158,0
1186,504,-29,0
1121,383,-278,0
945,411,-275,0
794,434,-226,0
723,427,-219,0
712,373,-246,0
693,280,-264,0
659,237,-310,0
647,370,-73,0
709,386,-86,0
852,490,-90,0
998,649,116,0
1185,647,198,0
1208,841,447,0
1330,850,598,0
933,885,379,0
748,795,154,0
844,659,48,0
1053,693,-61,0
1104,596,-177,0
1059,526,-218,0
1015,494,-224,0
1016,499,-240,0
1009,483,-240,0
941,446,-190,0
824,412,-144,0
726,364,-125,0
644,321,-110,0
614,308,-9,0
584,377,203,0
780,482,355,0
987,468,265,0
887,266,452,0
1145,228,662,0
1550,189,396,0
1502,264,82,0
1188,456,82,0
978,94,-148,0
848,227,-325,0
780,628,-679,0
664,842,-623,0
560,534,-544,0
466,354,-416,0
485,413,-406,0
615,499,-482,0
820,523,-535,0
835,574,-466,0
1078,696,-411,0
1226,669,-304,0
1096,428,-314,0
943,422,-189,0
928,510,-138,0
1036,935,-181,0
1169,883,-387,0
1151,344,-329,0
1107,-43,-33,0
1074,74,287,0
992,121,346,0
820,123,431,0
665,58,460,0
579,57,569,0
503,114,700,0
438,69,725,0
392,22,680,0
456,-20,689,0
626,-20,769,0
629,-146,664,0
770,-367,97,0
1143,30,-45,0
1221,684,50,0
1127,673,53,0
1006,680,0,0
920,652,-120,0
926,596,-236,0
1033,597,-340,0
1024,639,-402,0
909,654,-463,0
745,762,-255,0
727,752,-179,0
775,794,-149,0
1063,750,-231,0
1101,624,-256,0
952,717,-78,0
903,764,79,0
816,660,44,0
969,653,12,0
1145,652,-18,0
1136,463,-125,0
1015,470,-144,0
970,617,-22,0
952,518,-148,0
904,491,-188,0
811,408,-82,0
704,302,-33,0
611,289,-12,0
590,274,15,0
644,326,57,0
875,379,12,0
1092,408,-53,0
1036,484,135,0
1151,539,204,0
1351,545,97,0
1182,394,45,0
1001,302,128,0
882,365,82,0
785,446,47,0
754,445,33,0
753,476,34,0
724,488,44,0
658,519,103,0
650,526,142,0
835,570,178,0
1049,499,78,0
1050,457,85,0
1367,671,175,0
998,607,14,0
809,406,-34,0
935,499,-12,0
1085,633,-42,0
1054,500,-63,0
1042,386,-84,0
1057,11,-164,0
890,-192,-294,0
899,687,-700,0
938,726,-548,0
932,470,-298,0
806,181,-217,0
677,154,-116,0
591,157,-105,0
519,162,-148,0
723,438,-209,0
983,807,-253,0
1124,715,-83,0
1232,1097,74,0
1207,1018,59,0
1039,463,-27,0
966,140,126,0
1016,501,13,0
982,510,-37,0
818,415,-76,0
644,326,-91,0
528,315,-9,0
517,324,-73,0
546,451,-72,0
628,568,42,0
872,659,92,0
966,607,-3,0
904,544,19,0
1237,584,73,0
1211,653,12,0
863,542,66,0
853,514,39,0
1015,602,-66,0
1164,615,-78,0
1113,454,-40,0
1039,232,-12,0
1006,211,85,0
1027,177,28,0
935,321,-54,0
844,404,-50,0
731,419,-53,0
664,365,-45,0
666,346,-50,0
712,367,14,0
771,405,138,0
1027,439,119,0
1156,415,127,0
1004,450,339,0
1139,571,465,0
1140,438,221,0
998,309,195,0
981,454,103,0
934,597,20,0
772,375,33,0
703,311,17,0
661,384,73,0
614,381,51,0
585,371,46,0
607,495,119,0
793,571,141,0
1036,510,-2,0
1116,543,-46,0
1323,708,126,0
1092,694,84,0
795,598,111,0
808,614,63,0
948,599,39,0
993,464,23,0
934,365,-22,0
920,405,-5,0
989,464,-26,0
1045,356,-32,0
1004,312,-38,0
969,324,-56,0
916,292,-48,0
876,278,-99,0
854,279,-127,0
911,439,0,0
1008,579,129,0
904,487,275,0
691,369,406,0
856,331,412,0
1122,241,193,0
1074,199,45,0
964,371,81,0
852,493,69,0
784,451,-1,0
801,471,-17,0
805,516,-40,0
765,516,-39,0
733,527,17,0
723,589,87,0
901,668,115,0
905,591,25,0
1086,609,108,0
1208,668,85,0
1009,611,30,0
915,554,42,0
953,547,-11,0
1102,583,-21,0
1135,518,-26,0
1057,407,-58,0
1009,340,-79,0
1036,380,-76,0
1084,430,-75,0
1027,431,-87,0
865,393,-46,0
720,330,-32,0
636,285,-40,0
596,304,3,0
662,370,92,0
835,461,204,0
851,471,345,0
861,345,384,0
1175,313,340,0
1398,313,181,0
1258,352,121,0
1083,412,116,0
927,434,44,0
832,482,8,0
775,505,-14,0
713,493,-19,0
677,502,9,0
641,501,37,0
668,565,128,0
789,583,153,0
964,540,71,0
1148,577,118,0
1306,624,121,0
961,543,51,0
805,496,84,0
897,531,49,0
1063,602,3,0
1188,548,-6,0
1156,388,-73,0
1055,256,-87,0
1004,269,-84,0
997,300,-117,0
963,320,-126,0
897,342,-102,0
848,330,-108,0
765,309,-121,0
689,341,-80,0
695,422,19,0
820,541,68,0
948,603,-2,0
834,641,10,0
753,665,68,0
836,697,183,0
859,457,65,0
844,551,41,0
1240,834,646,0
861,517,644,0
808,576,8,0
760,521,-106,0
671,299,-157,0
649,299,-159,0
695,348,-157,0
778,414,-70,0
821,457,114,0
885,420,221,0
948,452,266,0
919,538,213,0
845,524,104,0
784,500,40,0
770,542,28,0
769,480,65,0
793,392,186,0
977,588,226,0
1028,707,122,0
917,542,-51,0
871,241,-76,0
903,305,9,0
800,486,-95,0
744,690,-72,0
754,400,-61,0
781,339,-173,0
846,562,-261,0
912,716,-291,0
889,697,-324,0
797,691,-386,0
728,632,-505,0
651,712,-631,0
600,852,-788,0
592,628,-815,0
569,605,-718,0
712,954,-466,0
617,573,141,0
321,536,-200,0
39,453,-664,0
58,636,-826,0
122,761,-884,0
178,824,-817,0
302,769,-773,0
229,905,-882,0
96,949,-868,0
-20,842,-701,0
-41,803,-598,0
25,682,-524,0
88,522,-462,0
31,662,-491,0
-62,622,-394,0
-139,546,-231,0
-139,522,-130,0
-132,607,-216,0
-103,774,-380,0
-93,926,-415,0
-116,1068,-425,0
-181,841,-328,0
-232,726,-300,0
-236,883,-453,0
-222,935,-563,0
-213,939,-603,0
-131,1057,-719,0
-86,973,-782,0
-141,755,-698,0
-207,653,-611,0
-253,598,-522,0
-184,658,-534,0
9,884,-775,0
118,917,-842,0
95,641,-648,0
-4,486,-479,0
-70,614,-460,0
-90,732,-459,0
-71,813,-466,0
-55,810,-468,0
-16,815,-543,0
25,868,-579,0
71,878,-582,0
107,861,-532,0
165,888,-532,0
173,895,-465,0
151,787,-323,0
214,782,-228,0
289,692,-144,0
410,639,-172,0
526,592,-184,0
651,591,-168,0
775,607,-181,0
817,630,-253,0
824,682,-255,0
815,670,-259,0
833,688,-243,0
864,673,-199,0
861,635,-134,0
859,557,-75,0
875,583,-1,0
871,604,30,0
882,601,29,0
818,559,31,0
850,576,45,0
975,629,46,0
1017,609,-13,0
1106,565,-68,0
1105,537,-80,0
838,479,-68,0
741,423,-24,0
839,425,-50,0
1024,458,-115,0
1103,442,-171,0
993,339,-226,0
845,321,-260,0
778,416,-250,0
760,439,-323,0
778,429,-364,0
788,398,-377,0
768,404,-356,0
776,392,-384,0
798,429,-381,0
822,464,-350,0
826,545,-325,0
714,1274,332,0
680,1676,628,0
879,839,138,0
762,606,-10,0
812,535,-156,0
846,544,-153,0
892,345,-229,0
891,275,-293,0
909,303,-250,0
917,362,-252,0
874,406,-227,0
861,390,-248,0
817,425,-206,0
787,441,-192,0
794,489,-166,0
787,550,-114,0
760,601,-77,0
789,638,-2,0
840,648,21,0
827,612,35,0
824,587,84,0
968,619,92,0
985,600,24,0
1103,592,-14,0
1111,581,-68,0
848,483,-98,0
694,399,-64,0
783,428,-66,0
982,493,-105,0
1129,472,-179,0
1092,316,-234,0
911,203,-194,0
822,275,-118,0
827,355,-145,0
837,379,-212,0
837,404,-236,0
801,432,-246,0
753,462,-269,0
709,489,-258,0
644,545,-241,0
597,610,-165,0
640,653,-171,0
777,755,-168,0
910,1164,547,0
1003,1397,486,0
833,465,39,0
713,524,47,0
880,531,95,0
854,480,-45,0
792,449,-101,0
799,471,-163,0
847,504,-155,0
882,492,-129,0
840,475,-120,0
809,460,-75,0
807,454,-44,0
801,486,-6,0
776,493,25,0
776,494,40,0
798,553,21,0
819,583,-39,0
896,528,-109,0
924,571,-95,0
985,553,-176,0
1025,539,-292,0
902,467,-317,0
783,370,-320,0
714,346,-345,0
754,556,-362,0
725,443,-104,0
723,435,-159,0
700,755,-263,0
675,796,-295,0
613,797,-259,0
581,614,-121,0
539,669,-106,0
617,724,-268,0
529,778,-348,0
430,762,-319,0
439,754,-326,0
519,1020,-326,0
608,858,-205,0
577,688,-125,0
496,691,-151,0
500,651,-212,0
602,686,-222,0
688,886,-183,0
643,775,-96,0
648,697,58,0
665,555,-91,0
692,672,-193,0
701,815,-323,0
690,835,-367,0
619,710,-303,0
564,567,-139,0
553,534,-31,0
557,580,3,0
609,708,-93,0
638,706,-134,0
653,624,-77,0
667,544,-35,0
706,493,-29,0
772,588,-52,0
873,730,-99,0
964,723,-87,0
957,667,89,0
894,550,143,0
838,504,111,0
802,518,70,0
795,489,37,0
775,454,39,0
795,434,46,0
839,422,5,0
814,427,-36,0
761,451,-41,0
779,503,-37,0
895,557,-37,0
