AccX [mg],AccY,AccZ,Ground Truth
1294,438,226,0
1109,388,221,0
956,361,164,0
847,374,106,0
786,359,60,0
714,282,29,0
639,220,25,0
620,239,54,0
624,294,118,0
725,360,169,0
913,426,243,0
998,486,324,0
1331,630,419,0
1435,666,466,0
948,344,507,0
948,344,507,0
948,344,507,0
903,361,460,0
792,502,470,0
741,662,442,0
750,753,422,0
780,791,400,0
841,818,421,0
986,871,516,0
1134,842,528,0
1252,628,379,0
1401,523,306,0
1330,463,260,0
1139,434,229,0
972,406,204,0
847,380,144,0
776,381,85,0
749,350,47,0
721,287,33,0
688,273,84,0
688,273,84,0
704,337,150,0
828,415,201,0
921,435,272,0
1082,534,354,0
1403,588,405,0
1330,576,402,0
1055,536,436,0
937,444,461,0
893,475,405,0
797,532,399,0
698,624,450,0
700,723,487,0
821,783,522,0
931,725,500,0
1013,685,498,0
1160,807,603,0
1253,734,479,0
1392,571,289,0
1392,571,289,0
1307,500,255,0
1187,419,214,0
1014,339,129,0
885,312,55,0
813,341,28,0
769,326,9,0
723,282,-3,0
671,285,23,0
618,329,95,0
650,362,147,0
745,405,253,0
817,458,368,0
1140,560,430,0
1361,572,486,0
1112,595,559,0
932,452,606,0
937,285,569,0
950,288,523,0
788,636,620,0
788,636,620,0
825,792,618,0
871,824,584,0
937,772,545,0
1095,791,599,0
1247,746,573,0
1240,599,392,0
1307,557,317,0
1287,511,279,0
1115,440,212,0
955,368,157,0
846,362,113,0
766,387,72,0
729,352,36,0
698,278,22,0
664,238,34,0
678,278,94,0
704,345,199,0
928,385,339,0
928,385,339,0
1129,475,371,0
1378,615,454,0
1237,689,501,0
992,634,541,0
942,471,516,0
896,360,441,0
758,418,499,0
737,582,580,0
776,647,567,0
817,671,540,0
953,689,513,0
1058,778,584,0
1073,768,603,0
1228,639,425,0
1419,542,296,0
1397,460,247,0
1173,405,224,0
929,348,154,0
656,372,75,0
656,372,75,0
660,362,59,0
675,310,62,0
654,251,53,0
703,281,97,0
746,355,181,0
913,416,236,0
1074,473,317,0
1076,515,398,0
1370,601,429,0
1354,571,422,0
1069,498,416,0
875,431,439,0
786,504,465,0
743,557,480,0
716,535,489,0
669,525,475,0
709,623,498,0
864,703,492,0
1163,760,533,0
1163,760,533,0
1113,653,466,0
1201,606,337,0
1339,581,291,0
1276,490,260,0
1053,380,203,0
859,314,149,0
748,332,104,0
737,370,82,0
749,370,84,0
755,305,61,0
724,265,63,0
708,294,118,0
776,383,183,0
896,440,278,0
915,495,401,0
1141,541,454,0
1344,524,501,0
849,339,515,0
849,339,515,0
849,339,515,0
826,347,420,0
765,426,431,0
715,583,473,0
709,682,471,0
763,738,468,0
846,704,440,0
934,730,480,0
1091,812,583,0
1207,726,503,0
1304,581,356,0
1316,527,322,0
1129,449,268,0
991,405,220,0
860,356,178,0
777,368,138,0
751,372,109,0
742,322,72,0
733,275,71,0
700,251,98,0
697,274,134,0
779,340,176,0
927,436,256,0
1018,528,339,0
1343,642,398,0
1314,658,455,0
984,634,526,0
809,438,553,0
838,323,512,0
803,337,513,0
765,465,543,0
698,606,511,0
720,706,488,0
830,752,465,0
933,776,455,0
1141,847,542,0
1127,737,480,0
1253,684,373,0
1376,633,301,0
1263,516,241,0
1074,389,211,0
908,305,165,0
794,316,112,0
760,361,96,0
780,350,73,0
773,274,42,0
703,237,49,0
723,273,70,0
949,398,130,0
920,495,326,0
867,562,448,0
1073,575,519,0
1152,545,501,0
1013,478,481,0
959,352,520,0
903,393,593,0
861,413,582,0
852,401,545,0
803,501,520,0
773,639,505,0
825,739,452,0
1011,924,524,0
1113,1000,608,0
1177,763,465,0
1413,571,352,0
1396,494,268,0
1175,421,236,0
972,395,228,0
833,395,169,0
787,409,108,0
785,391,76,0
771,314,50,0
729,248,40,0
696,246,80,0
739,284,114,0
1005,425,196,0
907,481,383,0
792,514,455,0
1116,580,527,0
1384,658,537,0
1216,526,535,0
1007,284,568,0
877,347,544,0
722,491,496,0
634,550,532,0
598,582,511,0
598,624,496,0
733,664,470,0
889,755,454,0
1119,935,555,0
1205,807,493,0
1367,594,359,0
1556,577,308,0
1369,505,272,0
1124,456,246,0
953,402,194,0
799,393,134,0
719,373,95,0
722,316,70,0
701,234,54,0
669,204,81,0
642,231,156,0
663,324,231,0
820,404,297,0
976,508,344,0
1186,597,382,0
1552,719,414,0
1361,784,473,0
1032,686,506,0
940,537,450,0
850,480,355,0
714,503,371,0
655,610,414,0
668,710,401,0
732,783,411,0
819,734,382,0
920,807,451,0
1121,946,561,0
1332,754,402,0
1391,559,308,0
1426,470,289,0
1259,427,253,0
1086,416,222,0
936,371,171,0
801,358,108,0
751,342,66,0
720,280,35,0
671,233,32,0
646,251,63,0
679,309,125,0
861,433,218,0
946,470,360,0
1000,477,402,0
1359,566,502,0
972,620,557,0
852,402,556,0
829,375,525,0
762,436,491,0
785,536,465,0
824,609,425,0
823,663,401,0
829,718,375,0
901,839,445,0
1019,982,573,0
1114,800,416,0
1369,591,304,0
1246,456,301,0
1063,385,254,0
917,379,209,0
806,396,184,0
783,426,173,0
789,380,127,0
769,303,92,0
765,272,111,0
774,262,129,0
781,278,145,0
977,382,172,0
858,451,259,0
943,571,326,0
1292,695,422,0
1292,738,442,0
1032,529,389,0
871,317,413,0
798,365,416,0
735,492,443,0
669,596,520,0
638,631,526,0
700,664,564,0
891,693,562,0
1201,798,577,0
1308,816,620,0
1229,576,397,0
1286,546,331,0
1392,501,240,0
1168,455,204,0
962,407,188,0
831,373,123,0
786,388,54,0
790,385,25,0
781,312,6,0
765,268,3,0
695,279,48,0
709,344,117,0
885,428,235,0
854,428,421,0
866,366,421,0
1185,393,462,0
1314,551,616,0
1089,630,749,0
961,449,675,0
901,393,636,0
775,417,548,0
752,496,523,0
716,630,534,0
809,711,488,0
854,726,428,0
1025,736,423,0
1135,809,534,0
1034,723,472,0
1192,666,361,0
1292,591,307,0
1208,447,252,0
1042,368,223,0
860,331,194,0
746,368,170,0
747,349,125,0
671,255,80,0
641,217,92,0
660,230,136,0
708,313,206,0
763,373,272,0
939,446,340,0
1092,479,402,0
1430,577,440,0
1518,579,428,0
1147,595,441,0
967,513,400,0
838,500,340,0
728,531,347,0
672,549,364,0
609,619,378,0
657,685,385,0
808,720,417,0
943,770,433,0
1247,1005,603,0
1324,782,431,0
1310,526,205,0
1426,485,176,0
1402,421,205,0
1167,497,271,0
1037,448,157,0
802,308,52,0
642,294,40,0
637,305,54,0
622,249,51,0
615,223,62,0
646,197,84,0
737,265,123,0
860,357,176,0
901,465,263,0
1258,720,425,0
1668,910,560,0
1281,711,499,0
803,292,411,0
711,121,340,0
677,335,378,0
725,568,544,0
694,658,580,0
658,640,542,0
789,624,528,0
1025,781,530,0
1373,1054,663,0
1255,776,473,0
1334,545,359,0
1380,528,259,0
1243,523,229,0
1043,490,265,0
866,405,215,0
778,356,102,0
756,343,51,0
784,312,48,0
797,265,48,0
763,232,62,0
724,270,105,0
814,345,150,0
906,422,252,0
1022,512,383,0
1249,550,451,0
1225,637,627,0
1012,612,674,0
988,369,556,0
976,317,514,0
887,449,536,0
812,690,583,0
801,857,560,0
810,881,493,0
858,821,423,0
1026,861,464,0
1107,915,519,0
1139,792,462,0
1337,711,366,0
1453,594,275,0
1303,473,247,0
1121,407,227,0
953,387,183,0
834,384,118,0
785,347,71,0
726,261,53,0
651,191,56,0
646,198,94,0
663,272,197,0
739,368,286,0
935,398,326,0
998,431,380,0
1343,563,465,0
1596,644,474,0
1275,610,442,0
958,485,494,0
899,500,485,0
861,533,442,0
789,559,475,0
733,582,439,0
758,674,413,0
754,808,416,0
828,902,424,0
1067,1039,563,0
1221,817,459,0
1390,609,323,0
1398,565,332,0
1281,483,271,0
1164,481,241,0
1059,440,204,0
955,427,151,0
861,362,94,0
760,258,45,0
697,187,35,0
680,182,50,0
637,266,144,0
663,358,245,0
771,380,296,0
929,423,334,0
1331,573,415,0
1584,670,418,0
1355,686,388,0
1148,571,378,0
1013,572,326,0
929,626,269,0
812,678,299,0
652,732,323,0
679,825,357,0
872,879,377,0
1121,965,454,0
1161,880,479,0
1077,699,421,0
1270,711,335,0
1467,661,210,0
1373,500,231,0
1147,382,261,0
1000,366,168,0
929,391,71,0
914,420,56,0
920,332,16,0
870,227,-15,0
778,208,2,0
837,317,48,0
926,435,197,0
698,429,369,0
809,484,421,0
1068,408,395,0
1119,523,449,0
1031,612,576,0
941,629,674,0
946,532,574,0
924,425,511,0
895,509,564,0
874,696,562,0
911,852,490,0
1153,1072,557,0
1135,1019,573,0
1234,749,418,0
1379,621,367,0
1307,533,277,0
1171,472,252,0
1029,425,242,0
888,429,183,0
830,397,108,0
829,348,74,0
804,261,46,0
761,187,43,0
719,198,92,0
689,278,152,0
840,347,195,0
917,385,260,0
1182,516,325,0
1444,643,416,0
1282,808,547,0
1063,690,586,0
1031,471,493,0
985,375,437,0
852,454,515,0
761,646,518,0
762,849,502,0
777,954,512,0
936,950,502,0
1181,968,599,0
1209,720,489,0
1295,646,370,0
1531,651,284,0
1514,563,255,0
1269,465,237,0
1076,393,171,0
947,406,93,0
877,409,58,0
860,314,13,0
779,201,-2,0
666,140,10,0
620,231,87,0
723,331,171,0
818,384,290,0
905,467,379,0
1225,616,452,0
1407,680,476,0
1220,689,509,0
1053,609,599,0
1030,471,592,0
960,347,452,0
811,479,490,0
763,671,470,0
764,802,406,0
832,888,391,0
1000,904,411,0
1053,923,484,0
980,772,446,0
1137,700,342,0
1337,680,260,0
1308,537,230,0
1147,419,245,0
1004,361,206,0
904,366,130,0
860,378,94,0
822,335,77,0
750,239,56,0
720,210,75,0
682,240,144,0
722,343,228,0
935,439,338,0
1006,465,381,0
1431,629,483,0
1187,672,489,0
1033,601,500,0
959,506,476,0
837,502,482,0
721,530,507,0
668,565,466,0
705,642,427,0
722,710,382,0
822,816,357,0
1164,1037,469,0
1101,859,465,0
1249,691,346,0
1426,624,289,0
1456,519,240,0
1232,436,231,0
1001,377,215,0
869,383,177,0
794,343,111,0
743,288,68,0
655,216,73,0
622,219,115,0
646,234,142,0
752,292,147,0
938,413,237,0
1007,587,372,0
1205,717,449,0
1409,742,489,0
1206,706,529,0
1016,524,501,0
922,387,428,0
821,404,414,0
726,525,485,0
695,609,489,0
612,644,447,0
701,681,443,0
810,666,422,0
856,686,417,0
1040,763,500,0
1142,756,507,0
1132,631,403,0
1299,605,364,0
1348,521,265,0
1132,439,221,0
970,367,202,0
812,333,157,0
715,352,103,0
727,363,85,0
703,288,64,0
659,243,61,0
655,268,113,0
708,314,163,0
939,407,203,0
1075,501,309,0
1042,593,408,0
1255,654,488,0
1256,642,486,0
1060,525,479,0
920,323,490,0
826,344,479,0
709,438,458,0
597,562,505,0
606,600,488,0
652,598,452,0
760,633,438,0
901,719,429,0
1214,932,539,0
1246,880,532,0
1319,641,388,0
1540,578,307,0
1388,457,249,0
1118,400,222,0
885,353,194,0
701,362,143,0
610,355,88,0
592,295,48,0
557,217,38,0
538,204,53,0
621,280,119,0
693,356,197,0
909,452,262,0
1167,539,384,0
1214,578,472,0
1586,612,476,0
1490,544,438,0
1049,497,470,0
838,443,481,0
775,491,407,0
709,563,395,0
612,617,440,0
577,639,450,0
708,650,452,0
883,700,466,0
965,686,399,0
988,683,447,0
1168,718,456,0
1258,637,324,0
1362,567,222,0
1266,507,244,0
1152,466,207,0
1026,421,148,0
915,367,105,0
831,349,83,0
779,317,59,0
703,273,42,0
659,255,47,0
647,279,95,0
657,322,142,0
809,388,179,0
986,442,253,0
1004,537,353,0
1330,640,443,0
1468,669,456,0
1140,554,441,0
888,379,493,0
850,375,438,0
766,456,378,0
682,553,432,0
623,613,451,0
686,668,456,0
836,712,449,0
973,775,453,0
1174,935,575,0
1111,805,501,0
1192,652,361,0
1390,609,307,0
1399,501,241,0
1232,421,229,0
1039,341,187,0
883,330,106,0
798,359,57,0
759,356,27,0
708,279,4,0
671,248,6,0
653,276,50,0
731,347,122,0
948,461,230,0
816,457,357,0
904,504,451,0
1250,580,534,0
1250,613,578,0
1042,432,580,0
996,297,597,0
928,365,507,0
808,497,464,0
757,579,480,0
712,652,463,0
740,702,439,0
866,758,424,0
1084,871,509,0
1104,800,524,0
1160,591,388,0
1331,600,322,0
1341,552,275,0
1162,462,266,0
981,388,244,0
854,357,158,0
797,370,94,0
758,364,77,0
720,294,52,0
701,245,48,0
714,233,70,0
758,297,98,0
975,392,130,0
896,502,264,0
977,621,364,0
1279,730,464,0
1225,678,434,0
1020,377,339,0
983,175,365,0
913,366,440,0
879,555,476,0
758,661,513,0
660,690,530,0
675,674,540,0
799,686,540,0
990,698,534,0
1176,750,609,0
1172,620,488,0
1266,597,377,0
1430,613,301,0
1361,579,243,0
1187,484,233,0
968,374,175,0
810,334,83,0
743,350,48,0
692,325,37,0
661,254,26,0
660,218,36,0
659,237,81,0
732,331,143,0
924,458,263,0
906,469,388,0
1192,551,432,0
1489,578,445,0
1310,624,477,0
1080,531,559,0
981,476,589,0
889,464,498,0
775,467,490,0
715,559,522,0
703,664,527,0
809,720,502,0
966,687,457,0
1119,780,515,0
1129,787,550,0
1087,662,398,0
1276,625,312,0
1383,505,228,0
1180,431,227,0
1012,374,204,0
870,339,132,0
784,339,62,0
750,340,39,0
694,287,34,0
647,257,38,0
655,296,100,0
680,351,200,0
803,409,281,0
885,393,341,0
1012,430,401,0
1406,535,488,0
1372,589,522,0
976,600,589,0
870,446,574,0
885,395,490,0
853,427,464,0
767,491,480,0
718,598,447,0
763,740,450,0
775,779,401,0
927,807,406,0
1170,905,546,0
1258,738,427,0
1403,648,343,0
1384,530,294,0
1186,432,237,0
985,373,200,0
813,351,174,0
760,379,153,0
739,324,91,0
691,243,50,0
675,221,63,0
685,233,86,0
661,281,109,0
845,380,160,0
952,503,300,0
1033,620,444,0
1443,753,560,0
1387,710,638,0
896,479,649,0
766,171,610,0
710,190,539,0
699,395,537,0
704,588,591,0
666,667,522,0
707,677,447,0
875,734,424,0
1230,843,416,0
1233,778,404,0
1036,584,355,0
1149,524,214,0
1265,516,131,0
1101,465,169,0
883,367,166,0
760,318,97,0
694,325,89,0
655,346,92,0
635,291,92,0
659,272,112,0
737,321,155,0
837,404,185,0
1130,580,237,0
1131,693,306,0
1100,607,284,0
1251,687,345,0
1006,686,357,0
780,437,250,0
648,621,297,0
492,582,186,0
485,522,156,0
498,558,186,0
564,673,247,0
674,763,332,0
886,892,455,0
1118,906,514,0
1399,837,583,0
1224,527,479,0
1257,400,349,0
1257,475,295,0
1002,452,284,0
836,395,257,0
701,361,187,0
638,348,55,0
700,315,39,0
649,256,40,0
680,263,50,0
711,343,112,0
767,433,186,0
956,515,305,0
1077,548,411,0
1191,498,408,0
1409,512,446,0
1118,541,515,0
794,500,507,0
750,446,437,0
705,467,422,0
645,517,455,0
588,566,478,0
597,590,450,0
744,689,503,0
970,736,492,0
1310,844,550,0
1266,707,514,0
1170,561,351,0
1266,571,278,0
1293,503,176,0
1099,435,177,0
893,356,154,0
731,332,85,0
710,344,33,0
692,332,15,0
694,287,13,0
721,267,37,0
737,263,58,0
804,331,103,0
1113,501,253,0
967,562,425,0
1001,608,485,0
1230,577,567,0
1084,590,578,0
881,425,542,0
811,308,511,0
760,357,450,0
729,489,429,0
753,593,468,0
720,642,504,0
772,672,522,0
899,651,473,0
1117,755,557,0
1240,762,589,0
1182,580,417,0
1286,556,329,0
1284,516,248,0
1097,434,222,0
914,352,203,0
813,332,131,0
748,344,75,0
707,334,45,0
664,269,27,0
646,261,48,0
672,308,124,0
747,360,193,0
961,455,282,0
979,434,376,0
1080,452,400,0
1366,531,472,0
1149,573,491,0
880,528,487,0
836,428,483,0
822,479,497,0
782,513,506,0
745,547,501,0
731,642,523,0
779,757,511,0
886,820,454,0
1269,954,562,0
1172,728,495,0
1120,623,410,0
1329,604,311,0
1283,546,222,0
1116,472,231,0
956,378,216,0
851,378,148,0
823,375,91,0
799,330,58,0
751,252,51,0
707,241,87,0
665,261,161,0
690,300,220,0
841,374,344,0
923,373,389,0
1181,443,411,0
1365,564,544,0
1126,688,662,0
912,579,596,0
916,440,508,0
873,422,520,0
807,496,530,0
706,613,492,0
745,746,473,0
810,838,403,0
1164,1024,431,0
1353,847,386,0
944,690,441,0
1145,683,362,0
1333,664,202,0
1273,557,223,0
1053,365,236,0
872,289,152,0
740,291,91,0
674,339,86,0
660,299,94,0
661,247,102,0
689,256,143,0
729,308,212,0
810,367,269,0
956,407,315,0
1052,499,381,0
1227,632,442,0
1521,701,441,0
1259,631,415,0
886,526,448,0
745,462,396,0
694,493,325,0
628,520,359,0
600,556,391,0
618,568,411,0
715,607,438,0
903,699,490,0
985,662,465,0
1059,678,535,0
1255,761,617,0
1269,614,469,0
1331,517,347,0
1293,448,316,0
1038,394,256,0
918,327,162,0
750,295,106,0
649,317,77,0
675,354,64,0
681,289,39,0
613,231,14,0
596,274,55,0
624,361,136,0
782,430,208,0
1046,519,333,0
1183,577,427,0
1511,618,485,0
1435,555,538,0
944,494,595,0
756,367,567,0
725,354,483,0
652,412,470,0
587,526,496,0
552,604,492,0
632,672,504,0
832,717,510,0
1042,768,510,0
1337,806,594,0
1196,587,459,0
1248,590,365,0
1360,586,275,0
1175,522,266,0
948,409,236,0
812,339,161,0
751,372,99,0
769,384,84,0
742,296,64,0
739,226,47,0
735,234,102,0
692,269,173,0
784,364,256,0
894,408,378,0
898,409,406,0
1238,503,470,0
1525,652,534,0
1333,736,573,0
1011,592,573,0
817,496,480,0
757,490,403,0
776,537,461,0
707,594,492,0
732,691,513,0
808,699,459,0
865,708,412,0
991,794,485,0
1144,805,523,0
1186,689,403,0
1372,613,335,0
1285,480,267,0
1057,419,241,0
915,353,211,0
797,359,163,0
737,369,123,0
746,315,99,0
726,238,85,0
687,212,117,0
659,237,199,0
769,366,301,0
922,395,362,0
895,404,369,0
1230,596,485,0
1556,754,564,0
1235,701,518,0
902,442,502,0
799,390,475,0
732,473,435,0
694,542,476,0
663,593,479,0
703,633,474,0
767,679,426,0
923,832,409,0
1240,1028,542,0
1095,787,438,0
1186,662,381,0
1378,612,270,0
1306,538,223,0
1134,442,246,0
949,368,211,0
806,354,127,0
748,363,82,0
719,327,62,0
685,251,47,0
691,227,64,0
688,232,93,0
680,307,145,0
894,408,215,0
998,485,303,0
1043,527,349,0
1405,655,441,0
1408,695,491,0
1148,557,468,0
963,372,472,0
841,428,434,0
766,555,410,0
722,646,475,0
639,684,522,0
721,671,536,0
877,658,521,0
997,623,474,0
1071,700,535,0
1224,773,561,0
1375,692,415,0
1467,605,322,0
1411,470,253,0
1140,376,201,0
945,312,140,0
801,320,92,0
723,366,69,0
730,342,36,0
693,240,3,0
661,187,-8,0
607,208,35,0
570,293,94,0
774,399,154,0
970,476,250,0
1080,594,358,0
1544,843,524,0
1624,818,522,0
1243,464,477,0
1054,73,510,0
910,279,417,0
774,651,454,0
681,841,593,0
602,796,622,0
612,635,628,0
780,518,563,0
1017,624,532,0
1228,826,625,0
1536,771,505,0
1679,631,345,0
1593,489,293,0
1292,412,253,0
1043,400,179,0
870,403,104,0
743,397,60,0
697,321,22,0
673,229,-7,0
676,165,-23,0
619,189,22,0
564,274,94,0
755,391,188,0
898,456,325,0
1133,545,386,0
1536,601,442,0
1490,703,573,0
1236,621,683,0
1107,304,621,0
994,256,557,0
861,347,562,0
713,579,565,0
671,764,535,0
699,850,507,0
879,863,477,0
1224,1015,565,0
1150,836,525,0
1126,703,331,0
1443,576,228,0
1208,428,238,0
987,340,228,0
834,352,126,0
762,382,67,0
805,371,46,0
786,269,21,0
756,205,19,0
684,205,71,0
627,278,128,0
809,397,256,0
856,467,463,0
1053,487,476,0
1505,512,518,0
1450,667,701,0
1077,675,832,0
943,434,665,0
891,296,487,0
838,337,495,0
724,519,570,0
732,659,555,0
791,736,477,0
871,783,426,0
1128,923,500,0
1081,894,580,0
1080,687,464,0
1301,589,296,0
1226,463,219,0
1034,378,241,0
921,356,250,0
860,368,180,0
839,361,115,0
784,315,90,0
715,238,96,0
668,208,127,0
673,255,187,0
791,342,268,0
976,400,341,0
918,380,376,0
1174,518,477,0
1609,620,490,0
1458,604,394,0
1134,492,432,0
909,524,494,0
773,617,408,0
687,636,434,0
650,608,429,0
686,626,436,0
768,684,435,0
925,807,413,0
1218,964,525,0
1080,816,505,0
1168,768,425,0
1418,655,289,0
1311,486,238,0
1133,388,253,0
951,363,223,0
832,380,141,0
793,374,89,0
774,313,63,0
753,242,53,0
765,230,78,0
708,257,124,0
703,323,190,0
942,418,297,0
1034,419,336,0
1180,448,347,0
1464,574,452,0
1323,739,606,0
1088,711,648,0
968,504,541,0
933,381,461,0
811,439,478,0
656,590,533,0
630,771,525,0
732,893,508,0
851,800,468,0
1058,737,509,0
1329,780,564,0
1443,660,377,0
1539,638,314,0
1599,532,246,0
1304,448,211,0
1113,392,157,0
923,380,111,0
753,376,86,0
690,309,56,0
614,188,29,0
556,122,30,0
527,177,111,0
584,285,223,0
851,439,326,0
1048,496,354,0
1329,709,449,0
1524,738,513,0
1261,733,547,0
949,653,529,0
832,538,475,0
794,500,495,0
798,490,515,0
815,481,414,0
773,624,411,0
756,809,448,0
786,867,394,0
1064,907,447,0
1327,862,564,0
1366,625,484,0
1457,540,387,0
1526,523,285,0
1284,481,242,0
995,348,259,0
845,301,201,0
700,335,111,0
656,297,61,0
620,232,18,0
621,192,18,0
662,229,51,0
680,296,83,0
936,386,99,0
1107,490,195,0
1320,697,314,0
1529,892,511,0
1194,845,518,0
868,536,386,0
844,187,385,0
878,144,503,0
839,326,566,0
770,589,591,0
731,831,647,0
773,846,640,0
830,744,569,0
966,678,591,0
1253,771,653,0
1429,662,488,0
1423,591,394,0
1454,522,347,0
1280,462,251,0
1073,415,186,0
892,352,135,0
745,348,93,0
691,332,58,0
655,259,25,0
641,190,5,0
592,169,35,0
554,234,102,0
651,335,185,0
857,486,373,0
1072,549,468,0
1486,615,518,0
1543,649,616,0
1181,687,711,0
1017,497,607,0
956,447,556,0
820,467,581,0
674,543,609,0
670,666,603,0
711,766,540,0
780,824,459,0
972,874,475,0
1138,902,572,0
1301,818,482,0
1575,742,374,0
1553,576,272,0
1270,459,254,0
1114,389,223,0
939,384,163,0
794,404,115,0
750,346,87,0
746,218,51,0
688,110,34,0
608,107,93,0
556,202,186,0
692,364,309,0
825,379,368,0
1060,437,380,0
1647,645,487,0
1766,855,566,0
1341,830,635,0
964,588,587,0
889,468,458,0
845,396,455,0
758,515,494,0
692,732,509,0
662,884,491,0
790,952,457,0
1181,987,499,0
1260,796,553,0
1269,657,440,0
1513,663,337,0
1608,622,264,0
1340,524,289,0
1060,422,237,0
880,364,120,0
768,371,68,0
733,350,51,0
683,246,41,0
629,143,25,0
597,146,66,0
571,237,186,0
690,363,311,0
924,414,403,0
1037,411,398,0
1476,615,513,0
1756,826,632,0
1407,844,651,0
1044,594,574,0
890,439,489,0
845,429,424,0
710,580,461,0
612,728,482,0
599,834,503,0
675,808,469,0
791,746,443,0
986,760,509,0
1259,846,531,0
1307,719,413,0
1386,659,374,0
1417,582,283,0
1255,522,236,0
1110,440,203,0
969,372,137,0
826,349,87,0
766,326,67,0
704,254,60,0
651,191,55,0
617,214,140,0
603,263,237,0
731,357,343,0
867,342,399,0
1058,377,408,0
1519,616,541,0
1603,876,661,0
1238,800,615,0
1008,580,494,0
903,555,480,0
808,575,478,0
710,601,425,0
689,716,427,0
740,804,404,0
773,826,361,0
921,827,379,0
1103,869,487,0
1117,827,507,0
1247,739,420,0
1467,646,345,0
1426,471,281,0
1148,335,240,0
895,296,205,0
697,326,171,0
648,364,136,0
657,286,93,0
628,165,69,0
580,125,87,0
592,202,154,0
650,322,252,0
789,423,354,0
1046,501,432,0
1225,535,472,0
1640,585,469,0
1747,668,475,0
1188,710,563,0
814,597,546,0
729,536,445,0
658,521,401,0
540,536,434,0
541,598,473,0
627,645,456,0
725,766,427,0
1190,1015,490,0
1402,914,461,0
1233,690,384,0
1394,659,349,0
1437,612,243,0
1243,527,210,0
1025,396,192,0
849,367,137,0
763,385,83,0
737,368,52,0
693,272,32,0
681,201,17,0
673,217,71,0
637,293,189,0
769,421,303,0
964,481,456,0
939,432,493,0
1184,414,509,0
1422,534,586,0
1191,615,599,0
898,530,571,0
864,438,519,0
860,425,420,0
804,481,391,0
754,601,446,0
798,748,427,0
855,879,442,0
1052,888,512,0
1130,753,491,0
1124,666,410,0
1320,655,354,0
1249,535,291,0
1106,449,279,0
1027,375,244,0
909,371,173,0
833,358,131,0
798,293,102,0
701,185,60,0
600,144,55,0
575,244,144,0
583,342,255,0
760,420,344,0
1020,458,429,0
1133,408,421,0
1612,438,369,0
1813,520,290,0
1395,665,331,0
972,721,448,0
821,758,373,0
696,722,344,0
624,608,366,0
620,583,358,0
703,668,365,0
805,818,330,0
1117,1014,393,0
1085,856,465,0
1060,763,393,0
1384,783,272,0
1527,638,209,0
1354,454,249,0
1130,370,248,0
969,399,164,0
873,432,124,0
846,376,86,0
778,260,64,0
706,166,78,0
671,156,109,0
628,203,141,0
636,274,182,0
847,377,251,0
1155,524,314,0
1564,679,351,0
1590,820,499,0
1181,861,680,0
928,642,562,0
908,383,389,0
867,291,476,0
774,456,554,0
679,646,537,0
695,829,526,0
790,911,487,0
1127,1004,549,0
1259,837,529,0
1224,668,448,0
1438,653,348,0
1504,627,246,0
1339,540,260,0
1128,428,240,0
954,378,129,0
853,369,59,0
791,343,40,0
725,246,22,0
662,163,12,0
598,171,43,0
573,265,116,0
697,355,199,0
795,373,295,0
1042,448,342,0
1590,618,428,0
1644,771,519,0
1267,722,597,0
996,550,615,0
1021,448,484,0
911,379,461,0
752,460,542,0
641,673,589,0
686,803,572,0
711,873,479,0
1083,983,503,0
1362,938,516,0
1393,736,419,0
1491,713,389,0
1508,665,272,0
1320,568,225,0
1142,448,196,0
979,383,131,0
843,353,77,0
789,330,51,0
719,240,20,0
637,148,-12,0
562,159,19,0
523,234,74,0
595,303,115,0
985,453,184,0
1146,525,268,0
1573,803,398,0
1826,971,612,0
1336,988,705,0
1010,557,568,0
1001,223,498,0
913,310,559,0
790,520,585,0
636,770,551,0
570,899,551,0
671,809,460,0
1040,936,560,0
1392,848,592,0
1430,620,402,0
1676,587,340,0
1530,524,266,0
1259,519,274,0
1061,459,237,0
886,424,139,0
782,401,82,0
757,304,49,0
730,166,21,0
686,95,22,0
616,120,80,0
598,241,189,0
739,357,300,0
828,368,346,0
1249,576,475,0
1807,772,585,0
1659,804,605,0
1260,562,611,0
1067,408,524,0
896,457,483,0
818,469,493,0
725,592,447,0
661,754,377,0
660,858,290,0
820,1002,272,0
1207,1262,465,0
1131,933,382,0
1343,886,393,0
1530,773,238,0
1487,635,181,0
1428,439,221,0
1248,344,206,0
1010,353,147,0
876,349,97,0
781,254,49,0
661,128,9,0
624,141,32,0
589,211,108,0
675,311,188,0
875,396,302,0
1034,416,369,0
1438,563,439,0
1648,708,494,0
1425,763,619,0
1178,589,619,0
1058,471,496,0
943,428,504,0
859,437,470,0
766,643,413,0
711,840,337,0
685,926,277,0
831,1026,355,0
1078,1083,530,0
1150,866,455,0
1378,765,359,0
1531,655,266,0
1385,495,237,0
1225,389,233,0
1052,371,206,0
935,400,150,0
866,375,101,0
792,286,56,0
761,209,47,0
694,170,76,0
666,223,104,0
841,334,183,0
876,375,302,0
1016,468,371,0
1312,533,443,0
1388,702,536,0
1258,722,588,0
1144,553,580,0
1030,449,553,0
864,452,565,0
822,458,528,0
766,646,482,0
696,903,422,0
761,1012,421,0
1072,991,508,0
1191,755,505,0
1264,578,417,0
1505,618,360,0
1532,604,269,0
1329,502,253,0
1155,402,247,0
963,374,176,0
827,380,107,0
770,349,80,0
692,229,46,0
595,114,8,0
516,141,43,0
518,257,135,0
700,390,223,0
927,409,265,0
1151,522,339,0
1661,799,501,0
1531,937,649,0
976,713,707,0
902,241,581,0
930,106,578,0
878,206,629,0
736,463,473,0
577,850,376,0
894,1161,447,0
1420,1248,374,0
1202,817,203,0
1207,422,258,0
1347,351,53,0
1241,517,16,0
1029,585,169,0
1076,472,120,0
834,283,18,0
671,281,-5,0
687,319,35,0
705,277,52,0
691,301,84,0
716,297,138,0
739,259,149,0
934,353,186,0
1090,425,224,0
1484,597,259,0
1791,781,374,0
1311,800,498,0
929,521,405,0
849,437,202,0
730,547,238,0
683,599,401,0
637,664,410,0
630,689,395,0
734,706,399,0
865,834,434,0
1191,1018,597,0
1302,853,512,0
1472,683,429,0
1640,542,345,0
1429,431,301,0
1193,382,267,0
1003,364,206,0
857,386,126,0
825,372,69,0
781,279,43,0
728,169,14,0
672,142,18,0
589,222,94,0
595,315,187,0
825,436,321,0
908,455,406,0
1254,547,452,0
1636,613,487,0
1438,755,659,0
1149,631,745,0
1046,455,614,0
887,460,547,0
748,507,462,0
681,601,346,0
711,743,251,0
709,848,117,0
1079,1218,179,0
1183,1171,300,0
1097,977,417,0
1353,874,325,0
1332,731,174,0
1275,509,137,0
1220,302,173,0
1024,299,208,0
863,344,198,0
831,337,163,0
751,180,84,0
646,118,66,0
626,188,128,0
737,321,210,0
973,433,295,0
998,440,346,0
1378,667,456,0
1633,757,437,0
1321,655,365,0
1081,369,370,0
915,429,401,0
814,555,405,0
749,568,374,0
660,636,353,0
704,726,395,0
775,741,417,0
1154,1030,588,0
1063,845,475,0
1359,774,404,0
1546,608,308,0
1353,434,263,0
1140,364,266,0
945,354,226,0
813,398,151,0
757,383,100,0
732,300,62,0
718,225,52,0
713,189,74,0
690,214,108,0
784,333,167,0
966,436,266,0
893,398,286,0
1175,534,357,0
1516,682,452,0
1368,789,504,0
1150,591,573,0
1001,428,581,0
880,430,516,0
803,450,474,0
702,566,449,0
663,715,457,0
681,814,419,0
852,876,371,0
1190,980,471,0
1179,795,480,0
1265,726,421,0
1518,691,320,0
1397,556,249,0
1190,418,223,0
1006,349,205,0
879,360,157,0
777,352,104,0
728,286,68,0
666,205,49,0
622,190,75,0
578,230,144,0
602,326,217,0
855,423,307,0
935,451,371,0
1281,575,454,0
1592,676,586,0
1208,713,654,0
891,455,571,0
877,298,514,0
837,365,481,0
732,515,507,0
681,661,523,0
701,788,512,0
744,823,465,0
814,800,458,0
1089,879,535,0
1267,836,480,0
1349,707,375,0
1430,649,380,0
1302,539,294,0
1128,459,221,0
996,381,180,0
855,376,146,0
800,379,119,0
795,302,68,0
737,200,21,0
676,159,32,0
620,211,88,0
600,313,173,0
796,420,294,0
921,504,431,0
1093,591,503,0
1512,659,576,0
1402,709,641,0
1062,556,653,0
958,400,571,0
869,402,493,0
753,519,535,0
687,600,513,0
672,668,460,0
721,715,423,0
786,724,380,0
957,802,439,0
1112,867,558,0
1173,756,450,0
1367,685,370,0
1429,540,309,0
1234,399,251,0
993,323,212,0
841,334,204,0
764,349,155,0
691,311,99,0
639,218,76,0
607,198,103,0
633,220,140,0
650,271,191,0
842,397,281,0
970,467,392,0
1212,601,475,0
1501,646,584,0
1265,701,696,0
878,529,619,0
779,286,518,0
692,308,528,0
656,421,566,0
616,529,554,0
668,610,513,0
782,671,482,0
1006,779,432,0
1508,998,511,0
1160,759,472,0
1064,655,465,0
1317,630,298,0
1263,564,202,0
1065,395,243,0
871,289,246,0
702,277,144,0
640,289,89,0
662,293,97,0
646,226,100,0
640,194,104,0
698,247,147,0
749,351,212,0
970,442,268,0
1066,508,356,0
1368,635,425,0
1716,674,451,0
1375,624,436,0
969,444,429,0
774,432,395,0
722,592,403,0
688,630,462,0
564,613,461,0
610,616,442,0
757,689,437,0
885,825,423,0
1296,1043,522,0
1351,840,446,0
1397,747,388,0
1547,667,327,0
1386,558,251,0
1206,445,211,0
996,356,164,0
836,343,101,0
766,353,77,0
757,315,45,0
725,215,-2,0
678,171,-5,0
617,235,62,0
674,324,109,0
994,433,161,0
969,482,293,0
1167,639,373,0
1476,735,487,0
1382,773,494,0
1214,471,418,0
1080,281,517,0
991,332,542,0
823,493,488,0
640,657,512,0
578,745,520,0
636,777,531,0
919,782,540,0
1303,901,592,0
1260,839,542,0
1394,643,473,0
1622,609,327,0
1609,546,221,0
1289,459,249,0
1031,398,208,0
877,388,104,0
791,397,45,0
767,358,21,0
755,241,-10,0
694,162,-20,0
614,179,22,0
686,293,76,0
891,387,181,0
840,439,346,0
1055,565,443,0
1472,660,529,0
1416,762,598,0
1218,550,561,0
1172,347,555,0
1058,365,553,0
884,475,564,0
781,547,522,0
706,676,477,0
696,790,462,0
823,837,427,0
1162,1061,586,0
1144,922,551,0
1396,723,462,0
1637,596,291,0
1488,460,219,0
1252,393,277,0
1036,391,251,0
882,396,137,0
808,367,65,0
766,293,31,0
697,173,9,0
622,132,13,0
602,207,77,0
670,306,139,0
889,404,203,0
935,404,279,0
1312,616,381,0
1617,711,444,0
1406,715,417,0
1130,500,446,0
1037,461,557,0
976,484,534,0
837,494,524,0
758,630,513,0
741,794,504,0
778,865,478,0
868,909,477,0
1161,1018,610,0
1299,803,443,0
1473,698,363,0
1578,585,298,0
1402,500,273,0
1203,432,225,0
1034,372,144,0
913,379,89,0
840,371,63,0
761,295,21,0
684,194,-12,0
633,177,8,0
608,260,64,0
816,385,147,0
760,417,299,0
999,541,401,0
1344,606,474,0
1324,670,529,0
1116,514,541,0
1048,374,590,0
983,385,621,0
849,431,587,0
739,532,610,0
735,689,583,0
781,809,503,0
948,915,459,0
1239,996,529,0
1123,746,414,0
1250,712,408,0
1404,679,289,0
1306,605,216,0
1140,456,217,0
986,375,191,0
874,373,126,0
837,367,76,0
787,301,39,0
727,228,29,0
675,212,54,0
664,256,92,0
824,330,119,0
912,447,270,0
815,471,378,0
1053,550,446,0
1332,695,573,0
1147,679,629,0
1019,366,570,0
905,347,676,0
825,441,691,0
710,526,681,0
632,584,585,0
655,674,527,0
741,735,455,0
867,826,399,0
1155,932,481,0
1229,855,453,0
1326,781,300,0
1500,760,259,0
1345,594,215,0
1123,439,190,0
919,387,148,0
820,442,88,0
688,418,81,0
595,440,74,0
517,381,106,0
428,458,164,0
296,492,252,0
230,687,342,0
251,990,428,0
281,947,492,0
357,1004,374,0
345,1143,421,0
236,1120,435,0
126,847,389,0
56,629,377,0
17,626,365,0
17,679,293,0
51,707,272,0
123,950,292,0
218,954,314,0
329,804,309,0
545,848,392,0
783,1165,445,0
840,1315,394,0
943,1037,307,0
977,735,255,0
803,521,271,0
632,410,219,0
491,387,169,0
472,386,133,0
515,373,116,0
539,363,124,0
657,394,145,0
808,427,144,0
936,506,185,0
1369,666,251,0
1189,686,412,0
967,670,485,0
1189,558,473,0
862,445,386,0
659,265,316,0
511,289,368,0
478,405,391,0
449,450,398,0
491,464,414,0
615,501,447,0
808,583,489,0
1068,657,472,0
1405,746,487,0
1323,716,510,0
1081,584,350,0
1076,492,284,0
1086,465,199,0
889,417,181,0
716,367,187,0
625,346,143,0
608,356,86,0
659,365,65,0
701,318,58,0
746,294,78,0
794,310,110,0
880,387,145,0
1111,478,218,0
966,547,380,0
1075,557,420,0
1167,519,459,0
944,510,496,0
754,456,543,0
732,401,550,0
713,389,508,0
628,426,517,0
653,497,550,0
694,588,575,0
842,669,571,0
1112,719,518,0
1427,816,563,0
1185,683,511,0
991,534,388,0
1168,567,284,0
1271,528,186,0
1106,453,212,0
917,373,215,0
781,341,128,0
711,345,61,0
697,354,52,0
661,279,55,0
657,255,77,0
685,267,134,0
757,301,180,0
977,372,248,0
1034,415,330,0
1121,506,385,0
1421,658,525,0
1251,696,593,0
926,573,564,0
892,361,501,0
881,398,469,0
799,494,506,0
751,597,533,0
708,651,468,0
737,738,458,0
852,803,425,0
1081,854,434,0
1205,826,523,0
1189,656,437,0
1363,637,331,0
1448,590,251,0
1303,502,238,0
1065,395,221,0
879,328,137,0
774,322,72,0
710,329,58,0
651,265,36,0
623,214,32,0
624,213,68,0
644,273,119,0
814,364,165,0
1032,474,312,0
1073,530,405,0
1387,601,469,0
1473,653,549,0
1134,619,612,0
964,382,559,0
887,326,489,0
768,439,508,0
704,596,566,0
672,676,522,0
728,759,508,0
832,788,442,0
1135,915,486,0
1232,791,491,0
1089,600,366,0
1255,655,308,0
1413,659,237,0
1272,579,262,0
1096,435,239,0
953,353,141,0
855,344,77,0
795,353,68,0
723,275,55,0
700,228,60,0
698,213,87,0
670,249,124,0
822,336,167,0
961,446,274,0
1050,515,338,0
1394,651,430,0
1403,690,485,0
1118,632,469,0
999,489,476,0
1011,424,434,0
934,451,401,0
777,579,462,0
703,685,457,0
751,774,445,0
775,806,434,0
926,792,419,0
1157,890,543,0
1164,746,465,0
1282,618,353,0
1448,576,275,0
1495,528,226,0
1298,461,260,0
1095,367,213,0
910,317,105,0
802,317,64,0
734,311,55,0
650,212,32,0
629,177,25,0
619,242,78,0
632,334,152,0
827,431,234,0
940,482,336,0
1101,554,392,0
1456,622,456,0
1414,697,536,0
1091,598,593,0
966,461,578,0
864,505,600,0
706,576,621,0
622,605,560,0
645,641,482,0
717,711,440,0
795,807,331,0
1203,1053,392,0
1384,951,474,0
1215,726,439,0
1411,679,316,0
1448,605,213,0
1286,504,208,0
1066,380,215,0
872,323,159,0
728,296,103,0
659,275,73,0
597,193,48,0
530,153,38,0
533,199,67,0
609,288,125,0
741,384,192,0
1085,556,287,0
1268,764,447,0
1317,765,493,0
1688,647,439,0
1375,489,439,0
954,366,437,0
777,422,453,0
673,600,417,0
577,678,377,0
509,673,391,0
533,604,421,0
661,611,411,0
882,713,412,0
1036,743,406,0
1244,808,508,0
1266,734,452,0
1325,640,328,0
1386,583,287,0
1223,502,256,0
1067,426,201,0
883,335,142,0
769,314,94,0
717,331,85,0
720,310,59,0
721,251,36,0
697,220,47,0
671,261,77,0
803,351,111,0
940,462,239,0
897,545,371,0
1138,659,473,0
1413,726,552,0
1144,646,586,0
907,386,611,0
906,235,579,0
827,334,512,0
738,505,550,0
664,609,563,0
649,669,556,0
808,701,548,0
951,659,471,0
1097,691,473,0
1262,734,559,0
1097,623,448,0
1120,582,335,0
1224,546,262,0
1150,509,231,0
1015,421,216,0
885,322,164,0
789,296,91,0
744,303,55,0
685,271,43,0
598,210,30,0
554,240,59,0
617,332,130,0
774,407,194,0
1113,501,254,0
1068,562,381,0
1175,643,485,0
1475,665,477,0
1257,533,420,0
950,270,439,0
830,292,439,0
713,525,409,0
648,662,468,0
662,658,505,0
657,562,498,0
786,561,533,0
924,603,507,0
1046,743,551,0
1231,802,633,0
1344,649,417,0
1497,588,330,0
1363,496,304,0
1137,435,252,0
970,371,179,0
861,366,115,0
789,363,84,0
730,309,49,0
639,210,11,0
553,166,6,0
528,235,65,0
579,333,147,0
825,441,200,0
963,541,315,0
1167,669,415,0
1551,723,436,0
1378,658,413,0
1011,447,480,0
865,371,620,0
861,375,614,0
731,352,555,0
602,474,564,0
575,615,579,0
704,669,555,0
908,708,489,0
1312,881,579,0
1325,784,554,0
1296,599,392,0
1417,571,335,0
1369,525,227,0
1137,466,193,0
933,367,169,0
807,347,115,0
749,368,70,0
741,354,43,0
691,262,16,0
637,218,15,0
609,251,78,0
613,325,180,0
840,415,257,0
871,435,358,0
1079,537,572,0
1256,706,649,0
956,516,596,0
901,275,547,0
854,319,596,0
790,434,609,0
719,529,596,0
732,614,566,0
798,673,500,0
932,724,428,0
1143,801,446,0
1201,827,548,0
970,682,442,0
1130,637,311,0
1224,589,237,0
1149,465,217,0
993,345,208,0
857,312,164,0
778,338,109,0
730,357,88,0
683,295,66,0
665,252,76,0
672,281,144,0
685,316,205,0
865,382,262,0
1018,459,382,0
945,470,421,0
1244,551,465,0
1375,625,518,0
1071,599,550,0
842,434,537,0
781,410,512,0
693,458,490,0
680,517,511,0
668,547,489,0
742,600,481,0
883,657,424,0
1126,774,408,0
1168,825,541,0
1024,715,499,0
1185,676,371,0
1301,570,277,0
1150,404,252,0
931,312,224,0
749,308,190,0
704,353,167,0
708,351,121,0
682,277,94,0
688,251,112,0
716,251,128,0
704,288,154,0
838,392,204,0
1053,551,337,0
1066,623,448,0
1321,658,545,0
1254,646,663,0
912,495,609,0
746,277,498,0
685,316,518,0
678,467,562,0
658,534,549,0
662,567,510,0
793,604,490,0
886,599,432,0
909,599,403,0
1021,698,480,0
1138,741,535,0
1154,615,409,0
1179,540,362,0
1166,459,312,0
981,385,227,0
806,303,187,0
672,298,183,0
657,335,171,0
664,302,123,0
647,253,122,0
671,257,154,0
733,296,193,0
897,377,234,0
1114,478,318,0
957,500,415,0
1158,576,500,0
1315,623,560,0
1074,563,517,0
846,348,475,0
763,330,493,0
657,409,480,0
581,475,482,0
566,512,496,0
671,524,488,0
809,538,436,0
1219,700,410,0
1358,855,558,0
975,715,508,0
1045,564,382,0
1182,552,245,0
1131,438,223,0
896,319,247,0
751,310,227,0
672,321,154,0
648,344,114,0
668,315,106,0
661,257,100,0
697,269,127,0
777,341,171,0
1040,436,204,0
1178,539,356,0
962,526,446,0
1179,547,504,0
1143,521,478,0
929,452,449,0
823,354,493,0
751,440,564,0
691,446,552,0
662,417,527,0
613,440,522,0
715,499,507,0
849,552,484,0
992,585,430,0
1225,735,522,0
1003,696,529,0
1009,607,369,0
1143,572,323,0
1120,465,265,0
955,376,219,0
790,302,196,0
702,322,177,0
676,340,136,0
662,313,99,0
670,264,96,0
691,282,139,0
754,316,163,0
921,368,176,0
1086,472,264,0
952,521,374,0
1222,659,463,0
1292,626,488,0
1008,449,389,0
834,181,353,0
735,272,418,0
653,417,454,0
653,505,518,0
655,484,514,0
741,467,529,0
914,532,526,0
1188,692,523,0
1425,857,660,0
1175,656,524,0
1145,478,362,0
1217,426,266,0
1105,379,210,0
886,370,207,0
753,356,202,0
682,349,126,0
690,346,61,0
702,319,52,0
709,275,53,0
703,296,85,0
690,347,147,0
801,389,169,0
1008,445,242,0
1000,468,335,0
1299,588,428,0
1340,590,503,0
1019,595,519,0
822,392,504,0
814,316,512,0
694,364,549,0
665,436,613,0
685,455,634,0
809,470,626,0
967,512,597,0
1322,702,551,0
1413,930,589,0
1243,723,458,0
1335,493,293,0
1310,404,194,0
1078,409,237,0
863,390,215,0
754,290,102,0
699,274,24,0
676,294,21,0
619,261,18,0
582,269,10,0
604,338,60,0
669,430,159,0
893,467,205,0
1094,510,301,0
988,483,380,0
1351,532,429,0
1323,503,451,0
1017,498,528,0
888,401,607,0
844,354,589,0
744,387,562,0
698,394,559,0
656,446,543,0
672,545,526,0
775,639,514,0
902,668,487,0
1181,771,537,0
1413,791,618,0
1290,548,361,0
1320,475,308,0
1228,422,248,0
1021,428,188,0
816,375,155,0
700,333,124,0
656,334,78,0
672,318,38,0
696,282,36,0
662,265,53,0
662,297,98,0
692,348,167,0
874,421,246,0
918,461,369,0
1071,525,456,0
1423,604,591,0
1259,650,758,0
873,444,752,0
813,172,660,0
796,216,610,0
709,374,552,0
591,460,482,0
538,570,477,0
694,604,415,0
886,682,345,0
1361,932,438,0
1236,857,437,0
1013,625,404,0
1212,505,270,0
1324,468,158,0
1072,389,212,0
887,311,225,0
736,301,178,0
649,309,129,0
612,298,105,0
580,229,98,0
590,227,115,0
691,273,142,0
902,369,155,0
1161,469,187,0
1126,586,318,0
1338,722,462,0
1270,706,484,0
906,615,397,0
788,366,340,0
812,344,402,0
768,414,513,0
749,467,561,0
786,457,504,0
729,497,462,0
820,617,495,0
939,707,469,0
1234,827,535,0
1293,700,554,0
1223,483,401,0
1322,415,267,0
1286,427,223,0
1040,475,248,0
874,423,220,0
724,350,143,0
651,313,71,0
627,300,60,0
595,251,66,0
614,259,75,0
687,303,109,0
733,351,169,0
901,403,199,0
1183,501,303,0
1072,527,389,0
1337,567,405,0
1349,602,449,0
1039,599,485,0
853,459,476,0
768,393,440,0
676,431,440,0
637,485,456,0
607,536,457,0
690,621,490,0
844,631,473,0
918,624,420,0
1038,694,476,0
1162,755,549,0
1149,634,401,0
1300,579,325,0
1357,493,297,0
1136,402,229,0
960,327,170,0
819,293,129,0
739,353,98,0
704,365,77,0
667,292,42,0
636,240,79,0
704,362,136,0
962,454,213,0
965,553,452,0
895,566,507,0
1206,551,449,0
1236,534,452,0
994,481,556,0
854,432,598,0
786,471,533,0
664,512,496,0
631,520,515,0
614,499,488,0
712,535,455,0
878,616,429,0
1149,716,417,0
1241,762,499,0
955,625,446,0
937,577,342,0
1200,599,251,0
1178,505,220,0
974,383,228,0
836,316,193,0
746,321,120,0
708,365,88,0
708,339,82,0
719,273,80,0
730,276,107,0
755,322,151,0
775,362,188,0
928,422,251,0
1004,469,330,0
1051,483,376,0
1268,588,516,0
1108,645,652,0
860,505,595,0
761,287,517,0
734,293,533,0
688,399,546,0
659,483,524,0
673,548,496,0
806,628,488,0
857,666,460,0
1057,742,474,0
1163,797,579,0
1255,688,483,0
1395,594,369,0
1329,488,298,0
1072,394,246,0
885,340,206,0
728,331,170,0
643,352,134,0
662,323,107,0
680,244,85,0
670,183,85,0
690,205,121,0
774,310,180,0
1023,453,269,0
1051,538,403,0
1057,598,522,0
1406,624,551,0
1297,535,444,0
1036,313,477,0
890,290,562,0
774,437,472,0
655,537,397,0
565,563,348,0
550,604,317,0
679,672,307,0
792,760,306,0
1206,994,424,0
1305,1056,490,0
1312,766,390,0
1504,673,305,0
1380,564,232,0
1160,426,248,0
968,328,242,0
802,318,179,0
706,341,135,0
685,335,98,0
702,246,52,0
728,192,35,0
710,222,64,0
735,336,137,0
960,447,193,0
893,489,259,0
1239,674,337,0
1591,805,460,0
1270,741,416,0
953,367,358,0
886,203,375,0
805,401,413,0
750,598,523,0
659,641,583,0
618,638,612,0
795,617,629,0
1004,549,537,0
1105,550,531,0
1176,680,628,0
1213,698,488,0
1383,680,326,0
1408,585,277,0
1213,450,285,0
1066,359,203,0
870,323,83,0
757,305,38,0
699,337,30,0
659,290,25,0
664,266,19,0
658,276,41,0
708,318,84,0
882,407,155,0
815,441,305,0
853,512,387,0
1191,628,545,0
1300,652,632,0
1052,439,618,0
932,182,637,0
909,138,646,0
814,290,581,0
735,478,588,0
677,614,567,0
701,675,510,0
817,745,495,0
1142,857,532,0
1354,935,577,0
1141,640,464,0
1099,475,362,0
1241,505,223,0
1233,500,207,0
1048,437,291,0
889,356,228,0
780,279,85,0
714,297,31,0
652,306,41,0
602,244,46,0
603,245,67,0
668,310,131,0
796,399,207,0
1014,468,295,0
977,482,407,0
1286,511,454,0
1490,461,403,0
1143,500,449,0
861,463,574,0
811,466,540,0
761,488,476,0
704,470,472,0
629,526,467,0
758,649,432,0
896,808,403,0
1282,1059,489,0
1216,863,400,0
1105,687,372,0
1277,661,288,0
1227,603,206,0
1049,492,200,0
933,359,163,0
832,337,107,0
820,390,89,0
896,435,84,0
881,352,54,0
827,243,7,0
787,282,38,0
728,360,127,0
705,416,160,0
807,432,171,0
896,491,277,0
1132,631,382,0
1000,635,431,0
847,537,333,0
777,364,260,0
756,326,387,0
786,390,573,0
816,395,656,0
801,414,689,0
771,408,655,0
803,359,570,0
726,293,509,0
633,240,418,0
593,240,422,0
658,379,415,0
1553,1009,574,0
1996,1256,506,0
1963,789,-28,0
1344,328,35,0
839,216,216,0
624,356,169,0
599,597,21,0
487,400,61,0
510,14,66,0
579,-146,67,0
920,52,13,0
1454,335,1,0
1533,689,336,0
1403,551,422,0
1100,411,358,0
908,363,216,0
808,226,222,0
833,345,394,0
760,578,559,0
809,583,462,0
877,617,403,0
931,842,584,0
1043,1123,769,0
1356,1084,657,0
1681,773,419,0
1716,506,332,0
1335,326,345,0
1042,482,340,0
1020,504,221,0
909,570,174,0
886,523,113,0
848,337,52,0
810,176,1,0
724,85,-10,0
686,203,62,0
833,352,130,0
877,367,172,0
1153,546,258,0
1325,621,367,0
1154,740,442,0
971,645,403,0
948,443,396,0
976,296,537,0
1021,330,643,0
993,484,626,0
971,778,634,0
966,918,632,0
894,901,606,0
1052,947,652,0
1218,845,551,0
1408,714,463,0
1480,594,350,0
1344,501,274,0
1179,424,241,0
1001,377,198,0
904,391,115,0
876,374,54,0
838,319,12,0
768,236,-8,0
677,180,1,0
608,244,63,0
686,323,134,0
843,325,196,0
977,433,273,0
1312,685,390,0
1448,749,449,0
1151,640,396,0
940,453,437,0
1019,421,561,0
907,356,605,0
914,307,525,0
846,520,511,0
851,780,520,0
933,902,523,0
1182,972,588,0
1184,822,596,0
1195,685,480,0
1438,646,390,0
1370,535,288,0
1190,422,270,0
1015,336,262,0
862,317,171,0
771,310,101,0
734,291,70,0
682,218,46,0
629,184,43,0
627,233,97,0
631,341,212,0
804,418,274,0
984,432,326,0
1209,548,439,0
1678,671,498,0
1579,625,428,0
1089,504,472,0
874,418,548,0
841,456,442,0
799,523,403,0
701,611,443,0
657,694,413,0
721,749,369,0
803,843,380,0
1053,993,458,0
1104,938,505,0
1170,776,409,0
1458,738,309,0
1414,591,258,0
1270,428,258,0
1124,338,243,0
973,358,185,0
881,374,134,0
815,337,99,0
736,214,63,0
676,144,139,0
679,332,274,0
812,421,401,0
865,372,434,0
1022,346,425,0
1522,514,450,0
1637,630,394,0
1322,615,350,0
1036,549,371,0
888,623,309,0
788,696,294,0
673,695,366,0
690,691,324,0
801,763,326,0
897,846,337,0
986,956,431,0
1089,920,530,0
1206,769,359,0
1480,744,284,0
1506,614,279,0
1350,486,293,0
1160,426,254,0
1003,389,154,0
924,396,95,0
884,362,65,0
848,282,41,0
819,206,25,0
753,205,45,0
710,299,113,0
803,364,177,0
822,399,281,0
978,493,378,0
1272,545,430,0
1257,584,473,0
1040,554,515,0
1008,465,519,0
1035,424,503,0
929,450,490,0
852,543,537,0
809,693,510,0
842,832,478,0
929,831,458,0
1015,770,496,0
1038,780,591,0
1148,723,491,0
1418,667,367,0
1505,556,316,0
1345,394,272,0
1126,332,219,0
907,342,187,0
800,455,184,0
792,415,151,0
757,220,-5,0
735,135,-26,0
725,149,53,0
700,261,152,0
755,335,228,0
799,363,326,0
1024,477,427,0
1516,533,432,0
1602,642,472,0
1299,585,499,0
1010,447,554,0
911,456,533,0
877,451,475,0
824,492,440,0
816,709,385,0
858,933,318,0
708,1015,321,0
774,1000,477,0
1117,1146,584,0
1678,899,353,0
1931,690,315,0
1678,444,343,0
1409,382,303,0
1170,450,257,0
951,472,185,0
808,413,110,0
739,240,53,0
701,130,14,0
697,88,9,0
699,135,21,0
870,321,95,0
858,415,233,0
1061,638,397,0
1450,793,589,0
1449,755,509,0
1260,421,404,0
1179,218,641,0
1067,406,817,0
940,528,678,0
754,615,555,0
725,746,521,0
756,733,409,0
927,840,354,0
1257,1010,478,0
1139,817,402,0
1341,769,416,0
1321,688,316,0
1267,590,256,0
1125,447,257,0
940,357,235,0
801,313,184,0
730,251,146,0
669,163,115,0
628,140,125,0
656,175,170,0
652,240,220,0
815,342,278,0
1051,434,364,0
1374,593,422,0
1775,715,442,0
1558,684,417,0
1116,572,395,0
917,458,289,0
799,573,283,0
709,665,410,0
636,665,422,0
684,672,344,0
757,734,360,0
860,808,355,0
1149,921,443,0
1153,858,506,0
1176,729,357,0
1430,691,312,0
1480,564,272,0
1300,451,261,0
1074,379,236,0
878,360,172,0
793,353,126,0
731,293,90,0
711,221,84,0
704,168,93,0
715,194,125,0
834,317,180,0
1049,427,264,0
1004,440,311,0
1334,631,402,0
1521,661,407,0
1281,688,360,0
1146,550,430,0
1046,588,547,0
891,548,491,0
771,419,450,0
676,467,376,0
719,683,340,0
733,854,307,0
912,952,285,0
1210,1102,455,0
1021,864,469,0
1252,773,375,0
1426,715,219,0
1356,538,195,0
1206,352,210,0
1013,326,207,0
899,389,175,0
882,381,120,0
827,278,64,0
773,196,62,0
698,174,92,0
628,245,140,0
767,351,214,0
854,387,290,0
1140,502,319,0
1499,643,422,0
1276,804,591,0
935,707,668,0
903,381,517,0
939,216,477,0
912,321,571,0
817,547,625,0
829,734,564,0
836,785,491,0
888,802,441,0
1116,917,518,0
1104,847,491,0
1305,750,399,0
1410,619,294,0
1211,500,256,0
1057,425,246,0
915,369,193,0
826,375,137,0
815,356,106,0
811,292,81,0
794,233,72,0
721,188,92,0
652,212,128,0
721,316,190,0
844,420,312,0
969,502,414,0
1341,620,500,0
1445,648,547,0
1089,623,568,0
883,441,536,0
881,421,463,0
839,487,458,0
750,533,513,0
717,602,477,0
763,734,447,0
847,816,424,0
958,805,423,0
1120,861,547,0
1215,761,502,0
1397,673,377,0
1417,580,312,0
1272,464,261,0
1118,395,227,0
927,350,194,0
774,353,144,0
728,337,103,0
700,250,52,0
652,180,37,0
639,182,76,0
677,271,128,0
908,407,213,0
948,472,371,0
1076,560,458,0
1472,624,512,0
1392,587,490,0
1003,480,542,0
921,342,582,0
874,398,511,0
762,484,505,0
718,544,503,0
712,595,455,0
770,650,400,0
833,732,371,0
1061,861,401,0
1062,927,527,0
1146,805,450,0
1359,688,351,0
1328,539,278,0
1198,414,250,0
1021,351,240,0
852,357,202,0
775,366,162,0
737,323,122,0
700,245,103,0
682,192,113,0
698,212,157,0
692,281,221,0
861,391,298,0
973,420,348,0
1040,481,389,0
1459,631,464,0
1559,712,473,0
1168,632,469,0
889,466,496,0
804,466,423,0
734,501,399,0
682,554,454,0
626,595,435,0
684,667,433,0
775,739,436,0
927,776,410,0
1198,855,544,0
1098,700,523,0
1195,640,385,0
1380,597,314,0
1267,462,294,0
1034,369,245,0
836,319,190,0
737,346,147,0
747,375,121,0
763,313,86,0
712,231,71,0
712,223,88,0
730,289,150,0
796,379,219,0
978,460,320,0
911,480,453,0
1147,518,509,0
1398,515,535,0
1170,481,536,0
877,379,548,0
790,386,524,0
752,478,461,0
662,546,500,0
644,568,519,0
706,577,493,0
798,621,460,0
884,680,414,0
1062,783,435,0
1071,824,522,0
1082,723,415,0
1265,673,334,0
1245,532,276,0
1124,406,223,0
1000,332,194,0
862,331,175,0
770,365,150,0
727,345,116,0
679,259,75,0
658,230,91,0
690,255,143,0
752,328,193,0
958,442,331,0
1124,572,435,0
1468,662,532,0
1257,582,476,0
937,366,400,0
784,307,453,0
739,452,480,0
715,557,534,0
710,547,524,0
701,526,478,0
829,580,432,0
960,670,369,0
1067,822,420,0
1112,881,536,0
1125,751,408,0
1421,693,325,0
1458,499,256,0
1204,384,227,0
987,339,220,0
820,362,207,0
722,354,138,0
702,284,79,0
716,200,60,0
821,210,82,0
1065,296,154,0
929,340,257,0
884,506,454,0
785,477,537,0
1035,590,560,0
1306,505,496,0
1009,462,556,0
892,374,542,0
702,295,515,0
612,325,481,0
689,429,456,0
799,547,339,0
1218,845,297,0
1222,1110,422,0
1190,908,384,0
1267,738,414,0
1174,659,214,0
1056,566,168,0
1035,397,213,0
898,336,241,0
815,321,201,0
722,264,133,0
662,234,128,0
709,250,169,0
799,287,212,0
808,297,255,0
932,370,328,0
1031,427,409,0
992,492,419,0
1344,570,415,0
1402,579,381,0
1114,498,297,0
872,399,274,0
749,490,299,0
700,645,316,0
646,678,349,0
611,627,334,0
739,640,352,0
843,693,345,0
921,754,351,0
1064,856,504,0
1061,804,471,0
1260,743,339,0
1388,616,291,0
1228,447,264,0
1095,377,233,0
966,353,195,0
866,363,149,0
811,354,107,0
757,296,73,0
723,240,61,0
738,246,88,0
756,287,124,0
871,359,165,0
966,443,264,0
836,427,331,0
1124,556,396,0
1364,606,442,0
1174,602,445,0
992,419,451,0
901,416,513,0
829,491,471,0
752,513,471,0
720,564,497,0
728,642,494,0
822,715,463,0
958,720,422,0
1173,806,489,0
1112,791,512,0
1155,712,379,0
1344,655,297,0
1288,510,233,0
1132,411,202,0
990,342,186,0
863,361,144,0
803,370,100,0
807,324,59,0
775,253,46,0
696,235,79,0
726,254,102,0
925,363,155,0
864,399,271,0
823,456,347,0
1130,602,451,0
1288,654,505,0
1085,528,439,0
984,292,451,0
929,349,533,0
824,470,499,0
737,552,503,0
701,593,475,0
760,670,461,0
865,699,439,0
983,700,446,0
1127,782,546,0
1109,741,483,0
1261,701,372,0
1336,624,305,0
1198,502,264,0
1060,414,225,0
932,344,171,0
825,350,124,0
800,354,92,0
755,289,53,0
713,224,30,0
697,231,55,0
660,289,122,0
685,330,179,0
884,412,281,0
986,452,383,0
1226,516,435,0
1471,577,537,0
1213,607,595,0
940,489,552,0
921,369,510,0
893,420,485,0
806,516,494,0
689,609,486,0
664,689,453,0
746,786,439,0
861,781,399,0
1122,840,469,0
1158,755,498,0
1288,692,402,0
1479,675,333,0
1445,552,281,0
1226,450,242,0
1009,369,206,0
837,380,155,0
769,391,128,0
749,309,89,0
707,214,61,0
699,168,81,0
687,197,123,0
789,306,189,0
892,391,285,0
922,457,369,0
1249,628,480,0
1503,715,516,0
1233,645,481,0
953,482,516,0
918,420,524,0
819,469,500,0
734,513,533,0
709,588,533,0
738,640,476,0
768,712,424,0
871,756,387,0
1062,829,438,0
1211,867,575,0
1215,668,404,0
1457,615,318,0
1450,511,267,0
1188,446,253,0
988,368,225,0
802,334,164,0
682,328,110,0
623,284,88,0
609,208,77,0
588,198,112,0
636,241,183,0
692,279,243,0
854,315,286,0
1153,410,366,0
1325,527,405,0
1657,626,438,0
1747,691,437,0
1268,676,367,0
860,601,368,0
750,570,318,0
640,620,330,0
567,625,374,0
537,618,357,0
595,656,363,0
718,752,377,0
835,801,384,0
985,817,473,0
1200,875,501,0
1527,798,390,0
1764,617,289,0
1494,434,288,0
1239,385,243,0
1055,405,184,0
926,440,149,0
833,412,107,0
760,288,68,0
681,177,56,0
629,143,81,0
617,193,162,0
638,262,245,0
751,306,304,0
893,387,366,0
1276,644,468,0
1725,791,526,0
1560,763,527,0
1141,597,538,0
909,488,449,0
792,499,363,0
742,558,386,0
659,620,371,0
628,711,321,0
740,753,283,0
749,763,312,0
818,787,356,0
1089,943,473,0
1217,840,447,0
1352,692,397,0
1525,610,389,0
1461,470,315,0
1226,363,246,0
971,299,234,0
817,333,219,0
676,307,147,0
673,248,98,0
632,171,80,0
656,211,100,0
716,273,127,0
766,365,171,0
966,499,255,0
994,601,385,0
1138,637,457,0
1536,701,534,0
1393,623,559,0
1042,422,508,0
806,356,501,0
739,451,456,0
655,570,449,0
597,641,467,0
572,633,430,0
627,640,414,0
744,710,423,0
857,738,395,0
1084,773,436,0
1277,752,493,0
1262,615,401,0
1462,597,348,0
1399,529,310,0
1200,459,252,0
999,373,205,0
813,333,164,0
685,325,134,0
638,278,90,0
598,193,63,0
544,162,70,0
582,241,122,0
658,330,211,0
781,383,256,0
1055,458,337,0
1369,587,454,0
1425,588,455,0
1625,558,436,0
1379,555,474,0
964,535,390,0
775,513,375,0
682,544,389,0
564,575,393,0
551,597,376,0
582,583,358,0
672,630,351,0
775,690,358,0
865,696,367,0
1045,775,438,0
1304,836,544,0
1302,670,397,0
1389,560,318,0
1300,484,344,0
1110,420,261,0
934,327,167,0
796,285,138,0
717,315,133,0
721,310,120,0
652,197,71,0
655,255,138,0
737,357,224,0
943,457,311,0
1034,503,400,0
1073,549,457,0
1459,637,506,0
1381,617,482,0
1066,458,423,0
838,374,443,0
728,464,424,0
662,558,428,0
588,577,447,0
550,579,457,0
641,592,476,0
891,631,463,0
1328,761,480,0
1400,744,535,0
1016,573,475,0
1005,524,352,0
1299,534,220,0
1176,429,210,0
901,326,232,0
780,312,194,0
679,294,104,0
669,344,88,0
712,300,79,0
672,263,95,0
681,278,124,0
698,320,160,0
782,408,240,0
947,541,363,0
972,577,424,0
1161,593,492,0
1278,681,651,0
969,577,657,0
792,373,541,0
714,323,525,0
648,407,547,0
623,529,556,0
633,601,563,0
751,595,533,0
887,569,480,0
1028,611,453,0
1212,707,510,0
1109,626,491,0
1084,540,389,0
1225,496,272,0
1224,431,206,0
1022,397,189,0
799,363,177,0
649,355,131,0
577,332,68,0
547,307,48,0
552,273,67,0
563,275,107,0
569,284,140,0
604,317,220,0
655,350,319,0
708,318,354,0
1100,381,368,0
1602,558,478,0
1522,609,530,0
1501,673,679,0
910,618,720,0
645,436,471,0
639,279,379,0
565,370,453,0
499,519,499,0
515,544,450,0
614,556,390,0
760,615,436,0
854,651,410,0
1300,818,474,0
1438,760,497,0
1448,588,318,0
1374,539,313,0
1111,466,257,0
935,452,212,0
790,380,175,0
661,348,136,0
617,292,107,0
633,236,85,0
659,219,81,0
681,239,127,0
722,274,171,0
870,366,231,0
1115,468,337,0
1041,493,414,0
1293,586,467,0
1509,602,479,0
1232,531,395,0
957,393,389,0
792,431,402,0
732,563,367,0
693,611,396,0
661,592,410,0
663,589,434,0
750,622,458,0
833,633,446,0
870,609,431,0
947,674,500,0
1213,783,558,0
1277,650,404,0
1362,594,366,0
1358,513,311,0
1140,427,201,0
1016,354,162,0
880,316,139,0
774,346,107,0
727,322,69,0
657,239,30,0
624,231,52,0
606,268,130,0
700,347,197,0
939,429,295,0
889,388,373,0
1132,514,478,0
1468,624,574,0
1271,612,521,0
977,455,524,0
893,362,569,0
792,424,511,0
702,480,493,0
665,558,504,0
667,638,480,0
744,708,464,0
870,747,420,0
1104,830,463,0
1163,778,505,0
1111,656,414,0
1278,654,350,0
1304,573,268,0
1108,454,231,0
909,353,205,0
788,325,150,0
728,357,108,0
732,368,92,0
739,293,66,0
704,235,68,0
694,257,125,0
743,312,180,0
959,413,238,0
1047,464,345,0
996,523,430,0
1221,603,528,0
1230,603,557,0
942,489,514,0
841,314,484,0
800,338,473,0
730,413,440,0
684,489,473,0
662,557,497,0
662,579,479,0
789,605,468,0
890,571,435,0
939,597,447,0
1038,667,536,0
1129,653,486,0
1273,598,360,0
1389,558,336,0
1184,451,264,0
985,351,191,0
838,285,163,0
731,331,134,0
677,354,109,0
640,306,84,0
635,251,79,0
617,248,119,0
672,279,152,0
838,373,193,0
1067,450,280,0
1026,534,379,0
1353,671,485,0
1411,637,508,0
1022,494,430,0
840,268,408,0
792,334,407,0
701,469,418,0
647,541,489,0
619,568,514,0
650,569,508,0
770,591,502,0
874,594,468,0
976,652,474,0
1065,723,552,0
1190,677,462,0
1348,649,358,0
1418,598,330,0
1198,478,262,0
1050,369,188,0
910,310,153,0
808,354,136,0
746,352,119,0
666,271,77,0
582,189,65,0
547,199,118,0
581,261,185,0
672,360,258,0
955,443,324,0
1025,554,405,0
1213,621,498,0
1571,713,563,0
1317,639,515,0
943,398,453,0
786,367,478,0
750,473,432,0
655,590,430,0
591,660,450,0
620,629,432,0
689,646,427,0
793,676,393,0
927,732,414,0
1166,856,543,0
1289,759,433,0
1458,664,332,0
1387,527,329,0
1151,404,257,0
973,349,183,0
830,330,146,0
719,367,144,0
686,341,126,0
647,242,66,0
610,192,68,0
629,239,133,0
707,328,185,0
929,426,242,0
996,507,362,0
1141,599,444,0
1459,630,515,0
1236,585,517,0
878,417,500,0
749,316,506,0
716,373,457,0
630,485,502,0
637,554,540,0
688,587,522,0
800,607,515,0
884,592,442,0
1020,632,407,0
1232,729,513,0
1068,672,483,0
1054,601,385,0
1172,561,314,0
1108,502,258,0
964,388,224,0
832,299,191,0
729,292,141,0
691,309,101,0
688,299,86,0
664,251,94,0
675,276,122,0
745,354,186,0
867,428,251,0
1098,474,310,0
1036,464,394,0
1206,520,453,0
1420,540,475,0
1094,483,415,0
806,360,378,0
698,381,379,0
655,510,396,0
617,497,448,0
620,462,430,0
654,502,423,0
824,578,433,0
964,640,419,0
1334,793,494,0
1179,734,558,0
983,623,406,0
1172,594,342,0
1206,468,268,0
1024,343,226,0
847,278,207,0
742,309,170,0
702,354,119,0
718,338,88,0
701,268,90,0
675,256,96,0
727,313,141,0
801,361,194,0
890,379,235,0
1014,443,338,0
985,487,421,0
1262,544,484,0
1284,550,525,0
968,489,556,0
778,352,521,0
685,358,470,0
624,425,481,0
603,504,543,0
641,502,511,0
694,517,483,0
790,573,495,0
870,579,414,0
1266,802,579,0
1200,655,445,0
1340,579,299,0
1340,527,341,0
1174,428,275,0
978,341,161,0
795,260,122,0
646,326,159,0
637,340,141,0
592,242,72,0
567,212,89,0
623,277,147,0
716,340,179,0
919,418,236,0
1118,529,375,0
1135,616,494,0
1456,658,576,0
1231,574,591,0
873,373,499,0
741,235,433,0
640,355,442,0
566,481,478,0
562,534,477,0
610,548,491,0
749,535,467,0
858,587,459,0
871,594,427,0
950,644,491,0
1263,792,624,0
1233,587,447,0
1268,475,277,0
1249,484,314,0
1091,452,237,0
942,395,181,0
813,318,152,0
676,356,117,0
645,346,87,0
655,279,72,0
649,236,91,0
691,265,139,0
807,313,191,0
1087,426,269,0
1076,443,392,0
952,458,457,0
1201,560,555,0
1177,598,590,0
908,466,501,0
795,286,467,0
805,370,461,0
763,508,463,0
734,587,499,0
700,605,484,0
737,603,459,0
804,631,446,0
952,636,421,0
1146,691,495,0
1176,662,518,0
1138,589,383,0
1257,581,330,0
1170,497,281,0
972,410,219,0
805,309,169,0
719,307,143,0
732,343,127,0
744,323,95,0
723,266,79,0
720,267,110,0
747,297,137,0
907,364,152,0
1102,473,253,0
923,520,387,0
1093,620,471,0
1201,600,535,0
993,469,474,0
860,236,422,0
792,289,490,0
735,430,509,0
669,502,496,0
649,558,505,0
685,582,511,0
823,600,523,0
941,582,484,0
976,583,459,0
1064,631,522,0
1061,611,499,0
1012,520,387,0
1153,538,355,0
1228,489,292,0
1045,394,204,0
888,312,172,0
772,315,169,0
713,369,141,0
705,344,96,0
660,257,72,0
649,256,113,0
674,297,160,0
804,361,189,0
1061,438,242,0
1049,495,350,0
1296,641,482,0
1288,608,577,0
893,529,555,0
721,294,507,0
709,236,507,0
669,334,520,0
653,435,532,0
667,523,513,0
761,621,516,0
861,639,473,0
991,668,432,0
1292,791,533,0
1123,705,524,0
1098,609,402,0
1232,560,320,0
1181,457,242,0
996,363,213,0
820,292,195,0
712,330,153,0
696,362,121,0
685,312,80,0
665,245,82,0
678,260,123,0
735,310,168,0
835,364,215,0
1058,445,300,0
955,439,398,0
1205,531,460,0
1377,526,523,0
1098,519,508,0
846,406,523,0
782,379,529,0
689,425,492,0
611,466,526,0
601,501,543,0
696,526,511,0
813,576,492,0
929,595,411,0
1076,696,427,0
1128,770,520,0
1034,687,406,0
1202,658,322,0
1229,569,290,0
1111,442,246,0
993,337,195,0
888,312,168,0
799,335,147,0
739,323,117,0
661,261,99,0
609,231,115,0
640,283,176,0
668,339,243,0
830,389,293,0
1028,424,347,0
1089,462,388,0
1437,595,468,0
1333,616,519,0
944,539,459,0
775,387,414,0
730,420,386,0
692,490,392,0
665,556,439,0
653,579,431,0
730,617,438,0
858,662,433,0
952,660,398,0
1084,721,483,0
1084,701,521,0
1126,631,390,0
1311,594,347,0
1268,473,292,0
1056,395,234,0
900,326,194,0
824,321,155,0
758,342,118,0
726,329,94,0
684,253,62,0
675,241,77,0
675,279,113,0
755,346,141,0
960,425,211,0
945,483,334,0
1110,564,409,0
1370,627,507,0
1146,571,541,0
894,396,531,0
854,299,550,0
787,354,550,0
693,426,561,0
679,513,588,0
664,554,557,0
709,598,504,0
868,623,431,0
1007,652,413,0
1268,744,528,0
1113,668,486,0
1199,641,397,0
1337,589,299,0
1220,462,237,0
1020,372,232,0
823,310,195,0
688,315,137,0
639,312,104,0
642,272,86,0
628,223,83,0
628,255,123,0
738,350,208,0
835,407,281,0
1020,438,341,0
1111,445,419,0
1199,497,468,0
1438,579,525,0
1150,564,513,0
845,465,458,0
743,397,451,0
674,434,425,0
631,487,444,0
604,526,447,0
624,550,421,0
775,585,421,0
891,599,431,0
974,636,433,0
1120,713,530,0
1150,682,519,0
1205,557,357,0
1287,504,308,0
1126,431,261,0
970,389,200,0
847,311,154,0
732,312,120,0
677,333,88,0
692,322,65,0
705,275,60,0
742,281,73,0
789,324,130,0
879,433,224,0
1051,508,332,0
841,491,437,0
976,519,484,0
1337,560,546,0
1117,503,588,0
814,317,581,0
731,236,582,0
651,326,496,0
562,448,508,0
589,500,559,0
676,542,556,0
897,552,524,0
1238,638,492,0
1457,760,551,0
1095,670,450,0
933,581,393,0
1085,574,226,0
1029,480,149,0
866,323,173,0
781,267,169,0
710,299,109,0
719,356,67,0
776,379,78,0
829,333,91,0
880,332,135,0
894,352,191,0
973,396,228,0
989,427,338,0
764,408,369,0
987,493,457,0
1034,507,551,0
832,498,544,0
751,328,518,0
735,270,526,0
691,339,524,0
699,426,514,0
764,500,539,0
845,575,547,0
990,623,517,0
1065,636,489,0
1115,670,547,0
1017,632,509,0
1154,595,371,0
1268,513,299,0
1088,390,232,0
931,313,187,0
799,285,161,0
725,366,129,0
746,408,98,0
775,358,76,0
765,300,83,0
745,304,137,0
794,329,172,0
918,394,223,0
1012,449,350,0
923,465,434,0
1102,462,468,0
1105,454,515,0
839,467,550,0
728,368,531,0
714,369,513,0
728,418,490,0
765,483,483,0
814,568,496,0
877,597,483,0
925,593,460,0
1135,675,527,0
1230,698,617,0
868,521,494,0
992,450,351,0
1171,455,304,0
1120,374,277,0
1013,298,220,0
897,272,190,0
887,333,134,0
937,403,114,0
970,383,97,0
881,362,119,0
749,398,213,0
795,389,244,0
805,295,211,0
743,267,238,0
795,338,333,0
888,457,430,0
950,494,410,0
914,426,397,0
794,440,509,0
740,466,570,0
768,459,559,0
745,419,546,0
779,420,547,0
841,479,558,0
915,530,530,0
969,552,465,0
1080,617,461,0
1024,693,532,0
886,670,510,0
1048,585,358,0
1216,497,243,0
1244,380,229,0
1020,310,210,0
831,302,166,0
730,353,118,0
717,410,98,0
738,372,86,0
739,304,80,0
773,323,127,0
839,339,162,0
1074,385,188,0
1005,384,282,0
877,494,404,0
966,628,559,0
1033,583,559,0
899,309,436,0
753,139,454,0
759,282,501,0
726,472,490,0
680,577,510,0
684,554,532,0
806,491,473,0
909,519,428,0
1183,692,440,0
1245,815,533,0
928,656,449,0
1053,497,320,0
1121,496,200,0
1057,419,187,0
909,341,207,0
799,315,171,0
709,338,108,0
674,370,63,0
691,335,22,0
634,273,24,0
586,342,86,0
703,462,185,0
954,602,322,0
1180,638,387,0
1258,465,382,0
1149,277,392,0
996,272,453,0
1111,452,500,0
998,510,469,0
785,418,372,0
613,363,367,0
499,407,362,0
483,474,349,0
524,453,352,0
631,424,375,0
798,434,366,0
1031,490,358,0
1097,539,377,0
1147,602,415,0
1137,671,473,0
936,595,397,0
936,519,305,0
1028,505,281,0
1092,426,222,0
994,324,166,0
844,272,127,0
715,294,102,0
697,375,70,0
773,439,63,0
848,419,65,0
889,432,126,0
965,485,222,0
991,463,236,0
1002,397,255,0
861,319,338,0
770,319,394,0
947,429,468,0
990,442,479,0
862,347,428,0
694,333,458,0
628,384,469,0
593,402,430,0
606,376,423,0
626,380,451,0
651,406,431,0
741,431,407,0
860,464,421,0
1000,488,414,0
973,495,423,0
907,518,434,0
966,640,510,0
847,646,542,0
924,533,431,0
1085,423,308,0
1130,346,249,0
990,295,278,0
832,324,256,0
739,391,202,0
742,436,161,0
780,389,144,0
792,303,135,0
817,320,175,0
860,384,254,0
891,393,306,0
961,376,349,0
869,377,465,0
777,366,510,0
1105,443,516,0
1217,429,391,0
1028,417,292,0
800,435,340,0
684,507,359,0
595,592,290,0
598,570,295,0
632,510,340,0
735,477,355,0
875,515,379,0
986,568,405,0
1131,713,468,0
1044,797,595,0
954,683,455,0
1128,582,316,0
1216,494,252,0
1165,349,220,0
1035,268,208,0
896,288,168,0
834,365,117,0
840,418,68,0
825,396,46,0
793,324,36,0
796,344,51,0
846,402,89,0
879,449,176,0
907,510,331,0
871,456,386,0
830,380,408,0
1008,422,500,0
1056,444,611,0
861,382,622,0
680,282,604,0
626,254,555,0
588,338,518,0
592,419,505,0
632,450,461,0
770,482,398,0
1063,578,430,0
1057,622,435,0
1107,657,420,0
1204,732,537,0
1102,669,457,0
949,506,327,0
999,406,259,0
933,373,258,0
800,351,233,0
734,310,179,0
667,306,136,0
681,367,108,0
755,411,94,0
854,393,84,0
930,398,115,0
1032,437,180,0
1098,480,229,0
1067,474,259,0
887,437,310,0
665,402,339,0
750,415,369,0
963,451,439,0
907,383,432,0
726,323,432,0
614,355,474,0
610,427,463,0
624,467,442,0
659,445,467,0
714,448,491,0
912,485,448,0
1006,528,434,0
1021,553,431,0
1096,625,483,0
1044,664,503,0
935,573,401,0
1090,489,271,0
1122,462,250,0
1038,376,221,0
918,302,175,0
759,278,141,0
639,342,103,0
643,403,73,0
685,404,73,0
747,377,103,0
863,419,162,0
1019,463,212,0
1126,488,250,0
1107,473,311,0
895,471,390,0
777,517,463,0
880,454,445,0
996,248,367,0
878,70,313,0
681,193,335,0
632,383,340,0
622,546,348,0
640,545,376,0
657,445,411,0
676,402,416,0
807,455,412,0
967,522,444,0
1011,540,491,0
1059,567,539,0
1006,611,613,0
921,586,582,0
1037,508,452,0
1127,440,349,0
1040,337,304,0
908,284,247,0
769,280,191,0
668,340,124,0
634,420,86,0
692,465,93,0
758,445,121,0
849,441,163,0
990,436,224,0
1072,418,265,0
1089,336,272,0
863,354,351,0
778,449,443,0
915,478,488,0
945,396,446,0
806,233,364,0
667,200,350,0
617,321,373,0
628,425,387,0
655,436,396,0
724,439,431,0
815,501,481,0
987,555,506,0
1127,551,507,0
1228,578,557,0
1190,610,596,0
996,536,531,0
823,420,416,0
971,398,310,0
1024,405,278,0
965,345,222,0
872,300,136,0
782,294,83,0
725,379,64,0
763,477,63,0
846,497,75,0
911,449,97,0
955,444,166,0
988,425,230,0
1011,365,272,0
869,297,315,0
650,320,387,0
734,424,475,0
920,477,511,0
943,395,475,0
795,284,465,0
692,302,491,0
707,366,479,0
712,419,461,0
704,419,458,0
680,443,472,0
755,470,457,0
879,490,426,0
1021,541,450,0
1067,615,506,0
952,621,544,0
815,516,473,0
924,448,338,0
1056,451,284,0
1083,360,281,0
919,306,227,0
754,281,161,0
662,332,117,0
708,418,90,0
837,464,111,0
904,424,129,0
962,441,187,0
978,459,270,0
1020,462,331,0
1018,332,315,0
884,252,316,0
855,380,413,0
942,478,476,0
879,421,460,0
704,272,399,0
581,245,369,0
579,371,394,0
629,434,412,0
686,425,434,0
696,427,473,0
783,453,457,0
946,497,451,0
1031,515,469,0
1098,571,495,0
977,631,574,0
899,609,537,0
1013,526,423,0
1173,455,286,0
1050,344,252,0
861,289,217,0
731,280,171,0
611,360,141,0
606,419,109,0
696,418,95,0
791,392,119,0
909,433,182,0
994,435,259,0
1120,429,296,0
1230,398,337,0
1096,412,424,0
884,438,472,0
848,432,464,0
834,405,444,0
715,306,398,0
590,256,358,0
546,326,370,0
553,401,397,0
603,444,421,0
646,427,437,0
684,423,443,0
837,462,433,0
982,486,451,0
1016,477,449,0
1098,524,478,0
1152,621,562,0
1057,579,543,0
994,451,438,0
1054,396,306,0
1026,371,257,0
862,338,229,0
710,314,171,0
614,324,138,0
593,375,114,0
662,410,91,0
754,379,91,0
816,384,137,0
930,441,195,0
1074,510,295,0
1131,509,368,0
1140,387,372,0
1079,324,403,0
859,329,446,0
789,366,423,0
835,397,395,0
765,367,386,0
661,349,356,0
602,360,352,0
619,417,355,0
687,433,348,0
726,407,366,0
691,410,400,0
740,461,410,0
907,517,452,0
1043,530,485,0
1106,522,501,0
1028,570,579,0
901,570,561,0
924,488,411,0
1044,438,311,0
1052,359,289,0
924,304,241,0
830,289,162,0
748,335,128,0
724,407,98,0
775,437,78,0
836,422,89,0
872,412,126,0
964,453,182,0
1027,463,221,0
1141,462,245,0
1052,385,292,0
802,359,380,0
655,341,421,0
771,422,458,0
850,465,513,0
825,372,494,0
742,278,461,0
654,323,452,0
657,416,400,0
658,452,381,0
703,425,403,0
731,405,383,0
834,433,359,0
974,490,390,0
1044,500,398,0
1087,548,431,0
1072,630,518,0
979,594,521,0
888,431,408,0
1006,348,292,0
997,334,271,0
893,305,254,0
791,301,185,0
695,314,132,0
650,380,103,0
698,443,89,0
796,458,100,0
879,439,139,0
994,478,225,0
1072,474,303,0
1135,393,315,0
1067,272,334,0
918,316,427,0
758,409,488,0
799,492,523,0
829,422,505,0
753,274,433,0
628,215,376,0
572,294,343,0
589,377,333,0
637,436,349,0
674,431,367,0
680,447,400,0
783,498,447,0
917,517,478,0
1006,478,464,0
1128,507,515,0
1077,608,633,0
991,593,627,0
872,471,543,0
1027,400,389,0
1044,358,320,0
909,307,271,0
804,324,225,0
702,359,188,0
627,403,148,0
627,407,104,0
704,392,101,0
804,391,134,0
961,451,195,0
1127,500,278,0
1156,461,310,0
1114,346,304,0
990,325,369,0
803,377,416,0
778,425,438,0
799,420,453,0
727,362,433,0
629,320,386,0
604,347,371,0
641,409,382,0
677,420,371,0
704,421,373,0
726,442,409,0
785,447,400,0
895,469,415,0
995,487,434,0
1045,518,446,0
1037,584,506,0
1014,617,554,0
922,553,532,0
996,425,404,0
1089,357,309,0
1085,289,262,0
939,274,203,0
786,297,147,0
670,347,110,0
640,409,81,0
674,439,73,0
740,416,95,0
805,394,124,0
938,432,173,0
1048,510,279,0
1116,526,375,0
1018,426,492,0
861,264,521,0
812,117,433,0
953,262,430,0
921,438,461,0
751,448,418,0
603,416,408,0
528,409,395,0
535,434,343,0
627,440,339,0
716,438,393,0
760,432,412,0
862,477,417,0
1010,545,460,0
1154,601,509,0
1139,612,581,0
1042,573,598,0
918,477,520,0
1000,410,380,0
1028,353,296,0
917,305,267,0
804,307,223,0
729,325,150,0
681,375,97,0
674,424,74,0
732,444,77,0
814,419,100,0
928,452,163,0
1019,472,232,0
1080,468,280,0
1118,418,299,0
1003,366,344,0
788,349,353,0
794,400,347,0
874,484,415,0
793,444,430,0
683,374,388,0
624,336,387,0
603,395,422,0
648,438,446,0
722,446,464,0
763,462,502,0
844,455,468,0
945,465,431,0
976,498,440,0
997,537,453,0
1032,584,483,0
1058,621,520,0
984,546,487,0
1031,416,342,0
1058,409,274,0
1058,376,244,0
927,339,197,0
756,292,136,0
641,309,92,0
615,362,56,0
602,390,60,0
612,370,96,0
658,378,138,0
788,432,206,0
980,522,307,0
1204,546,379,0
1312,478,407,0
1192,384,448,0
937,340,476,0
952,384,417,0
973,438,400,0
806,414,381,0
639,395,365,0
578,439,345,0
542,483,345,0
579,434,337,0
641,393,355,0
672,412,395,0
831,449,381,0
1016,506,408,0
1079,524,443,0
1096,531,451,0
1155,597,478,0
1051,529,449,0
855,412,374,0
888,398,295,0
931,425,281,0
904,375,244,0
877,323,155,0
807,297,86,0
730,351,77,0
732,424,91,0
786,472,92,0
872,489,110,0
957,478,174,0
1031,471,269,0
1087,422,315,0
1072,310,295,0
913,286,367,0
707,353,429,0
760,464,480,0
808,476,520,0
759,368,458,0
660,237,377,0
638,403,399,0
677,453,391,0
740,463,414,0
754,452,441,0
794,431,398,0
875,457,412,0
969,477,450,0
1051,476,435,0
1091,549,476,0
1057,586,523,0
890,509,487,0
869,413,356,0
968,404,283,0
928,360,251,0
841,336,203,0
756,318,145,0
659,355,130,0
622,421,131,0
684,444,118,0
758,408,141,0
868,420,199,0
1011,472,285,0
1074,469,343,0
1120,389,340,0
1096,332,373,0
955,396,447,0
709,399,432,0
734,454,435,0
822,459,485,0
781,364,451,0
666,284,388,0
579,320,383,0
566,390,394,0
602,413,396,0
643,388,421,0
671,389,434,0
753,420,427,0
853,449,443,0
948,466,461,0
1088,526,480,0
1150,615,575,0
1098,614,594,0
902,467,480,0
984,396,321,0
1002,409,291,0
884,355,271,0
769,328,205,0
653,317,154,0
595,372,126,0
643,430,122,0
723,408,121,0
805,369,140,0
921,399,193,0
1017,445,270,0
1100,464,307,0
1161,456,340,0
1039,468,435,0
812,445,456,0
736,402,431,0
825,407,423,0
863,357,416,0
769,284,374,0
686,337,378,0
664,382,370,0
646,406,340,0
661,378,333,0
663,372,355,0
684,390,364,0
750,409,380,0
860,432,401,0
979,454,408,0
1083,507,441,0
1144,599,533,0
1028,606,563,0
917,499,464,0
1026,392,310,0
1039,341,232,0
915,293,211,0
756,312,187,0
636,349,153,0
597,421,127,0
656,451,116,0
743,401,107,0
831,375,120,0
947,423,169,0
1007,460,230,0
999,439,267,0
1092,424,284,0
1067,443,345,0
1001,485,405,0
879,432,424,0
783,373,406,0
827,355,389,0
815,359,383,0
749,353,388,0
686,327,381,0
625,325,377,0
600,330,355,0
643,350,367,0
716,376,403,0
768,388,399,0
791,395,394,0
856,434,423,0
1082,518,468,0
1295,568,501,0
1181,522,500,0
917,449,466,0
974,415,327,0
943,443,261,0
784,397,262,0
703,410,249,0
662,422,259,0
794,449,259,0
836,410,278,0
805,340,242,0
717,269,216,0
678,235,151,0
687,300,212,0
729,361,368,0
735,408,422,0
757,507,561,0
652,457,566,0
624,299,427,0
687,320,435,0
759,519,555,0
908,613,523,0
963,635,514,0
888,620,475,0
863,574,452,0
834,580,438,0
774,642,444,0
693,624,416,0
696,662,418,0
1036,933,511,0
1541,989,543,0
1421,666,395,0
1404,479,359,0
1192,383,233,0
1080,376,179,0
925,383,217,0
786,407,231,0
765,334,138,0
713,202,45,0
701,207,91,0
767,297,192,0
915,382,256,0
1057,336,267,0
1130,319,284,0
1390,480,406,0
1363,566,481,0
971,505,393,0
728,286,271,0
703,306,245,0
719,469,335,0
800,527,381,0
910,520,345,0
971,582,348,0
1018,758,368,0
1075,1026,521,0
1067,993,606,0
1290,704,433,0
1487,499,313,0
1331,398,279,0
1083,363,306,0
935,403,301,0
815,449,218,0
757,409,119,0
748,319,66,0
750,249,67,0
762,227,86,0
819,238,116,0
865,291,164,0
1016,365,210,0
986,405,254,0
1266,611,380,0
1535,652,421,0
1232,552,311,0
869,365,291,0
759,361,357,0
695,532,373,0
750,618,422,0
735,568,491,0
776,557,505,0
928,664,547,0
1010,776,528,0
1105,860,587,0
1045,809,582,0
1270,756,383,0
1553,667,299,0
1331,503,298,0
1138,384,252,0
997,326,172,0
916,377,95,0
873,418,72,0
853,375,55,0
840,290,39,0
830,248,57,0
728,239,111,0
726,325,191,0
796,366,295,0
868,389,355,0
1213,448,395,0
1432,515,450,0
1233,576,527,0
948,473,575,0
844,443,615,0
800,497,615,0
784,510,635,0
822,561,599,0
871,656,520,0
835,729,453,0
908,796,442,0
1004,963,514,0
1157,954,412,0
1537,807,311,0
1490,607,316,0
1244,470,296,0
1032,395,222,0
930,373,135,0
910,387,107,0
886,349,111,0
822,279,99,0
789,208,96,0
734,171,125,0
697,238,193,0
820,320,261,0
871,347,318,0
1049,484,422,0
1398,571,480,0
1496,576,410,0
1254,457,379,0
1042,391,422,0
914,521,388,0
767,630,412,0
687,619,413,0
684,661,397,0
728,763,443,0
838,782,443,0
980,835,469,0
1113,870,547,0
1188,709,402,0
1416,700,359,0
1570,596,333,0
1349,454,280,0
1152,367,214,0
985,346,163,0
863,382,120,0
816,363,78,0
783,261,37,0
721,177,19,0
710,185,42,0
674,302,131,0
778,370,197,0
907,393,248,0
1068,499,384,0
1484,635,498,0
1559,584,452,0
1165,371,394,0
900,258,464,0
868,410,433,0
849,566,428,0
813,592,436,0
746,640,407,0
778,714,419,0
864,791,403,0
987,876,436,0
1087,894,525,0
1082,706,388,0
1350,674,326,0
1399,569,281,0
1224,476,264,0
1089,399,234,0
984,362,163,0
908,371,108,0
855,353,83,0
829,292,68,0
817,243,73,0
761,216,92,0
767,299,161,0
879,394,248,0
836,402,347,0
1028,505,444,0
1370,512,477,0
1256,474,437,0
938,389,487,0
852,379,550,0
781,497,507,0
759,549,524,0
760,524,537,0
785,549,471,0
815,604,385,0
997,777,329,0
1244,982,389,0
1006,869,410,0
1169,780,372,0
1245,677,259,0
1184,528,196,0
1079,369,194,0
975,300,177,0
865,342,158,0
819,365,144,0
791,306,118,0
722,218,143,0
747,263,183,0
917,356,224,0
1021,398,297,0
1015,497,381,0
1369,607,458,0
1400,574,395,0
1047,461,318,0
870,323,335,0
786,465,346,0
713,578,377,0
693,557,426,0
709,526,415,0
758,553,427,0
875,617,401,0
922,673,399,0
1031,771,497,0
1005,762,506,0
1159,694,362,0
1338,600,322,0
1207,471,290,0
1058,400,237,0
930,345,192,0
843,337,139,0
804,336,108,0
783,307,90,0
775,267,77,0
778,265,94,0
800,314,133,0
929,396,186,0
1043,465,282,0
932,480,373,0
1167,556,429,0
1224,526,422,0
950,448,374,0
790,297,365,0
766,400,391,0
766,516,421,0
784,533,447,0
790,541,441,0
838,587,436,0
901,672,437,0
1035,770,475,0
974,765,534,0
1014,629,385,0
1242,547,295,0
1168,438,266,0
959,360,227,0
876,329,183,0
814,355,140,0
793,394,109,0
871,390,96,0
993,386,122,0
1032,391,160,0
1104,388,151,0
958,346,204,0
611,329,319,0
813,455,381,0
852,453,492,0
707,377,496,0
650,263,463,0
718,358,468,0
818,512,459,0
846,569,438,0
968,564,460,0
1116,603,485,0
1098,617,480,0
1154,625,445,0
1272,711,508,0
1118,678,549,0
860,515,400,0
983,392,217,0
1096,402,178,0
1074,419,241,0
973,383,202,0
832,278,70,0
678,250,11,0
589,334,29,0
643,390,46,0
728,389,66,0
756,344,117,0
745,344,204,0
766,331,290,0
955,261,234,0
1044,246,191,0
1039,388,292,0
1214,635,473,0
1025,705,599,0
798,598,551,0
833,386,449,0
870,378,435,0
815,459,430,0
765,505,399,0
861,555,420,0
865,607,431,0
1083,645,302,0
1058,576,303,0
952,417,262,0
816,361,250,0
826,355,177,0
787,395,187,0
727,379,224,0
689,335,244,0
623,325,330,0
547,290,386,0
508,246,435,0
487,192,482,0
556,169,492,0
714,182,527,0
838,191,489,0
1428,252,241,0
1996,620,108,0
1988,965,171,0
1397,885,371,0
662,682,370,0
577,500,167,0
600,543,122,0
550,534,244,0
652,475,275,0
664,461,210,0
460,593,262,0
565,717,281,0
771,855,329,0
1267,1021,374,0
1533,953,333,0
1834,746,313,0
1533,559,365,0
1403,452,254,0
1265,444,170,0
1086,493,180,0
990,432,187,0
863,258,123,0
821,174,100,0
811,121,101,0
761,154,122,0
800,285,188,0
947,373,275,0
1154,516,348,0
1401,625,415,0
1191,613,401,0
921,504,305,0
902,394,301,0
920,485,440,0
966,551,512,0
937,595,483,0
897,621,413,0
896,680,341,0
884,851,312,0
946,1011,379,0
937,1026,468,0
1169,868,414,0
1416,682,320,0
1342,494,257,0
1187,390,223,0
1057,370,212,0
943,383,187,0
880,374,137,0
828,317,95,0
799,258,78,0
789,237,101,0
767,257,148,0
816,323,208,0
906,337,238,0
926,356,271,0
1191,500,338,0
1398,566,348,0
1217,630,337,0
1053,542,338,0
992,512,316,0
865,596,295,0
737,599,387,0
696,624,418,0
749,702,390,0
841,826,418,0
925,787,398,0
953,804,490,0
1069,884,545,0
1293,849,321,0
1489,743,285,0
1419,536,277,0
1286,415,223,0
1171,379,171,0
1046,392,136,0
954,397,95,0
858,319,38,0
749,207,-9,0
686,181,2,0
650,248,69,0
621,341,155,0
694,353,201,0
838,371,252,0
1191,483,353,0
1586,549,408,0
1343,576,437,0
976,606,615,0
899,448,672,0
911,312,557,0
920,286,541,0
818,507,550,0
815,775,479,0
894,904,377,0
846,894,344,0
964,909,429,0
1071,983,437,0
1374,917,326,0
1650,748,280,0
1522,470,258,0
1342,320,170,0
1135,299,135,0
945,388,147,0
828,465,144,0
807,365,78,0
757,186,7,0
654,121,20,0
634,192,87,0
816,340,150,0
827,352,213,0
1046,513,301,0
1415,667,420,0
1383,686,417,0
1065,509,327,0
928,327,394,0
943,399,486,0
927,494,482,0
902,531,504,0
924,600,488,0
963,709,443,0
1028,891,436,0
1115,1017,555,0
1052,868,560,0
1207,660,381,0
1427,597,287,0
1452,456,249,0
1246,394,274,0
1035,378,228,0
882,388,121,0
811,396,50,0
824,358,9,0
834,281,-7,0
825,263,11,0
757,288,62,0
773,331,124,0
895,360,157,0
946,362,197,0
1060,454,262,0
1200,525,353,0
1090,573,408,0
941,511,412,0
890,381,441,0
852,354,514,0
857,384,555,0
841,449,560,0
836,576,574,0
881,664,546,0
975,747,534,0
1192,880,637,0
1144,786,560,0
1318,628,409,0
1457,575,342,0
1351,470,246,0
1191,415,223,0
1020,367,195,0
895,381,115,0
841,379,51,0
795,320,7,0
726,232,-14,0
673,217,5,0
652,286,71,0
702,356,139,0
862,395,182,0
922,426,287,0
1081,562,417,0
1397,600,453,0
1314,445,342,0
1059,271,326,0
921,310,477,0
909,515,476,0
801,643,445,0
749,658,494,0
763,596,494,0
851,646,491,0
995,710,485,0
1128,742,453,0
1140,768,520,0
1090,688,433,0
1054,605,305,0
1244,545,217,0
1275,461,175,0
1146,427,175,0
1053,378,140,0
956,342,46,0
905,360,-6,0
850,367,-5,0
791,334,-2,0
764,351,37,0
774,380,102,0
793,392,130,0
841,389,175,0
740,389,269,0
818,459,339,0
1049,509,408,0
1066,457,377,0
894,199,401,0
848,345,512,0
768,452,555,0
714,490,540,0
652,564,588,0
714,581,559,0
915,556,529,0
1064,530,474,0
1116,553,425,0
1111,586,429,0
1143,676,442,0
983,603,355,0
1092,541,230,0
1164,493,189,0
