AccX [mg],AccY,AccZ,Ground Truth
12,-152,906,-1
-11,-172,930,-1
-5,-124,998,-1
14,-108,1065,-1
9,-76,1099,-1
-12,-99,1082,-1
-25,-134,1047,-1
-10,-163,1024,-1
19,-163,1022,-1
45,-170,1012,-1
33,-101,1036,-1
-60,-90,1039,-1
-60,0,1131,-1
-8,71,1170,-1
80,20,1122,-1
148,-42,1033,-1
204,-26,994,-1
284,-17,946,-1
286,36,883,-1
219,39,864,-1
83,8,833,-1
-32,-23,876,-1
-65,-44,920,-1
-51,-31,969,-1
-53,-40,997,-1
-73,-84,1009,-1
-84,-147,997,-1
-86,-174,1011,-1
-93,-165,1031,-1
-91,-111,1070,-1
-69,-32,1107,-1
-90,77,1219,-1
-3,129,1263,-1
72,109,1170,-1
23,41,1019,-1
-76,77,932,-1
-152,188,991,-1
-63,280,1102,-1
55,181,1021,-1
50,89,926,-1
11,-14,822,-1
-17,-72,769,-1
-19,-72,770,-1
18,10,892,-1
58,-3,994,-1
102,-22,1000,-1
149,2,1043,-1
192,-8,1050,-1
219,-39,991,-1
244,45,1040,-1
382,59,816,-1
384,222,502,-1
491,305,437,-1
676,825,573,-1
590,765,580,-1
561,327,434,-1
658,153,491,-1
922,485,787,-1
1067,622,745,-1
1027,920,544,-1
841,1055,837,-1
669,568,918,-1
586,447,800,-1
598,723,743,-1
503,361,558,-1
679,486,663,-1
615,347,677,-1
754,828,340,-1
710,724,247,-1
591,674,142,-1
613,647,71,-1
843,739,252,-1
823,769,318,-1
598,801,40,-1
301,736,140,-1
347,386,37,-1
432,666,46,-1
489,783,-76,-1
383,916,177,-1
324,772,374,-1
468,767,563,-1
453,857,908,-1
573,677,955,-1
634,522,807,-1
554,318,808,-1
438,96,998,-1
453,-13,1022,-1
444,192,1037,-1
334,127,775,-1
404,354,727,-1
304,94,664,-1
476,221,485,-1
482,210,710,-1
531,241,794,-1
635,340,754,-1
503,226,788,-1
467,227,811,-1
502,101,786,-1
588,160,834,-1
587,175,776,-1
643,105,769,-1
807,157,1092,-1
852,467,872,-1
728,301,602,-1
614,310,435,-1
618,572,506,-1
702,546,546,-1
765,673,440,-1
683,491,316,-1
610,400,356,-1
639,449,363,-1
663,604,305,-1
709,756,286,-1
689,619,277,-1
624,510,170,-1
591,601,77,-1
693,781,49,-1
700,636,81,-1
716,565,55,-1
739,617,27,-1
819,689,-22,-1
858,665,-7,-1
954,613,104,-1
933,447,142,-1
965,551,170,-1
911,646,199,-1
765,495,178,-1
727,572,134,-1
681,584,47,-1
644,519,80,-1
645,405,184,-1
705,473,295,-1
815,520,418,-1
911,383,371,-1
908,217,410,-1
1003,38,585,-1
1074,102,537,-1
944,355,362,-1
784,560,130,-1
652,681,-236,-1
406,811,-367,-1
541,760,-285,-1
511,650,-121,-1
675,784,2,-1
607,681,-146,-1
590,618,-196,-1
669,617,-63,-1
611,816,-28,-1
661,644,11,-1
722,767,87,-1
728,822,-12,-1
678,685,21,-1
742,658,116,-1
699,630,273,-1
722,533,387,-1
672,451,459,-1
683,562,453,-1
700,513,529,-1
829,541,578,-1
932,564,450,-1
1062,547,460,-1
1148,373,484,-1
1187,184,346,-1
1019,404,388,-1
835,435,454,-1
635,466,368,-1
470,419,364,-1
391,574,240,-1
355,618,155,-1
381,503,135,-1
491,676,276,-1
511,692,313,-1
527,889,198,-1
430,835,95,-1
358,882,37,-1
373,1195,147,-1
541,921,180,-1
621,725,272,-1
758,831,361,-1
943,689,394,-1
772,477,562,-1
637,802,203,-1
519,758,281,-1
773,799,296,-1
803,589,440,-1
676,265,379,-1
592,78,349,-1
656,348,468,-1
673,553,537,-1
650,493,388,-1
629,780,374,-1
675,565,413,-1
682,379,504,-1
662,475,459,-1
663,476,460,-1
836,626,586,-1
920,725,557,-1
832,383,536,-1
764,80,482,-1
738,208,724,-1
667,654,844,-1
554,480,688,-1
425,265,611,-1
380,297,616,-1
407,339,701,-1
470,366,767,-1
482,381,758,-1
392,277,706,-1
307,287,701,-1
412,477,758,-1
654,501,840,-1
767,469,823,-1
792,616,965,-1
628,436,965,-1
418,491,679,-1
635,646,546,-1
682,513,331,-1
697,284,468,-1
629,508,509,-1
603,663,526,-1
505,411,478,-1
437,353,511,-1
446,508,536,-1
546,651,575,-1
625,614,538,-1
631,475,503,-1
574,374,490,-1
616,498,546,-1
820,703,563,-1
1029,855,601,-1
988,487,551,-1
862,229,406,-1
797,117,574,-1
732,559,751,-1
709,525,729,-1
565,315,572,-1
449,125,529,-1
415,186,532,-1
454,233,619,-1
537,317,689,-1
549,181,582,-1
466,137,559,-1
530,262,703,-1
523,310,583,-1
480,312,958,-1
531,220,1051,-1
447,341,1192,-1
480,440,1019,-1
475,386,954,-1
464,455,699,-1
537,464,611,-1
557,432,751,-1
607,314,840,-1
580,413,789,-1
552,260,774,-1
547,217,714,-1
512,422,757,-1
530,416,840,-1
518,427,823,-1
515,428,814,-1
487,425,813,-1
415,583,830,-1
322,509,852,-1
299,465,822,-1
282,512,784,-1
388,635,745,-1
463,719,730,-1
498,494,700,-1
525,423,683,-1
521,439,746,-1
455,459,759,-1
396,466,833,-1
378,341,813,-1
411,406,783,-1
424,385,708,-1
419,374,746,-1
415,325,767,-1
399,317,785,-1
353,336,757,-1
295,368,812,-1
281,346,841,-1
367,307,812,-1
427,362,902,-1
468,464,810,-1
495,492,869,-1
591,499,856,-1
551,425,796,-1
552,455,704,-1
568,603,596,-1
488,635,539,-1
369,545,576,-1
433,571,664,-1
556,778,666,-1
567,666,626,-1
508,651,501,-1
444,582,539,-1
446,831,499,-1
351,910,570,-1
375,623,549,-1
438,708,469,-1
626,601,216,-1
790,327,222,-1
824,402,341,-1
808,359,402,-1
765,464,528,-1
700,478,533,-1
705,493,501,-1
740,406,484,-1
918,603,350,-1
855,511,344,-1
789,233,321,-1
899,131,450,-1
1038,372,619,-1
894,628,536,-1
634,355,444,-1
552,114,478,-1
614,86,553,-1
711,138,614,-1
737,161,637,-1
633,177,645,-1
611,373,635,-1
566,325,716,-1
550,325,749,-1
603,237,684,-1
728,280,672,-1
786,300,655,-1
771,369,698,-1
878,350,744,-1
999,550,531,-1
919,223,441,-1
716,64,294,-1
686,340,242,-1
772,478,521,-1
805,510,577,-1
734,444,332,-1
643,177,278,-1
709,257,362,-1
806,551,356,-1
846,673,300,-1
866,491,325,-1
935,446,389,-1
1023,567,362,-1
958,595,288,-1
838,628,245,-1
828,705,223,-1
790,456,167,-1
698,184,271,-1
846,306,560,-1
908,567,643,-1
785,428,481,-1
669,285,410,-1
561,207,378,-1
575,343,432,-1
662,384,546,-1
677,306,568,-1
700,329,572,-1
678,314,610,-1
646,397,631,-1
617,486,693,-1
572,425,668,-1
561,298,650,-1
619,350,675,-1
612,358,625,-1
584,308,639,-1
736,515,636,-1
1089,651,626,-1
1122,622,480,-1
809,260,470,-1
700,297,367,-1
661,598,141,-1
702,610,252,-1
808,436,423,-1
790,472,378,-1
711,485,311,-1
625,487,329,-1
608,547,417,-1
655,654,422,-1
648,561,366,-1
662,498,385,-1
749,560,429,-1
678,497,369,-1
613,470,314,-1
612,501,329,-1
643,497,369,-1
843,756,368,-1
1082,627,362,-1
1132,382,328,-1
1061,318,513,-1
1015,517,726,-1
894,574,558,-1
676,256,482,-1
620,313,488,-1
576,288,582,-1
548,306,612,-1
596,304,607,-1
630,302,582,-1
618,297,602,-1
540,261,605,-1
492,303,673,-1
499,284,726,-1
556,289,692,-1
572,170,718,-1
692,325,722,-1
724,495,700,-1
627,339,641,-1
623,238,629,-1
816,467,547,-1
1093,600,574,-1
1057,479,652,-1
731,465,460,-1
418,345,386,-1
330,190,413,-1
444,439,524,-1
654,624,450,-1
742,553,328,-1
788,458,345,-1
949,628,402,-1
800,584,304,-1
692,572,257,-1
717,555,356,-1
784,549,377,-1
801,469,390,-1
788,352,396,-1
767,435,395,-1
815,477,381,-1
877,637,256,-1
779,718,195,-1
745,632,127,-1
743,695,147,-1
844,961,86,-1
890,916,101,-1
899,602,212,-1
1051,774,201,-1
963,192,170,-1
917,62,359,-1
824,125,564,-1
683,190,723,-1
601,234,602,-1
482,160,610,-1
414,228,633,-1
401,174,699,-1
368,85,849,-1
329,160,820,-1
296,49,945,-1
295,104,986,-1
288,118,1000,-1
220,46,1128,-1
158,123,1101,-1
183,92,1124,-1
167,161,1146,-1
143,169,1131,-1
118,93,985,-1
-8,92,935,-1
-80,89,973,-1
-44,95,954,-1
-2,83,886,-1
-55,95,814,-1
-126,73,743,-1
-175,61,780,-1
-157,83,847,-1
-122,106,846,-1
-71,153,852,-1
-61,111,949,-1
-54,204,1107,-1
-24,185,1211,-1
52,256,1301,-1
90,382,1300,-1
220,372,1249,-1
188,246,1128,-1
146,218,1060,-1
105,190,991,-1
102,181,943,-1
95,130,906,-1
69,63,855,-1
-20,50,811,-1
-107,38,941,-1
-151,66,973,-1
-65,-64,935,-1
53,-83,993,-1
165,-140,959,-1
223,-65,965,-1
246,-55,1083,-1
139,89,1114,-1
136,105,1218,-1
117,184,1060,-1
61,61,987,-1
43,136,1013,-1
-25,346,938,-1
-4,268,947,-1
53,68,898,-1
120,-103,832,-1
144,-119,704,-1
220,-13,777,-1
249,-35,908,-1
289,-207,880,-1
332,-166,966,-1
355,-131,1147,-1
377,-87,1145,-1
450,-139,1185,-1
600,-90,1218,-1
736,-164,1192,-1
776,-73,1083,-1
608,100,968,-1
530,137,870,-1
397,382,856,-1
238,268,649,-1
60,74,527,-1
-78,-50,419,-1
-103,15,456,-1
-128,62,623,-1
-80,28,840,-1
4,47,1061,-1
50,-123,1250,-1
81,-89,1333,-1
40,110,1386,-1
-86,181,1425,-1
-62,372,1453,-1
38,380,1328,-1
-21,222,1081,-1
-88,341,988,-1
-79,357,898,-1
-46,257,809,-1
-11,193,754,-1
0,131,710,-1
-37,121,725,-1
-59,125,822,-1
-27,116,923,-1
-8,75,965,-1
30,53,996,-1
26,54,1045,-1
66,63,1123,-1
177,48,1144,-1
212,45,1252,-1
413,186,1202,-1
361,260,1105,-1
260,281,964,-1
217,342,913,-1
202,216,846,-1
143,157,769,-1
87,153,778,-1
28,97,782,-1
9,59,809,-1
32,62,868,-1
72,75,939,-1
113,82,999,-1
120,45,991,-1
76,72,1048,-1
56,130,1143,-1
68,122,1153,-1
-59,119,1173,-1
-87,309,1280,-1
47,375,1260,-1
-82,278,1125,-1
-106,367,1050,-1
-75,390,974,-1
-23,299,872,-1
2,191,788,-1
18,129,733,-1
-10,91,723,-1
-20,68,778,-1
-23,87,851,-1
-3,89,920,-1
6,78,963,-1
-36,107,1037,-1
8,195,1198,-1
167,185,1201,-1
196,97,1233,-1
321,209,1289,-1
326,386,1097,-1
177,400,967,-1
245,335,877,-1
201,161,724,-1
112,91,685,-1
28,96,698,-1
-13,70,763,-1
-1,30,868,-1
43,112,946,-1
80,111,1000,-1
36,99,1022,-1
-69,207,1105,-1
-96,257,1153,-1
-188,268,1210,-1
-92,562,1391,-1
66,399,1209,-1
-69,280,1049,-1
-109,447,1073,-1
-84,356,931,-1
-73,271,841,-1
-56,220,815,-1
-60,134,757,-1
-96,74,744,-1
-154,76,808,-1
-140,95,877,-1
-89,87,927,-1
-39,29,961,-1
-64,80,1054,-1
10,84,1139,-1
116,30,1131,-1
163,131,1236,-1
246,208,1220,-1
263,243,1103,-1
212,282,1027,-1
225,269,952,-1
215,182,831,-1
182,139,745,-1
101,81,684,-1
0,55,691,-1
-59,94,798,-1
-26,193,951,-1
43,160,1009,-1
88,66,1009,-1
58,135,1062,-1
-18,115,1105,-1
1,168,1182,-1
-31,170,1201,-1
-71,325,1281,-1
50,455,1258,-1
-79,238,1050,-1
-117,405,1083,-1
-62,416,1022,-1
25,256,897,-1
31,149,798,-1
23,97,729,-1
0,-45,695,-1
-32,-25,731,-1
-42,146,838,-1
-15,220,931,-1
2,146,960,-1
-30,161,1043,-1
-12,284,1168,-1
107,240,1200,-1
165,162,1316,-1
288,308,1310,-1
240,325,1165,-1
158,308,990,-1
180,371,887,-1
197,303,794,-1
158,151,699,-1
95,111,652,-1
35,133,675,-1
-27,142,736,-1
-46,114,819,-1
-42,171,888,-1
-75,252,984,-1
-71,237,1127,-1
-46,151,1208,-1
0,152,1258,-1
-14,134,1225,-1
-50,136,1363,-1
-3,335,1331,-1
-198,404,1028,-1
-180,427,961,-1
-63,447,952,-1
-27,299,814,-1
-20,190,744,-1
-4,171,723,-1
-17,108,725,-1
-39,66,765,-1
-59,71,843,-1
-73,134,931,-1
-59,122,993,-1
-82,120,1050,-1
-59,248,1175,-1
70,260,1236,-1
86,221,1271,-1
275,388,1258,-1
281,357,1067,-1
165,370,966,-1
147,402,911,-1
149,314,787,-1
114,217,702,-1
41,189,656,-1
-26,218,644,-1
-94,158,708,-1
-106,134,798,-1
-64,238,940,-1
-22,272,1086,-1
-41,222,1145,-1
-77,294,1217,-1
-114,332,1211,-1
-224,417,1275,-1
-98,493,1232,-1
-175,362,1042,-1
-253,488,1080,-1
-139,500,1017,-1
-79,352,864,-1
-56,244,771,-1
-74,159,689,-1
-141,115,642,-1
-185,90,665,-1
-153,167,740,-1
-73,258,871,-1
68,310,960,-1
115,233,1036,-1
169,305,1163,-1
223,305,1203,-1
231,257,1228,-1
265,292,1229,-1
266,296,1099,-1
194,354,1032,-1
181,347,970,-1
193,277,862,-1
189,198,749,-1
130,165,673,-1
36,170,670,-1
-64,190,726,-1
-94,200,817,-1
-68,252,941,-1
-79,199,995,-1
-144,223,1079,-1
-135,324,1212,-1
-79,312,1217,-1
-170,365,1278,-1
22,492,1299,-1
21,240,978,-1
-88,301,932,-1
-109,341,939,-1
-61,250,853,-1
3,140,822,-1
8,126,838,-1
-14,128,825,-1
-27,119,846,-1
13,122,901,-1
80,115,922,-1
93,115,957,-1
142,185,1076,-1
265,113,1046,-1
160,110,1087,-1
282,345,1204,-1
293,340,1158,-1
315,277,1107,-1
291,234,993,-1
230,96,821,-1
107,84,722,-1
-1,151,727,-1
-68,103,777,-1
-87,76,866,-1
-32,120,980,-1
8,89,1019,-1
-39,87,1080,-1
-50,175,1163,-1
-78,180,1137,-1
-159,317,1254,-1
-18,315,1169,-1
-118,224,1027,-1
-176,340,1021,-1
-58,352,987,-1
34,117,817,-1
26,118,800,-1
19,147,800,-1
-2,95,817,-1
23,107,901,-1
95,141,971,-1
126,98,980,-1
86,244,1055,-1
222,179,1053,-1
79,142,1162,-1
284,420,1295,-1
281,291,1191,-1
289,311,1166,-1
263,232,1008,-1
194,74,786,-1
57,52,688,-1
-38,128,704,-1
-85,100,736,-1
-65,92,821,-1
12,126,953,-1
99,99,997,-1
21,40,1019,-1
-45,142,1125,-1
-14,133,1107,-1
-155,164,1194,-1
-31,326,1258,-1
-103,123,1081,-1
-198,306,1079,-1
-122,403,1104,-1
62,219,947,-1
51,133,845,-1
5,117,802,-1
-25,87,790,-1
-50,62,854,-1
-8,60,920,-1
24,89,975,-1
40,108,1035,-1
133,121,1088,-1
73,61,1120,-1
280,299,1287,-1
330,53,1087,-1
129,175,1041,-1
143,290,1072,-1
198,173,956,-1
185,94,842,-1
67,97,805,-1
0,100,762,-1
-48,80,772,-1
-36,66,863,-1
45,153,977,-1
108,96,1012,-1
81,22,1021,-1
13,117,1112,-1
36,102,1137,-1
-50,72,1161,-1
12,273,1297,-1
131,145,1172,-1
1,83,993,-1
-109,251,961,-1
-106,336,989,-1
24,221,911,-1
78,172,892,-1
67,145,894,-1
-13,23,855,-1
-58,63,883,-1
-62,55,916,-1
-42,23,941,-1
-38,68,984,-1
43,109,1090,-1
191,78,1099,-1
82,58,1130,-1
153,158,1185,-1
211,200,1156,-1
202,268,1097,-1
253,232,1011,-1
176,52,884,-1
92,26,759,-1
12,86,763,-1
-29,19,776,-1
-14,22,852,-1
49,57,969,-1
137,101,1047,-1
138,31,1023,-1
37,71,1069,-1
51,109,1128,-1
-64,38,1130,-1
-23,237,1252,-1
38,97,1077,-1
-153,118,958,-1
-253,315,1031,-1
-120,343,1087,-1
33,143,973,-1
14,123,924,-1
-58,98,848,-1
-121,105,836,-1
-92,102,873,-1
-32,115,918,-1
0,106,953,-1
-9,168,1037,-1
90,201,1097,-1
14,28,1028,-1
87,194,1140,-1
172,202,1118,-1
96,206,1123,-1
124,233,1114,-1
122,127,982,-1
48,-4,804,-1
-48,20,743,-1
-109,64,759,-1
-128,67,845,-1
-63,136,971,-1
-2,76,1031,-1
-68,142,1143,-1
1,111,1135,-1
-162,174,1169,-1
-45,386,1276,-1
-53,105,1052,-1
-189,265,1028,-1
-229,405,1055,-1
-73,306,986,-1
-9,158,913,-1
-50,157,878,-1
-98,79,820,-1
-67,43,831,-1
-24,10,857,-1
26,-20,904,-1
5,-8,974,-1
67,27,1091,-1
187,-74,1134,-1
77,-155,1211,-1
157,109,1252,-1
75,207,1090,-1
148,99,1015,-1
106,15,965,-1
49,-138,809,-1
-12,-215,814,-1
-47,-223,828,-1
-65,-207,846,-1
-42,-181,976,-1
-33,-92,1013,-1
-47,-150,970,-1
-113,-144,1002,-1
-160,-124,1069,-1
-198,-106,1115,-1
-281,-88,1205,-1
-292,-80,1190,-1
-409,-95,1088,-1
-458,-31,1067,-1
-263,108,1083,-1
-54,41,929,-1
-67,-34,773,-1
-86,-61,655,-1
-143,-118,664,-1
-184,-49,835,-1
-147,-85,916,-1
-147,-226,1029,-1
-95,-239,1262,-1
9,-47,1272,-1
-155,-43,1188,-1
-149,313,1257,-1
-102,252,1166,-1
-73,188,1107,-1
-132,70,960,-1
-128,-59,841,-1
-153,-79,858,-1
-169,-89,826,-1
-178,-113,823,-1
-161,-102,927,-1
-101,-125,964,-1
-87,-185,900,-1
-174,-182,947,-1
-181,-123,1124,-1
-225,-148,1116,-1
-189,-35,1251,-1
-178,-84,1183,-1
-240,-86,1088,-1
-241,46,1112,-1
-92,48,1030,-1
1,-37,869,-1
-14,-72,799,-1
-31,-113,794,-1
-22,-123,836,-1
-5,-82,939,-1
15,-85,1015,-1
37,-85,1088,-1
123,-72,1119,-1
42,-144,987,-1
58,-73,1108,-1
55,100,1182,-1
101,155,1220,-1
101,112,1171,-1
-6,-2,1061,-1
-83,-159,903,-1
-109,-90,816,-1
-88,-60,784,-1
-83,-20,857,-1
-80,-16,926,-1
-94,-77,935,-1
-111,-176,996,-1
-64,-206,1090,-1
-145,-136,1244,-1
-11,79,1328,-1
-89,-9,1082,-1
-284,45,1026,-1
-285,149,1073,-1
-142,144,1012,-1
-74,43,896,-1
-72,-29,802,-1
-90,-76,779,-1
-75,-119,805,-1
-41,-67,894,-1
-10,-71,980,-1
-16,-35,1075,-1
36,28,1132,-1
-29,-75,1074,-1
11,92,1210,-1
50,122,1243,-1
68,150,1223,-1
107,101,1130,-1
65,22,936,-1
-29,-55,795,-1
-82,-58,767,-1
-91,-43,783,-1
-80,-3,896,-1
-46,42,1005,-1
-25,17,1028,-1
-94,-14,1068,-1
-124,-34,1072,-1
-236,-28,1108,-1
-44,142,1229,-1
-145,53,1093,-1
-257,182,1127,-1
-227,257,1174,-1
-123,153,1008,-1
-101,2,797,-1
-123,-27,752,-1
-138,-23,752,-1
-140,-34,811,-1
-105,12,896,-1
-53,76,991,-1
-72,152,1097,-1
-11,179,1163,-1
20,23,1065,-1
-14,60,1163,-1
139,91,1214,-1
103,209,1151,-1
179,227,1134,-1
184,210,1062,-1
134,132,924,-1
43,40,816,-1
-10,20,769,-1
-55,-25,760,-1
-59,-48,819,-1
-29,1,951,-1
-3,31,1047,-1
-38,0,1085,-1
-72,66,1163,-1
-117,100,1161,-1
-148,228,1316,-1
38,167,1199,-1
-121,6,1022,-1
-238,159,1014,-1
-131,225,1047,-1
9,90,942,-1
-3,69,872,-1
-19,64,812,-1
-46,4,800,-1
-22,1,853,-1
36,31,935,-1
49,13,965,-1
38,51,1059,-1
83,0,1071,-1
12,-96,1133,-1
151,289,1257,-1
44,171,1096,-1
48,290,1122,-1
136,306,1148,-1
190,171,964,-1
70,0,825,-1
-27,-46,770,-1
-96,-77,778,-1
-66,-74,857,-1
-1,23,996,-1
54,35,1045,-1
-23,10,1051,-1
-73,32,1066,-1
-109,49,1081,-1
-80,215,1304,-1
45,111,1173,-1
-134,27,1033,-1
-270,154,1032,-1
-244,199,1033,-1
-115,222,1010,-1
-51,139,936,-1
-32,36,828,-1
-75,5,776,-1
-108,-3,793,-1
-94,-20,824,-1
-62,23,895,-1
-46,39,976,-1
64,107,1131,-1
181,23,1100,-1
86,-52,1271,-1
213,203,1365,-1
100,300,1226,-1
162,290,1150,-1
127,224,990,-1
58,110,790,-1
-66,62,732,-1
-127,66,744,-1
-125,5,792,-1
-88,47,899,-1
-49,89,987,-1
-63,70,1034,-1
-108,62,1107,-1
-102,96,1154,-1
-187,141,1221,-1
-107,230,1226,-1
-185,102,1048,-1
-279,232,1054,-1
-209,249,1053,-1
-59,187,956,-1
-52,40,833,-1
-49,17,795,-1
-64,-16,803,-1
-71,-60,828,-1
-40,-4,910,-1
17,39,975,-1
27,40,1062,-1
92,103,1152,-1
75,-5,1209,-1
212,209,1328,-1
175,151,1152,-1
157,195,1109,-1
178,225,1058,-1
130,109,867,-1
-11,9,734,-1
-119,6,701,-1
-144,-10,694,-1
-141,18,795,-1
-98,160,980,-1
-58,153,1039,-1
-116,70,1086,-1
-148,102,1197,-1
-157,69,1195,-1
-189,80,1231,-1
-166,135,1213,-1
-237,113,1101,-1
-252,231,1089,-1
-81,263,1034,-1
3,76,854,-1
-17,-20,757,-1
-47,-16,719,-1
-95,-60,746,-1
-69,23,877,-1
-8,87,954,-1
-2,32,1010,-1
24,162,1153,-1
13,46,1125,-1
49,155,1255,-1
189,262,1286,-1
150,84,1131,-1
152,78,1039,-1
109,111,911,-1
62,20,816,-1
24,-13,780,-1
-4,-9,775,-1
-35,-18,864,-1
-16,27,994,-1
18,46,1054,-1
-14,-16,1059,-1
-64,-85,1116,-1
-58,-28,1166,-1
-117,-44,1203,-1
-94,93,1214,-1
-248,61,1080,-1
-339,103,1066,-1
-221,194,1060,-1
-55,114,939,-1
-20,33,819,-1
-6,-19,736,-1
-57,-78,714,-1
-49,-39,821,-1
-10,-25,956,-1
15,12,1067,-1
94,133,1236,-1
153,22,1142,-1
60,138,1189,-1
94,235,1195,-1
40,208,1085,-1
102,263,1117,-1
101,170,980,-1
21,34,829,-1
-65,-17,738,-1
-116,-26,713,-1
-154,-43,765,-1
-149,47,904,-1
-108,85,1029,-1
-137,16,1204,-1
-140,70,1205,-1
-170,130,1256,-1
-109,188,1190,-1
-222,106,992,-1
-308,213,995,-1
-183,246,994,-1
-60,141,910,-1
-40,145,909,-1
-42,24,835,-1
-83,-44,834,-1
-78,-17,908,-1
-35,-42,942,-1
-33,-9,997,-1
-3,81,1109,-1
70,39,1084,-1
-21,117,1187,-1
121,276,1244,-1
23,231,1169,-1
71,246,1155,-1
92,182,1022,-1
72,52,886,-1
10,-6,783,-1
-22,-28,750,-1
-70,-31,800,-1
-61,-32,882,-1
-15,-15,949,-1
-28,11,1021,-1
-84,12,1077,-1
-70,61,1137,-1
-145,41,1137,-1
-96,125,1213,-1
-71,44,1048,-1
-223,80,967,-1
-330,153,1001,-1
-184,222,1053,-1
-73,136,978,-1
-114,91,932,-1
-158,38,868,-1
-191,-15,872,-1
-179,-43,921,-1
-180,-86,932,-1
-230,-67,979,-1
-173,31,1081,-1
-122,-4,1077,-1
-140,48,1205,-1
-20,240,1180,-1
-178,247,1069,-1
-107,187,1052,-1
-19,169,1005,-1
10,38,924,-1
-36,-69,857,-1
-37,-94,812,-1
-58,-44,856,-1
-55,-22,916,-1
-14,-42,951,-1
-27,-56,987,-1
-40,-68,1011,-1
-78,-42,1046,-1
-99,-24,1077,-1
-202,2,1197,-1
-50,78,1241,-1
-93,-70,1049,-1
-218,17,1019,-1
-211,76,1011,-1
-119,68,967,-1
-85,57,943,-1
-67,20,871,-1
-114,-36,825,-1
-139,-13,866,-1
-124,-21,913,-1
-163,-13,968,-1
-144,-32,1024,-1
-87,-27,1101,-1
17,-5,1143,-1
-47,6,1203,-1
108,136,1228,-1
91,155,1111,-1
14,190,1065,-1
75,188,1034,-1
97,140,960,-1
74,62,895,-1
40,0,826,-1
7,-23,810,-1
-10,-38,828,-1
-17,-2,911,-1
-14,43,1000,-1
-8,37,1024,-1
-47,46,1051,-1
-92,32,1077,-1
-75,46,1108,-1
-146,7,1093,-1
-189,113,1188,-1
-112,166,1165,-1
-171,185,1056,-1
-210,274,1033,-1
-156,234,991,-1
-75,153,955,-1
-40,77,898,-1
-71,17,836,-1
-126,18,830,-1
-139,17,863,-1
-114,30,923,-1
-83,33,973,-1
-96,25,1003,-1
-81,42,1062,-1
-9,74,1100,-1
-133,85,1171,-1
29,221,1292,-1
93,164,1106,-1
-44,202,1034,-1
-16,187,976,-1
46,165,919,-1
26,80,865,-1
-29,10,790,-1
-86,23,812,-1
-98,-13,858,-1
-63,58,957,-1
-22,103,1052,-1
1,60,1036,-1
-72,31,1029,-1
-128,5,1057,-1
-115,56,1113,-1
-205,101,1194,-1
-145,219,1266,-1
-148,101,1058,-1
-282,175,980,-1
-299,259,969,-1
-171,263,976,-1
-78,173,895,-1
-79,36,817,-1
-112,7,787,-1
-138,-35,839,-1
-83,-35,931,-1
-11,24,1034,-1
28,-15,1023,-1
-1,71,1112,-1
100,113,1157,-1
18,-19,1126,-1
143,123,1246,-1
154,130,1140,-1
52,232,1079,-1
127,244,1072,-1
173,157,941,-1
99,11,780,-1
-6,-20,727,-1
-66,0,735,-1
-98,-45,809,-1
-63,53,944,-1
-7,85,1044,-1
-43,26,1044,-1
-139,71,1152,-1
-109,59,1180,-1
-202,62,1175,-1
-189,130,1190,-1
-217,89,1056,-1
-288,192,1029,-1
-270,261,1057,-1
-97,253,1004,-1
-55,92,862,-1
-75,17,784,-1
-96,16,762,-1
-78,-43,794,-1
-27,0,891,-1
31,66,990,-1
30,57,1066,-1
100,104,1158,-1
23,4,1149,-1
121,190,1213,-1
83,162,1139,-1
40,273,1143,-1
152,244,1107,-1
185,112,945,-1
99,-5,797,-1
0,9,737,-1
-58,47,726,-1
-92,45,772,-1
-92,134,925,-1
-42,120,1003,-1
-95,69,1029,-1
-165,124,1151,-1
-95,116,1180,-1
-181,89,1190,-1
-173,209,1237,-1
-199,124,1083,-1
-264,289,1059,-1
-207,317,1073,-1
-12,249,919,-1
-13,38,785,-1
-60,95,761,-1
-71,48,822,-1
-23,-46,861,-1
67,40,963,-1
113,8,974,-1
70,84,1055,-1
106,126,1127,-1
5,56,1196,-1
209,368,1370,-1
178,197,1169,-1
172,265,1121,-1
176,156,980,-1
120,61,802,-1
7,48,719,-1
-84,69,711,-1
-141,83,747,-1
-146,114,864,-1
-91,151,991,-1
-51,100,1017,-1
-140,117,1084,-1
-137,138,1152,-1
-174,83,1133,-1
-196,197,1221,-1
-94,151,1145,-1
-208,141,1034,-1
-249,289,1062,-1
-94,242,994,-1
-13,122,854,-1
-54,49,786,-1
-82,60,780,-1
-90,22,838,-1
-27,67,951,-1
48,75,1003,-1
42,68,1059,-1
96,145,1135,-1
73,11,1083,-1
118,159,1150,-1
193,221,1142,-1
169,275,1136,-1
199,257,1100,-1
198,154,967,-1
109,1,791,-1
13,14,736,-1
-29,38,738,-1
-54,6,786,-1
-41,161,944,-1
33,186,1032,-1
4,111,1049,-1
-80,244,1182,-1
-57,152,1155,-1
-106,217,1194,-1
-8,266,1218,-1
-67,56,1007,-1
-184,231,1040,-1
-140,284,1064,-1
-8,186,956,-1
-20,101,889,-1
-26,69,832,-1
-29,36,804,-1
6,9,845,-1
73,16,868,-1
64,30,891,-1
0,89,977,-1
47,168,1065,-1
-22,35,1039,-1
39,316,1291,-1
207,236,1256,-1
172,229,1189,-1
139,213,1130,-1
126,59,938,-1
54,28,820,-1
-51,31,776,-1
-107,23,766,-1
-110,23,830,-1
-47,123,948,-1
35,79,994,-1
7,17,994,-1
-79,48,1072,-1
-67,33,1092,-1
-192,42,1164,-1
-117,218,1226,-1
-231,125,1092,-1
-322,288,1107,-1
-218,331,1147,-1
-22,234,1041,-1
-2,104,926,-1
-14,-23,810,-1
-51,-62,755,-1
-68,-38,797,-1
-44,-9,854,-1
12,-1,916,-1
62,38,1026,-1
195,40,1081,-1
100,-36,1087,-1
210,116,1236,-1
235,169,1219,-1
188,226,1193,-1
174,191,1079,-1
107,87,777,-1
-95,35,749,-1
-110,1,749,-1
-143,28,865,-1
-96,100,993,-1
-53,43,1029,-1
-131,57,1082,-1
-140,86,1160,-1
-167,119,1188,-1
-142,277,1310,-1
-107,142,1105,-1
-274,224,1017,-1
-310,328,1047,-1
-95,305,1010,-1
21,177,904,-1
13,78,816,-1
2,68,770,-1
-1,20,781,-1
29,42,854,-1
94,108,935,-1
100,131,1030,-1
172,208,1131,-1
162,85,1141,-1
288,319,1287,-1
236,211,1191,-1
210,290,1195,-1
213,178,1064,-1
159,75,847,-1
10,26,714,-1
-111,63,696,-1
-172,44,699,-1
-173,22,798,-1
-101,93,937,-1
-62,69,1013,-1
-83,109,1153,-1
-4,133,1228,-1
-101,141,1225,-1
0,272,1221,-1
-111,215,1045,-1
-197,480,1137,-1
-8,424,1112,-1
138,168,897,-1
90,81,809,-1
52,35,743,-1
3,23,744,-1
0,64,900,-1
74,196,1105,-1
119,212,1214,-1
142,329,1347,-1
212,153,1322,-1
251,294,1131,-1
176,654,1160,-1
278,623,1007,-1
384,651,893,-1
283,532,786,-1
178,469,735,-1
141,386,698,-1
108,230,624,-1
34,131,593,-1
-40,120,632,-1
-82,136,744,-1
-58,203,887,-1
-36,302,1005,-1
-26,288,1077,-1
-16,291,1114,-1
0,280,1106,-1
-115,334,1156,-1
-17,603,1305,-1
93,347,1069,-1
-77,386,941,-1
-180,538,953,-1
-83,405,888,-1
-16,322,850,-1
-49,255,830,-1
-34,143,763,-1
-40,68,742,-1
-41,143,823,-1
32,124,893,-1
129,144,964,-1
145,176,1032,-1
190,205,1124,-1
340,135,1082,-1
279,45,1009,-1
311,282,1155,-1
406,356,1134,-1
390,351,1038,-1
291,268,894,-1
226,245,791,-1
186,145,678,-1
121,78,657,-1
65,114,714,-1
25,142,825,-1
53,230,996,-1
135,238,1104,-1
158,175,1096,-1
109,174,1153,-1
137,153,1159,-1
78,159,1124,-1
54,300,1220,-1
94,209,1039,-1
-79,241,947,-1
-168,392,1033,-1
-24,366,1042,-1
75,173,905,-1
33,104,838,-1
-20,52,759,-1
-65,42,766,-1
-56,61,857,-1
4,131,956,-1
48,99,999,-1
54,175,1092,-1
132,185,1106,-1
40,72,1050,-1
125,350,1272,-1
245,315,1183,-1
198,344,1119,-1
159,232,995,-1
96,108,823,-1
18,134,764,-1
-71,79,745,-1
-90,88,773,-1
-79,144,849,-1
-43,193,932,-1
-14,192,988,-1
-70,198,1051,-1
-169,258,1145,-1
-172,444,1379,-1
42,272,1205,-1
-114,258,1040,-1
-192,453,1084,-1
-53,334,991,-1
21,220,834,-1
-15,139,782,-1
-46,102,739,-1
-65,79,762,-1
-42,91,870,-1
49,175,980,-1
93,132,992,-1
79,233,1084,-1
114,207,1070,-1
84,261,1172,-1
198,379,1209,-1
194,283,1012,-1
50,403,1040,-1
146,381,1051,-1
216,267,898,-1
116,172,793,-1
23,109,732,-1
-24,94,742,-1
-59,20,773,-1
-12,110,899,-1
70,156,1005,-1
95,57,995,-1
88,-7,1025,-1
28,-20,1014,-1
13,53,1069,-1
79,45,1075,-1
41,-76,994,-1
-192,156,1019,-1
-260,199,1086,-1
-234,294,1041,-1
-238,575,1254,-1
-76,463,1302,-1
126,219,1148,-1
138,-49,919,-1
73,-94,762,-1
57,0,743,-1
60,57,767,-1
-4,189,881,-1
82,299,1135,-1
182,112,1081,-1
274,390,1279,-1
208,457,1325,-1
303,420,1273,-1
260,232,1011,-1
87,147,796,-1
-130,167,690,-1
-249,171,683,-1
-273,156,709,-1
-263,245,799,-1
-290,264,858,-1
-330,268,899,-1
-324,341,1039,-1
-209,445,1143,-1
-188,663,1400,-1
36,596,1279,-1
-44,533,1160,-1
-38,580,1075,-1
49,405,902,-1
93,285,751,-1
83,244,700,-1
57,205,692,-1
60,137,724,-1
88,120,812,-1
162,114,922,-1
165,127,1046,-1
281,172,1114,-1
137,19,1047,-1
258,480,1214,-1
210,473,1182,-1
138,356,1021,-1
-78,397,978,-1
-115,130,783,-1
-125,8,697,-1
-118,0,728,-1
-55,-16,815,-1
-2,91,925,-1
16,148,1019,-1
-5,200,1127,-1
-19,272,1236,-1
-145,250,1276,-1
-25,473,1303,-1
-125,235,1112,-1
-212,352,1025,-1
-231,326,969,-1
-132,210,867,-1
-49,143,791,-1
-33,121,747,-1
-22,51,726,-1
-38,70,823,-1
-34,99,975,-1
27,137,1046,-1
100,121,1099,-1
184,81,1082,-1
78,181,1145,-1
151,292,1174,-1
193,387,1230,-1
273,278,1136,-1
214,177,942,-1
121,78,767,-1
10,49,700,-1
-48,26,693,-1
-76,20,752,-1
-80,127,894,-1
-30,216,1049,-1
-18,140,1122,-1
-4,147,1171,-1
-71,141,1129,-1
-224,253,1195,-1
-153,297,1176,-1
-197,300,1140,-1
-188,360,1131,-1
-112,268,1010,-1
-34,115,863,-1
-5,53,777,-1
-11,62,739,-1
-35,42,778,-1
-20,72,860,-1
31,100,965,-1
59,79,1036,-1
129,140,1146,-1
144,77,1142,-1
189,211,1226,-1
200,257,1145,-1
128,302,1073,-1
198,307,1064,-1
199,181,911,-1
117,25,783,-1
20,49,752,-1
-30,97,774,-1
-45,72,834,-1
-28,139,943,-1
5,151,1027,-1
-17,99,1060,-1
-88,109,1120,-1
-77,129,1136,-1
-254,126,1139,-1
-99,403,1274,-1
-112,134,1013,-1
-216,340,1007,-1
-207,353,1006,-1
-79,237,900,-1
-42,175,869,-1
-15,120,825,-1
-38,26,793,-1
-53,64,890,-1
-8,49,970,-1
37,15,1000,-1
15,59,1031,-1
11,118,1108,-1
117,111,1113,-1
-16,50,1072,-1
119,310,1221,-1
150,269,1132,-1
136,319,1126,-1
144,267,1006,-1
81,81,858,-1
-6,49,793,-1
-74,-1,810,-1
-60,80,908,-1
-18,86,969,-1
15,71,991,-1
-56,67,1028,-1
-89,80,1088,-1
-103,95,1093,-1
-172,230,1211,-1
-95,242,1136,-1
-255,223,1020,-1
-294,387,1058,-1
-152,356,988,-1
-43,223,890,-1
-35,196,863,-1
-28,97,839,-1
-43,4,840,-1
-4,70,902,-1
74,51,972,-1
95,36,960,-1
6,127,1037,-1
68,183,1144,-1
111,58,1164,-1
177,217,1309,-1
229,300,1156,-1
118,351,995,-1
132,327,1005,-1
183,242,976,-1
136,190,895,-1
27,88,810,-1
-49,79,782,-1
-95,36,800,-1
-78,31,858,-1
-22,117,926,-1
-24,118,975,-1
-133,93,1029,-1
-165,131,1116,-1
-203,142,1139,-1
-207,298,1273,-1
-83,194,1138,-1
-214,131,978,-1
-290,278,1002,-1
-160,253,999,-1
0,190,933,-1
-13,103,874,-1
-32,49,821,-1
-58,14,829,-1
-34,-9,893,-1
11,-11,948,-1
28,-17,1002,-1
50,41,1096,-1
108,22,1108,-1
43,96,1270,-1
245,229,1307,-1
202,166,1022,-1
72,216,1003,-1
120,235,969,-1
148,158,875,-1
48,71,796,-1
-56,57,759,-1
-107,98,810,-1
-86,41,875,-1
-11,124,998,-1
70,120,1048,-1
16,51,1021,-1
-77,89,1070,-1
-146,99,1077,-1
-353,130,1134,-1
-233,411,1286,-1
-214,189,1067,-1
-293,366,1061,-1
-239,362,1042,-1
-76,258,941,-1
-58,108,832,-1
-95,80,791,-1
-141,58,792,-1
-146,3,852,-1
-97,89,982,-1
-28,58,1010,-1
-47,85,1034,-1
-54,207,1170,-1
56,217,1201,-1
92,157,1213,-1
202,211,1221,-1
159,163,1023,-1
79,189,907,-1
102,291,910,-1
103,185,812,-1
32,120,754,-1
-48,94,746,-1
-90,78,775,-1
-106,23,841,-1
-81,148,958,-1
-36,179,1027,-1
-88,74,1023,-1
-172,153,1133,-1
-228,135,1171,-1
-273,371,1441,-1
-46,315,1364,-1
-131,269,1111,-1
-236,318,955,-1
-259,317,863,-1
-231,261,824,-1
-156,229,865,-1
-61,139,851,-1
-75,71,829,-1
-139,53,865,-1
-121,43,901,-1
-97,16,962,-1
-71,-12,1018,-1
-65,3,1079,-1
45,42,1134,-1
6,18,1115,-1
118,200,1199,-1
147,189,1115,-1
71,231,1109,-1
155,175,1066,-1
144,107,905,-1
63,32,798,-1
-21,49,754,-1
-69,41,751,-1
-96,8,805,-1
-73,52,902,-1
-42,48,978,-1
-24,0,1013,-1
-136,-10,1073,-1
-161,18,1194,-1
-211,48,1264,-1
-120,219,1368,-1
-117,77,1120,-1
-277,193,1041,-1
-268,229,1015,-1
-159,231,957,-1
-86,155,920,-1
-25,67,846,-1
-41,19,779,-1
-99,6,799,-1
-83,-41,845,-1
-37,-4,927,-1
-9,15,985,-1
-38,67,1074,-1
88,127,1153,-1
80,-14,1112,-1
130,249,1269,-1
202,161,1202,-1
145,215,1129,-1
164,131,1013,-1
131,82,871,-1
62,19,763,-1
-10,8,731,-1
-55,21,749,-1
-74,0,833,-1
-35,98,997,-1
6,47,1041,-1
-81,54,1102,-1
-104,79,1207,-1
-200,79,1217,-1
-170,329,1393,-1
-55,148,1156,-1
-215,193,996,-1
-285,287,974,-1
-175,236,901,-1
-77,165,826,-1
-67,70,794,-1
-53,42,776,-1
-44,-31,796,-1
-17,-21,876,-1
29,29,980,-1
43,21,1009,-1
46,143,1161,-1
136,61,1154,-1
82,215,1250,-1
210,334,1249,-1
166,264,1096,-1
154,291,1047,-1
160,163,901,-1
97,69,753,-1
-33,46,718,-1
-118,46,722,-1
-178,31,794,-1
-156,116,932,-1
-53,163,1030,-1
-50,76,991,-1
-160,184,1099,-1
-172,210,1178,-1
-226,309,1303,-1
-126,391,1339,-1
-201,260,1082,-1
-332,370,1000,-1
-287,429,978,-1
-117,302,847,-1
-90,182,772,-1
-88,137,712,-1
-117,108,731,-1
-126,46,782,-1
-88,123,899,-1
-49,178,991,-1
-47,251,1128,-1
91,304,1214,-1
48,186,1140,-1
145,362,1304,-1
119,414,1166,-1
124,395,1110,-1
139,265,987,-1
103,115,782,-1
-22,64,695,-1
-112,104,720,-1
-145,44,762,-1
-150,59,860,-1
-114,127,970,-1
-97,101,1013,-1
-169,72,1074,-1
-186,100,1138,-1
-280,129,1193,-1
-133,337,1333,-1
-155,128,1065,-1
-308,292,1045,-1
-290,333,1031,-1
-117,287,947,-1
-60,165,846,-1
-30,86,767,-1
-60,34,741,-1
-93,-8,784,-1
-56,19,877,-1
17,67,960,-1
16,81,1038,-1
59,195,1191,-1
174,187,1196,-1
108,214,1265,-1
230,272,1240,-1
74,183,1066,-1
49,171,976,-1
64,225,954,-1
55,104,849,-1
-24,49,768,-1
-77,35,749,-1
-100,-1,756,-1
-77,46,853,-1
7,67,981,-1
17,22,1030,-1
-75,58,1120,-1
-141,122,1183,-1
-269,234,1292,-1
-157,326,1270,-1
-247,201,1037,-1
-355,347,1002,-1
-294,324,963,-1
-158,259,886,-1
-127,103,811,-1
-123,89,777,-1
-103,0,777,-1
-72,-34,826,-1
-93,26,917,-1
-111,59,1007,-1
-79,223,1188,-1
62,242,1261,-1
21,224,1268,-1
123,360,1245,-1
41,334,1108,-1
62,311,1051,-1
136,204,936,-1
140,94,741,-1
44,39,640,-1
-62,66,688,-1
-131,67,752,-1
-121,94,863,-1
-78,171,1014,-1
-85,159,1098,-1
-125,196,1190,-1
-53,268,1270,-1
-106,257,1284,-1
-4,346,1257,-1
-89,185,1027,-1
-183,258,992,-1
-138,312,1015,-1
-7,226,896,-1
0,153,824,-1
-19,99,795,-1
-46,54,797,-1
-36,16,851,-1
12,26,934,-1
56,20,956,-1
38,68,1029,-1
91,119,1134,-1
151,-14,1045,-1
48,157,1119,-1
157,374,1280,-1
268,213,1089,-1
221,153,975,-1
138,-69,781,-1
26,-52,776,-1
-35,-35,783,-1
-37,-62,853,-1
5,53,984,-1
60,50,1037,-1
31,-12,1062,-1
9,83,1152,-1
-57,-22,1109,-1
-43,77,1207,-1
-31,-19,1112,-1
-163,76,1078,-1
-182,103,1087,-1
-13,114,1007,-1
53,20,881,-1
53,28,830,-1
47,-61,762,-1
54,-17,841,-1
128,22,936,-1
195,13,962,-1
140,17,1017,-1
170,67,1135,-1
243,-83,1066,-1
126,45,1158,-1
251,162,1252,-1
329,153,1162,-1
399,144,1075,-1
353,113,966,-1
246,-36,754,-1
108,-32,718,-1
50,-27,731,-1
27,-59,804,-1
16,43,961,-1
40,63,1070,-1
7,-6,1119,-1
-19,26,1213,-1
-60,-20,1177,-1
-95,117,1240,-1
-27,81,1114,-1
-163,137,1006,-1
-191,219,1046,-1
37,258,1059,-1
155,100,892,-1
87,34,840,-1
63,-13,788,-1
53,-58,811,-1
87,-43,892,-1
130,-33,942,-1
107,23,1030,-1
184,129,1156,-1
123,-8,1052,-1
182,127,1239,-1
194,211,1181,-1
136,280,1107,-1
165,204,1073,-1
133,106,934,-1
53,-7,808,-1
-26,-5,774,-1
-48,9,787,-1
-28,-1,859,-1
5,94,973,-1
23,47,1009,-1
-54,21,1065,-1
-58,38,1110,-1
-168,29,1124,-1
-78,279,1275,-1
-91,29,1044,-1
-263,296,1071,-1
-222,331,1115,-1
5,171,980,-1
34,98,928,-1
48,39,882,-1
52,-57,813,-1
17,-31,861,-1
55,14,925,-1
111,34,965,-1
92,50,1026,-1
159,104,1101,-1
83,-2,1061,-1
138,206,1193,-1
193,139,1141,-1
106,250,1143,-1
115,223,1122,-1
112,138,967,-1
21,-40,792,-1
-73,-62,746,-1
-105,-62,768,-1
-97,-94,839,-1
-36,25,969,-1
14,94,1054,-1
-41,36,1075,-1
-54,112,1158,-1
-102,58,1167,-1
-70,132,1278,-1
60,-43,1106,-1
-127,-9,999,-1
-233,167,1014,-1
-133,185,1005,-1
-31,92,909,-1
-38,52,857,-1
-54,47,818,-1
-63,16,845,-1
-35,0,899,-1
27,21,963,-1
41,-32,985,-1
68,42,1080,-1
168,82,1118,-1
47,65,1171,-1
199,275,1215,-1
107,155,1106,-1
102,303,1089,-1
83,291,1040,-1
42,134,898,-1
-55,32,797,-1
-101,-31,752,-1
-119,-7,789,-1
-149,172,939,-1
-95,186,1008,-1
-94,199,1018,-1
-133,191,1087,-1
-101,224,1144,-1
-204,187,1139,-1
-130,285,1210,-1
-116,105,1043,-1
-269,153,964,-1
-265,278,1021,-1
-79,249,979,-1
-17,32,878,-1
-65,50,836,-1
-106,10,807,-1
-115,13,853,-1
-59,47,939,-1
-23,17,964,-1
-56,46,1029,-1
20,125,1113,-1
0,-40,1040,-1
-40,82,1125,-1
0,118,1161,-1
34,297,1235,-1
101,173,1158,-1
64,95,973,-1
-25,-26,807,-1
-100,-36,743,-1
-134,-29,738,-1
-146,31,831,-1
-91,106,965,-1
-15,95,1030,-1
-71,42,1080,-1
-88,107,1200,-1
-49,73,1198,-1
-86,145,1284,-1
-20,57,1115,-1
-196,28,967,-1
-289,191,986,-1
-182,274,1056,-1
-26,153,974,-1
-23,62,892,-1
-62,25,820,-1
-122,-10,781,-1
-119,-2,852,-1
-53,19,891,-1
-37,72,966,-1
-2,186,1104,-1
124,39,1065,-1
13,56,1112,-1
104,215,1217,-1
105,200,1238,-1
154,234,1203,-1
112,185,1073,-1
40,111,898,-1
-35,47,808,-1
-73,8,784,-1
-95,-51,817,-1
-100,-35,903,-1
-71,-32,981,-1
-38,-53,1025,-1
-82,-49,1076,-1
-54,0,1111,-1
-190,1,1138,-1
-81,188,1270,-1
-73,-20,1114,-1
-172,178,1104,-1
-166,150,1065,-1
-42,43,937,-1
-45,-3,848,-1
-94,-8,792,-1
-118,-21,813,-1
-67,-8,891,-1
-14,-9,941,-1
-14,-24,967,-1
-47,50,1079,-1
66,34,1095,-1
-54,-83,1051,-1
-14,89,1156,-1
17,77,1138,-1
34,269,1222,-1
43,176,1130,-1
11,122,964,-1
-88,-23,779,-1
-148,-2,759,-1
-163,9,792,-1
-141,45,897,-1
-88,61,960,-1
-48,60,967,-1
-153,21,1029,-1
-164,48,1111,-1
-252,82,1189,-1
-88,297,1414,-1
-3,72,1119,-1
-212,160,1012,-1
-283,222,1015,-1
-124,175,907,-1
-100,70,837,-1
-119,94,848,-1
-116,36,824,-1
-106,14,851,-1
-63,65,921,-1
-21,33,930,-1
-35,83,1010,-1
22,116,1085,-1
-30,18,1060,-1
10,180,1235,-1
176,226,1228,-1
73,219,1142,-1
60,221,1154,-1
87,86,1008,-1
51,50,904,-1
-28,-29,784,-1
-65,-52,721,-1
-61,-47,807,-1
-21,18,938,-1
-4,89,1023,-1
-39,55,968,-1
-157,17,1020,-1
-159,67,1135,-1
-174,41,1123,-1
-232,145,1279,-1
-138,111,1139,-1
-298,99,1032,-1
-336,168,1068,-1
-155,233,1050,-1
-98,99,940,-1
-150,34,839,-1
-167,32,801,-1
-153,17,844,-1
-87,20,887,-1
-29,29,922,-1
-40,37,993,-1
-14,70,1091,-1
47,8,1061,-1
-37,46,1128,-1
-11,100,1118,-1
-84,174,1158,-1
27,242,1227,-1
117,201,1128,-1
68,26,927,-1
-31,-44,811,-1
-87,-85,769,-1
-125,-78,818,-1
-129,12,918,-1
-81,35,972,-1
-72,13,993,-1
-104,-10,1036,-1
-74,6,1069,-1
-192,3,1110,-1
-60,121,1229,-1
-34,-96,992,-1
-280,40,977,-1
-332,166,1065,-1
-81,225,1108,-1
-27,93,998,-1
-65,12,931,-1
-69,-68,829,-1
-75,-61,861,-1
-40,-11,907,-1
-15,1,934,-1
-11,43,1021,-1
91,25,1056,-1
-21,-12,1098,-1
81,148,1243,-1
150,130,1177,-1
80,158,1163,-1
102,112,1056,-1
75,25,905,-1
11,-37,791,-1
-31,-59,833,-1
-16,-38,910,-1
13,20,980,-1
-8,-9,987,-1
-107,-37,1042,-1
-95,-20,1101,-1
-94,-13,1109,-1
-173,42,1190,-1
-70,66,1156,-1
-196,27,1042,-1
-265,117,1058,-1
-108,190,1067,-1
14,81,969,-1
-25,4,884,-1
-62,-32,828,-1
-81,-32,850,-1
-24,0,909,-1
23,9,907,-1
-32,57,923,-1
-46,123,1030,-1
4,90,991,-1
-68,199,1160,-1
91,305,1258,-1
106,183,1230,-1
106,271,1235,-1
86,57,1027,-1
13,-25,873,-1
-83,-34,831,-1
-126,-50,798,-1
-124,-22,851,-1
-90,69,942,-1
-62,46,974,-1
-127,29,1010,-1
-141,13,1084,-1
-56,-31,1100,-1
-170,-60,1103,-1
-144,36,1139,-1
-199,70,1115,-1
-226,192,1123,-1
-100,271,1135,-1
14,118,1007,-1
4,46,881,-1
-45,16,797,-1
-72,13,804,-1
-39,-12,852,-1
9,13,909,-1
-38,35,960,-1
-13,63,1041,-1
42,-46,1038,-1
-40,64,1170,-1
94,230,1284,-1
27,157,1177,-1
16,259,1186,-1
35,125,1091,-1
44,20,927,-1
-26,-55,843,-1
-48,-60,796,-1
-79,-73,793,-1
-75,-47,864,-1
-42,0,921,-1
-43,10,958,-1
-121,-17,1013,-1
-112,15,1089,-1
-219,43,1202,-1
-35,236,1346,-1
-73,-62,1099,-1
-231,200,1107,-1
-207,239,1128,-1
-6,117,995,-1
-8,4,866,-1
-62,-28,802,-1
-103,-14,802,-1
-86,-50,839,-1
-29,3,911,-1
1,42,969,-1
-24,57,1040,-1
80,60,1073,-1
-32,-102,1010,-1
-22,113,1155,-1
76,127,1237,-1
144,87,1154,-1
131,155,1116,-1
69,125,977,-1
1,-29,816,-1
-48,-31,801,-1
-66,-29,827,-1
-34,-22,925,-1
27,23,999,-1
42,-9,1006,-1
1,15,1076,-1
32,-7,1112,-1
-39,-43,1129,-1
2,21,1201,-1
-63,-27,1119,-1
-213,101,1088,-1
-192,176,1155,-1
28,171,1080,-1
15,-5,875,-1
-50,11,802,-1
-56,17,763,-1
-48,-92,750,-1
-14,10,864,-1
43,31,941,-1
110,18,1024,-1
192,-2,1060,-1
-35,-97,1098,-1
171,215,1351,-1
190,-7,1253,-1
99,157,1199,-1
82,133,1174,-1
118,44,1020,-1
54,-102,863,-1
-7,-79,806,-1
-20,-84,780,-1
-14,-129,808,-1
9,-28,877,-1
11,-5,925,-1
-27,-44,972,-1
-27,1,1060,-1
-151,-26,1177,-1
9,157,1391,-1
66,-121,1119,-1
-180,62,1068,-1
-253,166,1068,-1
-59,165,1049,-1
52,40,926,-1
-5,-46,847,-1
-44,-36,798,-1
-59,-58,800,-1
-26,-20,873,-1
19,31,944,-1
12,49,1013,-1
96,68,1101,-1
35,-55,1098,-1
104,174,1266,-1
172,82,1247,-1
134,190,1259,-1
177,95,1149,-1
110,12,970,-1
48,-60,826,-1
-15,-76,782,-1
-43,-65,784,-1
-61,-62,836,-1
-20,11,924,-1
7,-6,948,-1
-48,-36,986,-1
-72,-11,1054,-1
-92,-1,1094,-1
-144,65,1286,-1
49,6,1191,-1
-152,-9,1078,-1
-286,121,1046,-1
-175,179,1072,-1
8,137,1000,-1
12,36,896,-1
-30,5,822,-1
-60,-22,795,-1
-45,-42,844,-1
12,19,929,-1
16,26,988,-1
20,48,1045,-1
57,38,1033,-1
-102,67,1158,-1
103,193,1263,-1
61,97,1191,-1
-11,256,1186,-1
-1,127,1054,-1
-24,61,922,-1
-90,-9,818,-1
-142,-22,779,-1
-161,-30,795,-1
-136,23,886,-1
-58,94,965,-1
-56,43,962,-1
-155,61,1015,-1
-198,96,1081,-1
-195,256,1284,-1
-68,193,1222,-1
-201,156,1080,-1
-330,231,1008,-1
-236,356,1015,-1
-63,346,957,-1
16,274,920,-1
33,194,893,-1
83,83,958,-1
160,24,1000,-1
225,79,935,-1
251,57,848,-1
241,100,878,-1
230,34,869,-1
202,154,1113,-1
345,308,1241,-1
307,252,1239,-1
197,209,1115,-1
72,84,941,-1
19,37,810,-1
-47,25,796,-1
-59,-11,831,-1
-1,37,900,-1
53,97,990,-1
72,27,975,-1
30,10,1006,-1
40,-25,1039,-1
40,-66,1068,-1
-48,55,1226,-1
66,77,1185,-1
-85,-37,1014,-1
-187,171,1034,-1
-131,211,1047,-1
28,123,963,-1
50,62,909,-1
49,53,868,-1
29,0,808,-1
57,-21,817,-1
83,77,880,-1
77,136,938,-1
94,190,1049,-1
201,131,1066,-1
74,108,1082,-1
185,276,1179,-1
219,168,1125,-1
240,348,1233,-1
318,292,1177,-1
271,161,975,-1
121,72,825,-1
14,89,777,-1
-30,35,763,-1
-40,30,820,-1
-6,115,906,-1
-17,74,926,-1
-40,112,1027,-1
-12,110,1093,-1
-99,104,1137,-1
43,336,1338,-1
63,2,1120,-1
-94,270,1133,-1
-142,336,1120,-1
41,255,1013,-1
90,134,892,-1
70,72,814,-1
50,38,768,-1
66,15,801,-1
133,42,869,-1
173,69,921,-1
169,138,1027,-1
266,123,1082,-1
210,22,1082,-1
294,185,1194,-1
238,137,1138,-1
250,279,1217,-1
299,209,1192,-1
225,57,977,-1
59,-9,848,-1
-56,11,781,-1
-84,-15,759,-1
-96,-15,806,-1
-90,39,874,-1
-152,4,927,-1
-180,9,1004,-1
-216,10,1066,-1
-314,41,1179,-1
-119,203,1289,-1
-183,57,1123,-1
-291,304,1132,-1
-150,308,1087,-1
0,163,942,-1
38,92,889,-1
54,63,857,-1
60,-67,799,-1
53,-54,821,-1
47,12,872,-1
40,120,962,-1
141,165,1086,-1
147,53,1110,-1
248,188,1222,-1
162,246,1200,-1
58,281,1227,-1
109,184,1159,-1
113,88,989,-1
-61,-27,799,-1
-227,28,777,-1
-280,11,771,-1
-257,-16,820,-1
-238,-20,893,-1
-208,-24,920,-1
-215,-72,956,-1
-221,252,1301,-1
-192,-52,1106,-1
-426,214,1141,-1
-373,317,1160,-1
-119,229,1050,-1
7,121,927,-1
18,143,912,-1
39,80,868,-1
74,-46,837,-1
118,-48,862,-1
135,-2,871,-1
99,33,934,-1
169,58,987,-1
32,-32,1060,-1
214,294,1296,-1
186,143,1290,-1
238,206,1255,-1
36,209,1213,-1
-48,58,1037,-1
-138,-75,891,-1
-123,-87,835,-1
-82,-109,791,-1
-82,-123,779,-1
-139,-114,789,-1
-217,-122,818,-1
-229,-78,910,-1
-186,27,1039,-1
-282,-76,1133,-1
-451,-30,1173,-1
-547,116,1249,-1
-394,325,1359,-1
1,299,1285,-1
218,214,1063,-1
175,-4,810,-1
90,-15,732,-1
50,-22,730,-1
65,-147,757,-1
113,-118,821,-1
114,-69,957,-1
176,-86,1071,-1
85,-207,1157,-1
145,68,1429,-1
137,104,1288,-1
33,226,1202,-1
-19,165,1068,-1
-37,100,922,-1
-85,0,814,-1
-180,-35,796,-1
-226,-74,805,-1
-225,-140,896,-1
-235,-32,926,-1
-239,-40,944,-1
-249,-46,963,-1
-222,28,1023,-1
-75,0,982,-1
-294,-167,886,-1
-614,3,968,-1
-613,159,1134,-1
-420,329,1246,-1
-90,313,1141,-1
167,614,1145,-1
239,350,978,-1
194,23,793,-1
135,28,734,-1
98,52,712,-1
76,62,765,-1
72,181,884,-1
160,219,1017,-1
143,-51,1004,-1
133,218,1224,-1
183,515,1319,-1
224,317,1290,-1
255,181,1120,-1
45,155,962,-1
-114,132,870,-1
-191,152,838,-1
-194,105,839,-1
-169,73,865,-1
-167,68,910,-1
-159,33,925,-1
-216,-23,940,-1
-186,34,985,-1
-212,81,1089,-1
-60,290,1246,-1
-106,-5,1105,-1
-274,263,1150,-1
-156,408,1193,-1
54,224,1095,-1
127,61,949,-1
107,-10,852,-1
82,-25,780,-1
68,-7,763,-1
110,15,816,-1
122,95,879,-1
174,97,979,-1
233,8,1014,-1
12,23,1067,-1
196,284,1230,-1
159,256,1272,-1
247,261,1274,-1
132,219,1152,-1
-79,166,1052,-1
-185,52,926,-1
-211,-23,833,-1
-198,-78,757,-1
-187,-68,734,-1
-245,-90,711,-1
-381,-31,763,-1
-420,72,923,-1
-460,104,1059,-1
-237,263,1349,-1
-207,187,1347,-1
-295,367,1396,-1
-135,447,1333,-1
80,164,1060,-1
112,55,860,-1
122,45,753,-1
105,9,701,-1
120,-34,687,-1
157,-74,695,-1
205,47,816,-1
265,64,943,-1
259,-121,1073,-1
328,31,1259,-1
199,187,1288,-1
141,253,1322,-1
206,185,1217,-1
192,94,1050,-1
59,30,877,-1
-61,83,801,-1
-103,97,764,-1
-126,99,764,-1
-156,53,816,-1
-120,13,872,-1
-127,-122,917,-1
-157,-174,1018,-1
-363,-259,1130,-1
-311,81,1254,-1
-436,89,1347,-1
-356,411,1408,-1
-98,447,1278,-1
63,369,1041,-1
132,224,840,-1
186,137,752,-1
204,66,708,-1
235,-2,711,-1
268,-98,696,-1
269,-99,742,-1
330,-32,848,-1
304,-47,1060,-1
433,-52,1312,-1
395,60,1420,-1
382,282,1468,-1
241,172,1227,-1
102,99,952,-1
-10,91,823,-1
-112,73,771,-1
-145,-31,757,-1
-259,-10,779,-1
-336,74,809,-1
-358,101,855,-1
-265,140,960,-1
-253,51,1087,-1
-67,66,1208,-1
-244,-103,1086,-1
-452,151,1205,-1
-326,328,1373,-1
-31,66,1222,-1
1,-23,994,-1
-27,-26,820,-1
-27,-63,674,-1
5,-112,599,-1
63,-114,662,-1
67,-133,778,-1
84,-21,962,-1
145,-126,1081,-1
-71,-283,1067,-1
112,451,1428,-1
84,400,1509,-1
65,285,1304,-1
-120,251,1098,-1
-232,156,930,-1
-273,84,818,-1
-268,17,784,-1
-242,-24,773,-1
-278,19,785,-1
-305,11,803,-1
-306,29,877,-1
-185,107,987,-1
-195,112,1078,-1
-184,162,1231,-1
-224,96,1225,-1
-274,299,1268,-1
-141,327,1224,-1
-3,259,1088,-1
61,138,946,-1
44,12,811,-1
35,9,775,-1
48,-5,771,-1
51,-49,775,-1
12,15,878,-1
79,110,1026,-1
170,-29,1024,-1
-40,-45,1112,-1
119,328,1342,-1
161,187,1326,-1
238,218,1287,-1
141,153,1117,-1
26,-4,907,-1
-91,-3,842,-1
-121,-50,797,-1
-122,-111,763,-1
-173,-36,787,-1
-228,29,823,-1
-271,-1,873,-1
-262,22,964,-1
-379,165,1255,-1
-3,272,1339,-1
-103,-32,1214,-1
-318,328,1272,-1
-193,376,1265,-1
46,92,1035,-1
47,8,859,-1
12,25,753,-1
5,31,683,-1
20,-6,652,-1
53,-5,728,-1
81,126,852,-1
155,183,1004,-1
71,81,1107,-1
212,327,1332,-1
164,346,1400,-1
190,308,1401,-1
122,115,1225,-1
26,49,1038,-1
-82,23,915,-1
-116,-22,799,-1
-149,-45,734,-1
-198,-16,720,-1
-261,2,723,-1
-281,8,764,-1
-264,18,846,-1
-294,157,1029,-1
-87,413,1269,-1
-34,166,1260,-1
-160,480,1321,-1
-72,480,1358,-1
137,260,1170,-1
177,175,1008,-1
186,164,874,-1
169,97,734,-1
132,74,686,-1
118,114,732,-1
137,127,822,-1
237,150,926,-1
169,8,997,-1
271,273,1295,-1
250,436,1373,-1
140,388,1310,-1
-60,373,1112,-1
-190,272,950,-1
-227,146,791,-1
-197,82,744,-1
-97,14,742,-1
-96,-7,681,-1
-250,68,720,-1
-412,137,805,-1
-426,240,951,-1
-533,326,1153,-1
-284,646,1372,-1
-199,408,1249,-1
-220,676,1281,-1
0,628,1193,-1
228,351,970,-1
252,152,806,-1
203,77,693,-1
150,14,620,-1
131,34,635,-1
130,182,749,-1
211,289,865,-1
255,480,926,-1
172,399,970,-1
151,580,1048,-1
50,646,1095,-1
10,843,1221,-1
38,637,1112,-1
-57,417,865,-1
-165,343,809,-1
-185,293,836,-1
-151,188,843,-1
-162,110,812,-1
-255,109,795,-1
-340,140,819,-1
-364,189,856,-1
-406,539,1075,-1
-123,814,1170,-1
-56,592,1118,-1
-120,688,1064,-1
-92,737,1040,-1
83,509,885,-1
172,245,801,-1
170,135,743,-1
135,155,725,-1
137,181,766,-1
209,251,813,-1
205,199,838,-1
188,292,973,-1
113,273,1051,-1
87,234,1157,-1
177,348,1250,-1
286,365,1335,-1
313,169,1122,-1
184,92,931,-1
31,88,851,-1
-51,119,830,-1
-75,29,772,-1
-145,-15,750,-1
-245,59,772,-1
-324,149,832,-1
-368,190,935,-1
-370,304,1054,-1
-201,533,1337,-1
-105,279,1203,-1
-260,322,1216,-1
-216,661,1253,-1
38,487,1122,-1
206,160,875,-1
214,112,747,-1
181,111,697,-1
177,87,696,-1
200,27,737,-1
275,9,808,-1
342,36,920,-1
432,-25,1005,-1
345,-68,1138,-1
330,228,1302,-1
191,367,1329,-1
97,341,1285,-1
15,313,1146,-1
-55,203,1021,-1
-111,62,901,-1
-131,-20,822,-1
-176,-46,760,-1
-243,-35,693,-1
-274,68,722,-1
-302,71,792,-1
-253,91,896,-1
-346,117,1091,-1
-174,315,1314,-1
-217,168,1374,-1
-161,399,1400,-1
83,381,1308,-1
251,87,1026,-1
236,-41,823,-1
191,-36,736,-1
172,-42,683,-1
145,-66,662,-1
171,-41,758,-1
233,109,960,-1
369,-36,1064,-1
270,-261,1070,-1
268,128,1301,-1
243,219,1337,-1
323,150,1264,-1
168,113,1091,-1
14,174,989,-1
-71,81,885,-1
-150,-16,824,-1
-176,-56,800,-1
-203,-52,784,-1
-215,-2,797,-1
-272,-14,890,-1
-251,50,1005,-1
-197,87,1060,-1
-236,348,1381,-1
-7,426,1450,-1
-46,253,1305,-1
-98,492,1278,-1
58,418,1128,-1
198,259,885,-1
243,217,740,-1
257,209,642,-1
292,121,571,-1
351,5,598,-1
484,-59,675,-1
617,1,924,-1
499,-19,1191,-1
438,141,1340,-1
355,402,1408,-1
217,569,1390,-1
162,550,1313,-1
-50,346,1067,-1
-290,235,878,-1
-419,88,739,-1
-391,-67,622,-1
-376,-111,617,-1
-325,-86,696,-1
-146,-395,781,-1
-99,-53,836,-1
-313,370,1038,-1
-583,485,1188,-1
-252,655,1319,-1
-202,399,1107,-1
-274,391,1257,-1
-73,419,1330,-1
41,241,1082,-1
-16,82,811,-1
-35,-5,663,-1
-47,96,655,-1
-45,119,740,-1
-21,130,811,-1
13,117,881,-1
145,160,1009,-1
118,168,1037,-1
131,188,1121,-1
134,236,1197,-1
173,282,1216,-1
129,252,1244,-1
38,106,1140,-1
-75,-12,1057,-1
-153,-62,971,-1
-198,-141,862,-1
-188,-92,795,-1
-155,-10,770,-1
-152,-35,758,-1
-143,36,866,-1
-71,67,960,-1
-192,30,1138,-1
-101,32,1185,-1
-338,179,1282,-1
-285,355,1413,-1
59,298,1390,-1
260,112,1103,-1
200,-52,803,-1
91,-40,665,-1
27,16,620,-1
43,3,656,-1
124,134,787,-1
249,225,994,-1
412,9,982,-1
327,-79,939,-1
311,175,1187,-1
331,327,1466,-1
385,113,1322,-1
85,133,1210,-1
-208,59,1085,-1
-415,-39,907,-1
-368,-96,775,-1
-217,-94,708,-1
-149,99,723,-1
-177,175,759,-1
-207,271,889,-1
-213,296,1021,-1
-199,480,1388,-1
114,464,1333,-1
-139,251,1179,-1
-149,554,1289,-1
136,406,1143,-1
246,173,922,-1
190,82,786,-1
98,12,695,-1
72,18,663,-1
75,17,639,-1
91,31,695,-1
128,255,883,-1
281,357,1095,-1
342,64,1064,-1
205,310,1265,-1
222,461,1386,-1
322,314,1306,-1
196,170,1140,-1
-2,246,1019,-1
-111,226,904,-1
-185,68,816,-1
-241,49,794,-1
-302,83,806,-1
-350,52,793,-1
-374,19,805,-1
-396,-38,837,-1
-591,-30,1011,-1
-223,414,1201,-1
-326,92,1177,-1
-311,477,1338,-1
-36,606,1353,-1
259,302,1103,-1
262,132,899,-1
196,122,788,-1
164,99,718,-1
177,83,693,-1
214,10,763,-1
301,56,903,-1
438,92,957,-1
338,-76,1017,-1
389,378,1260,-1
324,494,1384,-1
232,256,1313,-1
87,138,1104,-1
-73,141,979,-1
-119,58,844,-1
-158,-44,759,-1
-207,-63,732,-1
-337,5,747,-1
-424,76,796,-1
-446,116,903,-1
-297,345,1085,-1
-200,350,1308,-1
131,359,1290,-1
38,316,1228,-1
-2,496,1191,-1
146,513,1169,-1
265,280,980,-1
276,143,850,-1
264,85,771,-1
253,81,685,-1
277,-9,660,-1
317,-67,697,-1
391,38,871,-1
546,98,1088,-1
555,31,1115,-1
403,373,1223,-1
204,606,1238,-1
141,528,1118,-1
39,462,999,-1
-82,410,879,-1
-183,278,780,-1
-263,231,768,-1
-351,54,813,-1
-316,-8,844,-1
-262,331,871,-1
-264,420,890,-1
-317,439,880,-1
-222,366,884,-1
-401,676,1068,-1
-134,614,1269,-1
-91,75,1016,-1
-295,431,1073,-1
-132,497,1185,-1
41,230,997,-1
96,62,863,-1
84,52,839,-1
91,55,744,-1
101,63,703,-1
98,56,719,-1
78,108,804,-1
176,254,1005,-1
146,23,1138,-1
281,20,1236,-1
185,225,1403,-1
193,134,1311,-1
98,63,1097,-1
-15,77,975,-1
-62,-51,855,-1
-20,-86,791,-1
-17,-64,803,-1
-30,-30,820,-1
-71,32,818,-1
-124,43,858,-1
-184,5,933,-1
-146,114,1059,-1
-315,26,1213,-1
-341,57,1276,-1
-514,191,1310,-1
-456,393,1341,-1
-128,265,1164,-1
82,169,940,-1
173,280,858,-1
199,207,729,-1
210,87,652,-1
201,74,678,-1
201,87,730,-1
239,187,869,-1
301,89,994,-1
344,-25,1277,-1
277,126,1387,-1
329,228,1399,-1
295,127,1206,-1
172,123,1051,-1
17,106,926,-1
-124,53,838,-1
-211,34,798,-1
-266,-2,716,-1
-354,25,670,-1
-389,118,704,-1
-372,105,790,-1
-255,200,1019,-1
-158,237,1253,-1
31,-62,1248,-1
-134,57,1230,-1
-266,338,1296,-1
-73,299,1230,-1
114,185,1062,-1
201,78,911,-1
241,14,787,-1
252,0,699,-1
275,-6,673,-1
287,-73,663,-1
297,-3,748,-1
313,67,870,-1
290,-13,1033,-1
471,221,1276,-1
602,495,1414,-1
547,512,1271,-1
338,352,985,-1
147,332,834,-1
-41,400,804,-1
-145,300,784,-1
-185,177,788,-1
-198,191,818,-1
-236,203,847,-1
-276,220,908,-1
-288,235,1031,-1
-273,233,1156,-1
-241,393,1281,-1
-260,502,1383,-1
-175,632,1328,-1
30,723,1225,-1
196,495,983,-1
240,197,705,-1
216,148,640,-1
204,179,593,-1
202,136,578,-1
179,74,615,-1
161,101,758,-1
270,264,1053,-1
322,68,1138,-1
429,-3,1356,-1
503,278,1458,-1
535,391,1411,-1
343,55,1074,-1
167,-133,825,-1
36,-47,778,-1
-66,-25,755,-1
-111,-101,707,-1
-164,-19,694,-1
-200,136,801,-1
-226,171,943,-1
-147,210,1105,-1
-131,124,1241,-1
105,53,1263,-1
-11,-6,1261,-1
-38,240,1304,-1
113,292,1311,-1
276,167,1111,-1
287,62,888,-1
244,2,724,-1
255,15,681,-1
298,-25,672,-1
337,-95,670,-1
344,-50,782,-1
371,34,930,-1
274,-97,1085,-1
281,198,1329,-1
306,457,1524,-1
304,243,1337,-1
154,108,1028,-1
-62,65,831,-1
-159,93,717,-1
-183,-31,647,-1
-206,7,662,-1
-281,78,751,-1
-359,137,888,-1
-304,180,1035,-1
-131,246,1166,-1
-72,222,1283,-1
58,233,1273,-1
-104,299,1210,-1
-130,447,1204,-1
59,375,1130,-1
176,213,939,-1
194,116,827,-1
201,72,731,-1
200,24,677,-1
220,27,673,-1
235,82,727,-1
330,269,869,-1
349,335,1099,-1
489,420,1307,-1
433,483,1402,-1
356,539,1384,-1
144,258,1125,-1
-2,127,911,-1
-97,154,801,-1
-117,85,722,-1
-134,1,649,-1
-178,78,636,-1
-281,117,661,-1
-297,196,836,-1
-118,344,1052,-1
-114,195,1057,-1
-133,223,1237,-1
-174,522,1458,-1
-84,697,1560,-1
157,600,1503,-1
297,303,1152,-1
258,119,844,-1
214,76,656,-1
184,72,524,-1
146,45,494,-1
130,98,549,-1
101,130,636,-1
170,240,857,-1
339,491,1316,-1
555,290,1425,-1
427,475,1438,-1
317,556,1336,-1
101,301,1041,-1
-43,227,853,-1
-79,246,776,-1
-49,168,751,-1
-40,117,715,-1
-71,122,710,-1
-152,83,709,-1
-336,83,796,-1
-341,244,993,-1
-279,327,1177,-1
-68,492,1275,-1
6,404,1260,-1
-18,555,1217,-1
100,538,1183,-1
215,316,1041,-1
221,118,909,-1
208,67,798,-1
195,97,705,-1
217,77,690,-1
297,65,744,-1
380,112,884,-1
454,53,892,-1
356,39,984,-1
476,387,1251,-1
298,334,1252,-1
206,337,1210,-1
84,253,1123,-1
67,94,967,-1
-25,-42,841,-1
-77,19,827,-1
-104,50,835,-1
-88,67,862,-1
-80,76,905,-1
-95,20,918,-1
-68,45,966,-1
-217,-18,1036,-1
58,227,1225,-1
-71,276,1407,-1
-208,513,1538,-1
-73,520,1552,-1
118,193,1305,-1
144,-1,1060,-1
111,-8,930,-1
109,-37,851,-1
30,-190,930,-1
-53,-92,870,-1
-151,-56,805,-1
-285,3,871,-1
-293,150,928,-1
-347,107,981,-1
-262,114,1033,-1
-236,6,916,-1
-229,-146,828,-1
-266,-268,633,-1
-330,-167,805,-1
-387,142,1030,-1
-370,44,700,-1
-324,-95,483,-1
-276,25,616,-1
-262,112,924,-1
-307,314,787,-1
-602,686,568,-1
-678,421,629,-1
-609,83,976,-1
-829,-50,1190,-1
-936,159,1321,-1
-521,444,1307,-1
-244,383,1125,-1
-12,254,895,-1
69,97,707,-1
133,-32,601,-1
110,-108,570,-1
64,0,665,-1
94,175,840,-1
93,50,1027,-1
14,7,1248,-1
-112,340,1524,-1
70,508,1624,-1
69,44,1324,-1
42,-194,1023,-1
-15,-141,906,-1
-32,-76,825,-1
-63,-80,710,-1
-108,-113,644,-1
-177,-106,685,-1
-268,-9,808,-1
-305,202,996,-1
-212,228,1174,-1
-201,143,1179,-1
-213,87,1233,-1
-363,205,1348,-1
-320,667,1462,-1
-11,839,1486,-1
248,260,1142,-1
321,-147,899,-1
283,32,814,-1
260,-36,712,-1
271,-152,642,-1
297,-188,632,-1
271,-160,691,-1
346,-142,756,-1
291,-251,803,-1
274,-99,914,-1
182,278,1106,-1
256,303,1276,-1
299,338,1264,-1
204,405,1198,-1
28,229,1073,-1
-140,180,991,-1
-232,218,998,-1
-270,147,983,-1
-261,122,979,-1
-293,63,948,-1
-319,96,947,-1
-472,135,984,-1
-228,792,1463,-1
-27,434,1381,-1
36,680,1459,-1
223,713,1380,-1
384,396,1031,-1
383,244,787,-1
372,239,664,-1
339,182,569,-1
272,243,573,-1
241,315,650,-1
380,369,727,-1
450,56,758,-1
509,181,944,-1
347,674,1230,-1
182,317,1181,-1
0,221,1110,-1
-108,342,1089,-1
-135,197,969,-1
-124,118,864,-1
-153,158,758,-1
-225,221,715,-1
-309,271,761,-1
-303,343,862,-1
-311,593,1123,-1
-146,819,1315,-1
-71,483,1220,-1
-172,768,1286,-1
-50,846,1223,-1
94,470,964,-1
125,331,810,-1
121,396,767,-1
119,356,705,-1
130,224,651,-1
166,238,696,-1
200,275,752,-1
281,231,813,-1
383,115,853,-1
288,101,898,-1
201,648,1254,-1
265,423,1272,-1
244,247,1164,-1
80,177,1033,-1
-57,42,903,-1
-106,-8,847,-1
-133,-25,780,-1
-170,41,754,-1
-189,163,793,-1
-204,163,856,-1
-206,158,942,-1
-211,250,1115,-1
0,507,1381,-1
20,271,1307,-1
-28,456,1306,-1
51,591,1314,-1
227,378,1153,-1
278,158,959,-1
254,88,798,-1
204,90,670,-1
169,104,619,-1
155,145,647,-1
214,228,759,-1
332,285,865,-1
332,21,823,-1
185,151,1037,-1
197,432,1264,-1
296,413,1347,-1
284,77,1215,-1
188,157,1086,-1
66,137,944,-1
-32,97,853,-1
-65,55,814,-1
-114,19,779,-1
-211,44,805,-1
-301,80,869,-1
-288,115,972,-1
-278,148,1076,-1
-111,406,1329,-1
-91,79,1170,-1
-225,291,1188,-1
-225,510,1218,-1
-40,403,1107,-1
91,194,948,-1
124,134,866,-1
145,117,795,-1
132,16,699,-1
133,35,682,-1
134,83,744,-1
184,220,899,-1
306,239,993,-1
174,177,1091,-1
240,379,1206,-1
124,547,1269,-1
138,437,1266,-1
135,257,1109,-1
80,113,939,-1
-31,107,830,-1
-88,131,771,-1
-80,90,724,-1
-107,131,699,-1
-220,214,737,-1
-356,307,827,-1
-337,541,964,-1
-408,501,1037,-1
-322,855,1263,-1
-239,821,1208,-1
-265,905,1191,-1
-88,985,1181,-1
112,598,971,-1
166,168,747,-1
157,131,664,-1
139,207,637,-1
100,221,601,-1
99,240,624,-1
140,318,769,-1
294,395,921,-1
253,212,984,-1
313,401,1204,-1
217,605,1238,-1
70,527,1229,-1
-64,427,1114,-1
-158,359,1028,-1
-273,169,932,-1
-243,107,874,-1
-197,31,784,-1
-229,27,673,-1
-305,127,626,-1
-372,188,658,-1
-386,257,785,-1
-465,654,1127,-1
-120,1021,1286,-1
13,529,1190,-1
-75,698,1204,-1
41,845,1185,-1
123,375,965,-1
130,133,811,-1
127,104,764,-1
98,108,693,-1
80,139,672,-1
124,286,730,-1
203,397,815,-1
314,373,887,-1
277,346,918,-1
236,446,1033,-1
195,657,1175,-1
146,581,1216,-1
42,415,1175,-1
2,366,1161,-1
-108,122,1005,-1
-212,-14,918,-1
-269,-32,864,-1
-320,-13,795,-1
-365,60,762,-1
-397,137,778,-1
-414,172,809,-1
-463,299,1050,-1
-185,711,1230,-1
-239,217,1104,-1
-256,511,1164,-1
-87,733,1165,-1
88,401,987,-1
236,251,869,-1
268,196,749,-1
251,136,683,-1
218,111,677,-1
192,94,729,-1
294,147,895,-1
354,75,999,-1
453,30,1131,-1
386,354,1297,-1
397,508,1362,-1
403,358,1200,-1
201,203,975,-1
-61,156,881,-1
-171,167,862,-1
-209,64,790,-1
-302,-45,729,-1
-451,13,734,-1
-584,130,751,-1
-674,233,829,-1
-640,326,907,-1
-591,502,1083,-1
-450,625,1084,-1
-429,496,1032,-1
-283,694,1015,-1
-76,684,922,-1
74,486,793,-1
163,413,725,-1
200,341,703,-1
248,279,806,-1
308,192,894,-1
405,223,985,-1
546,358,1036,-1
432,169,988,-1
243,401,1169,-1
233,814,1136,-1
129,630,1107,-1
91,402,1013,-1
-21,272,924,-1
-132,240,899,-1
-159,199,857,-1
-125,92,777,-1
-212,21,691,-1
-319,84,650,-1
-444,182,701,-1
-437,282,793,-1
-492,347,969,-1
-266,624,1130,-1
-312,438,1149,-1
-275,671,1172,-1
-87,780,1128,-1
77,474,971,-1
194,167,532,-1
239,264,758,-1
157,326,856,-1
202,272,786,-1
154,194,772,-1
134,357,922,-1
221,492,1029,-1
133,329,1057,-1
239,690,1310,-1
320,737,1288,-1
275,394,1068,-1
90,299,881,-1
-33,380,808,-1
-126,293,700,-1
-254,220,646,-1
-262,241,679,-1
-330,248,658,-1
-410,317,676,-1
-416,419,837,-1
-248,570,980,-1
-253,655,1137,-1
-58,570,1134,-1
-193,467,1100,-1
-228,867,1199,-1
-51,913,1102,-1
52,412,856,-1
107,309,745,-1
145,302,701,-1
150,244,669,-1
158,227,699,-1
186,291,767,-1
204,332,806,-1
352,282,911,-1
395,308,1069,-1
381,510,1139,-1
297,419,1197,-1
293,367,1186,-1
232,223,1040,-1
150,39,882,-1
0,46,843,-1
-29,103,772,-1
-49,43,765,-1
-107,18,812,-1
-182,110,833,-1
-223,179,929,-1
-186,282,1073,-1
-222,268,1253,-1
-14,261,1252,-1
-211,331,1263,-1
-152,562,1275,-1
52,456,1126,-1
180,336,1020,-1
171,232,885,-1
145,130,765,-1
130,67,711,-1
137,71,699,-1
169,87,724,-1
153,108,777,-1
231,232,892,-1
232,177,982,-1
333,381,1277,-1
326,503,1289,-1
326,502,1294,-1
232,498,1160,-1
40,358,947,-1
-89,276,861,-1
-155,213,742,-1
-219,58,695,-1
-223,9,685,-1
-275,138,725,-1
-318,267,782,-1
-347,343,865,-1
-358,425,917,-1
-427,629,1106,-1
-253,1060,1311,-1
-114,1051,1248,-1
59,946,1182,-1
221,742,991,-1
281,397,750,-1
293,225,640,-1
271,185,602,-1
242,179,627,-1
223,166,705,-1
175,194,724,-1
230,484,870,-1
351,505,893,-1
229,354,967,-1
343,784,1145,-1
278,787,1175,-1
332,683,1147,-1
276,387,951,-1
154,233,788,-1
-7,285,697,-1
-141,284,640,-1
-220,254,655,-1
-318,296,706,-1
-330,347,792,-1
-191,602,965,-1
-40,659,1031,-1
-69,418,1102,-1
1,691,1238,-1
-86,804,1192,-1
12,791,1143,-1
157,524,978,-1
199,269,763,-1
214,275,701,-1
198,312,667,-1
182,240,623,-1
197,212,653,-1
255,369,806,-1
496,618,976,-1
553,82,899,-1
635,608,1183,-1
525,457,1073,-1
307,170,858,-1
56,366,800,-1
-139,452,787,-1
-211,239,733,-1
-182,198,692,-1
-123,288,716,-1
-220,199,630,-1
-433,249,678,-1
-415,597,915,-1
-598,601,1098,-1
-224,1155,1324,-1
-244,782,1202,-1
-208,990,1248,-1
23,1040,1220,-1
178,460,932,-1
184,138,719,-1
156,164,672,-1
123,200,622,-1
146,157,684,-1
84,221,824,-1
116,523,1075,-1
253,436,1105,-1
369,153,1053,-1
331,437,1140,-1
163,505,1085,-1
160,414,1079,-1
186,422,1030,-1
66,291,859,-1
-54,137,762,-1
-104,132,733,-1
-126,118,699,-1
-163,101,736,-1
-156,255,879,-1
-75,350,996,-1
-11,230,1024,-1
-25,102,1044,-1
-224,114,1034,-1
-216,345,1182,-1
-117,460,1143,-1
-225,291,986,-1
-243,648,1073,-1
-76,710,1105,-1
98,313,933,-1
150,150,853,-1
124,180,816,-1
79,191,780,-1
49,210,787,-1
67,307,872,-1
139,318,932,-1
163,116,860,-1
4,187,984,-1
174,495,1130,-1
70,196,1091,-1
20,236,1060,-1
-110,247,1109,-1
-97,224,1083,-1
-90,119,981,-1
-118,12,859,-1
-107,29,803,-1
-84,52,810,-1
-34,49,844,-1
27,19,880,-1
39,-57,913,-1
-11,-117,969,-1
-24,-142,1017,-1
24,-238,993,-1
-154,-246,1007,-1
-190,88,1153,-1
-245,330,1254,-1
-192,504,1327,-1
72,643,1397,-1
324,505,1275,-1
405,50,979,-1
341,-114,770,-1
284,-30,698,-1
189,75,703,-1
202,181,848,-1
383,189,962,-1
371,-18,1092,-1
378,314,1247,-1
355,515,1366,-1
372,249,1209,-1
288,164,1015,-1
93,71,863,-1
-79,48,774,-1
-194,73,754,-1
-227,60,770,-1
-274,101,818,-1
-304,134,883,-1
-226,254,1010,-1
-58,328,1084,-1
-17,185,1086,-1
-108,276,1130,-1
-69,546,1234,-1
64,586,1192,-1
180,284,1044,-1
205,236,922,-1
232,162,823,-1
225,68,744,-1
206,34,718,-1
214,22,733,-1
273,22,749,-1
261,8,738,-1
233,108,832,-1
339,237,950,-1
340,199,1031,-1
301,355,1273,-1
423,545,1382,-1
325,486,1301,-1
59,444,1207,-1
-11,451,1143,-1
-27,235,956,-1
-20,149,773,-1
-62,180,655,-1
-86,255,651,-1
-121,260,679,-1
-177,315,795,-1
-66,556,1063,-1
-72,572,1168,-1
72,460,1119,-1
-137,646,1183,-1
-124,720,1175,-1
97,570,1084,-1
226,327,937,-1
226,256,850,-1
199,220,801,-1
184,198,779,-1
198,185,784,-1
210,208,793,-1
185,283,840,-1
251,354,904,-1
214,322,906,-1
244,537,1093,-1
337,614,1159,-1
347,476,1102,-1
352,360,1027,-1
279,270,853,-1
191,178,673,-1
57,176,577,-1
-17,255,606,-1
-79,276,663,-1
-124,321,739,-1
-195,422,892,-1
-187,304,1019,-1
-168,181,1085,-1
-115,250,1176,-1
-47,195,1117,-1
-139,125,991,-1
-103,553,1105,-1
-238,658,1100,-1
-90,1047,1205,-1
88,977,1139,-1
311,873,994,-1
471,631,865,-1
460,287,682,-1
395,201,612,-1
380,307,629,-1
386,329,653,-1
468,310,764,-1
571,204,832,-1
577,121,873,-1
536,486,1114,-1
653,843,1354,-1
654,370,1083,-1
486,242,882,-1
276,364,779,-1
122,335,703,-1
38,179,654,-1
-49,149,654,-1
-186,208,730,-1
-279,308,850,-1
-298,280,945,-1
-200,352,1041,-1
-198,627,1305,-1
193,692,1312,-1
59,163,1148,-1
-6,598,1184,-1
78,680,1177,-1
283,394,986,-1
357,234,844,-1
312,168,701,-1
208,114,594,-1
147,119,632,-1
156,110,728,-1
170,107,747,-1
162,124,768,-1
148,56,753,-1
222,-16,747,-1
134,-117,675,-1
-43,158,968,-1
-44,712,1472,-1
287,1135,1734,-1
380,856,1462,-1
246,413,1113,-1
82,203,897,-1
-22,149,802,-1
-122,75,709,-1
-217,171,700,-1
-290,317,781,-1
-308,388,880,-1
-208,463,989,-1
-200,460,1047,-1
-18,642,1253,-1
-60,507,1151,-1
-77,624,1105,-1
-52,678,1078,-1
77,532,961,-1
163,382,864,-1
178,281,784,-1
172,243,740,-1
179,208,723,-1
191,189,724,-1
190,248,775,-1
225,359,890,-1
326,357,953,-1
297,274,968,-1
304,509,1155,-1
324,616,1164,-1
308,520,1053,-1
252,427,908,-1
188,399,781,-1
140,370,710,-1
70,269,656,-1
47,280,698,-1
17,274,767,-1
28,262,842,-1
74,242,895,-1
94,174,880,-1
45,46,872,-1
-46,-60,948,-1
-55,-156,993,-1
-24,-225,961,-1
-116,-90,901,-1
-590,234,1060,-1
-396,1132,1503,-1
-220,1007,1490,-1
-43,1105,1514,-1
159,1093,1407,-1
392,447,1029,-1
502,148,750,-1
539,168,624,-1
543,32,475,-1
485,44,486,-1
588,270,618,-1
726,81,680,-1
819,217,1069,-1
988,589,1266,-1
825,583,1300,-1
571,439,961,-1
298,372,699,-1
-42,583,662,-1
-294,612,704,-1
-506,431,748,-1
-591,461,814,-1
-533,450,956,-1
-354,344,976,-1
-259,206,922,-1
-197,420,1078,-1
5,913,1353,-1
237,1044,1479,-1
389,476,1154,-1
359,384,978,-1
342,350,846,-1
328,231,697,-1
297,110,563,-1
272,126,583,-1
315,131,698,-1
447,182,840,-1
531,113,864,-1
475,136,965,-1
496,515,1140,-1
494,831,1210,-1
361,471,980,-1
237,363,817,-1
90,421,771,-1
-71,358,750,-1
-141,279,793,-1
-168,275,856,-1
-265,353,946,-1
-301,381,1032,-1
-286,411,1093,-1
-296,399,1101,-1
-166,648,1269,-1
-134,722,1142,-1
-66,840,1118,-1
143,647,952,-1
258,287,717,-1
268,166,625,-1
226,156,611,-1
202,138,618,-1
234,109,668,-1
305,116,732,-1
383,187,864,-1
493,174,924,-1
443,116,971,-1
481,515,1161,-1
414,635,1241,-1
453,515,1147,-1
374,373,972,-1
234,190,757,-1
69,195,639,-1
-55,283,666,-1
-101,258,716,-1
-98,350,837,-1
-15,485,1052,-1
21,407,1088,-1
-7,336,1132,-1
-75,370,1160,-1
-141,432,1157,-1
-185,528,1168,-1
-148,670,1163,-1
-36,699,1151,-1
180,655,1057,-1
270,297,797,-1
226,76,655,-1
170,124,677,-1
144,130,708,-1
171,66,725,-1
236,117,758,-1
259,267,867,-1
318,314,964,-1
206,161,912,-1
327,472,1028,-1
256,632,1075,-1
271,729,1073,-1
209,512,939,-1
128,449,876,-1
27,338,751,-1
-128,261,694,-1
-264,329,749,-1
-319,459,869,-1
-304,497,966,-1
-316,482,1004,-1
-281,571,1083,-1
-320,579,1106,-1
-153,925,1200,-1
-155,584,906,-1
-254,681,893,-1
-202,833,898,-1
-23,570,704,-1
53,327,590,-1
90,328,592,-1
91,306,589,-1
105,247,637,-1
136,349,794,-1
218,465,951,-1
351,527,1041,-1
406,426,1035,-1
346,612,1160,-1
284,546,1003,-1
183,589,1037,-1
257,615,1052,-1
247,392,899,-1
116,135,770,-1
-27,218,751,-1
-71,235,769,-1
-46,154,768,-1
-28,159,807,-1
-44,208,893,-1
-58,192,975,-1
-121,302,1082,-1
-30,634,1433,-1
144,331,1199,-1
-58,304,1158,-1
-166,375,1110,-1
-142,256,981,-1
-13,202,856,-1
50,187,796,-1
65,151,723,-1
73,137,737,-1
116,131,791,-1
189,179,861,-1
228,243,962,-1
332,259,1046,-1
303,114,1027,-1
430,365,1229,-1
406,528,1253,-1
383,475,1134,-1
322,456,973,-1
205,268,740,-1
62,159,622,-1
-67,175,653,-1
-151,144,727,-1
-163,183,882,-1
-165,289,1041,-1
-133,229,1163,-1
-51,212,1266,-1
2,103,1184,-1
-73,148,1260,-1
-35,227,1201,-1
-59,373,1183,-1
-31,365,1122,-1
62,338,1021,-1
143,193,838,-1
131,58,723,-1
111,48,735,-1
134,26,793,-1
202,-14,872,-1
296,33,943,-1
357,58,996,-1
430,35,989,-1
360,0,957,-1
359,144,963,-1
297,194,1027,-1
383,388,1137,-1
486,291,1094,-1
418,83,854,-1
191,77,766,-1
8,128,802,-1
-65,56,795,-1
-46,68,848,-1
-21,144,953,-1
-8,181,1045,-1
6,168,1128,-1
50,112,1170,-1
-96,93,1193,-1
-22,259,1243,-1
-122,238,1179,-1
-127,406,1161,-1
-7,433,1127,-1
146,268,933,-1
149,77,744,-1
123,49,706,-1
124,29,735,-1
145,-16,766,-1
184,54,864,-1
218,148,979,-1
298,197,1105,-1
363,109,1067,-1
335,319,1200,-1
432,366,1120,-1
303,431,1041,-1
337,461,998,-1
367,365,830,-1
294,217,660,-1
141,205,627,-1
-11,276,713,-1
-107,259,802,-1
-111,340,956,-1
-71,413,1090,-1
-81,282,1141,-1
-94,304,1227,-1
-293,276,1224,-1
-6,594,1320,-1
-90,398,1141,-1
-81,545,1088,-1
-27,486,978,-1
30,258,771,-1
51,171,687,-1
82,195,688,-1
101,150,678,-1
123,103,744,-1
152,184,858,-1
179,293,987,-1
273,339,1105,-1
370,143,1011,-1
211,307,1093,-1
294,556,1174,-1
277,609,1163,-1
343,429,1017,-1
308,309,846,-1
209,164,676,-1
62,157,610,-1
-109,218,676,-1
-196,228,787,-1
-154,296,911,-1
-69,337,1031,-1
-56,330,1132,-1
-37,330,1170,-1
-255,397,1198,-1
-41,676,1269,-1
-125,368,1013,-1
-197,590,1010,-1
-105,627,991,-1
40,364,798,-1
56,236,686,-1
10,248,685,-1
7,260,693,-1
31,182,707,-1
91,227,794,-1
129,340,955,-1
199,372,1067,-1
290,185,1018,-1
189,420,1196,-1
302,492,1171,-1
181,594,1105,-1
229,660,1068,-1
223,486,894,-1
137,377,697,-1
-25,282,584,-1
-151,246,649,-1
-177,275,712,-1
-170,297,804,-1
-145,364,960,-1
-128,372,1072,-1
-140,346,1127,-1
-123,368,1154,-1
-258,379,1223,-1
-69,461,1205,-1
-175,287,1008,-1
-209,438,1073,-1
-100,385,1028,-1
20,223,853,-1
47,133,784,-1
7,67,737,-1
-6,25,748,-1
-6,49,859,-1
37,61,907,-1
71,100,988,-1
173,172,1133,-1
159,28,1050,-1
215,250,1271,-1
128,242,1204,-1
135,271,1228,-1
193,255,1147,-1
186,110,932,-1
66,-19,797,-1
-17,-39,722,-1
-87,-94,703,-1
-138,-13,797,-1
-163,39,913,-1
-162,76,1010,-1
-170,97,1107,-1
-131,81,1161,-1
-252,116,1215,-1
-100,201,1247,-1
-191,39,1040,-1
-279,144,1068,-1
-199,189,1043,-1
-54,179,962,-1
-24,66,844,-1
-17,16,774,-1
-4,-7,794,-1
36,17,882,-1
87,31,943,-1
52,41,1004,-1
95,119,1136,-1
130,11,1085,-1
108,192,1207,-1
161,289,1212,-1
100,375,1199,-1
140,336,1133,-1
159,234,976,-1
85,67,799,-1
-15,37,737,-1
-79,12,712,-1
-121,28,791,-1
-123,122,916,-1
-116,180,1040,-1
-145,156,1134,-1
-123,105,1176,-1
-221,48,1112,-1
-231,177,1209,-1
-199,178,1116,-1
-299,338,1134,-1
-255,402,1142,-1
-67,313,986,-1
-20,116,797,-1
-24,52,704,-1
-33,18,692,-1
-27,29,777,-1
36,137,938,-1
90,159,1009,-1
106,215,1113,-1
191,158,1116,-1
20,53,1068,-1
113,254,1179,-1
59,360,1208,-1
115,440,1255,-1
93,78,857,-1
-26,-43,729,-1
-97,-31,697,-1
-136,-30,741,-1
-133,78,871,-1
-93,203,1011,-1
-93,182,1060,-1
-116,198,1141,-1
-221,243,1268,-1
-52,339,1319,-1
-78,178,1091,-1
-219,195,998,-1
-250,261,963,-1
-173,240,860,-1
-131,208,825,-1
-77,191,802,-1
-55,113,765,-1
-54,92,814,-1
-2,120,900,-1
59,149,982,-1
54,187,1085,-1
153,227,1194,-1
160,61,1091,-1
124,141,1256,-1
195,402,1251,-1
158,383,1151,-1
162,369,1060,-1
120,195,867,-1
62,68,733,-1
-14,33,707,-1
-77,20,727,-1
-110,23,819,-1
-102,110,934,-1
-93,161,1024,-1
-101,183,1121,-1
-82,153,1127,-1
-239,211,1228,-1
-49,338,1264,-1
-134,72,1007,-1
-267,297,1056,-1
-208,340,1044,-1
-47,226,890,-1
-28,145,817,-1
-36,109,759,-1
-43,61,746,-1
-17,94,845,-1
57,164,956,-1
90,149,1000,-1
98,242,1138,-1
122,201,1176,-1
208,340,1325,-1
292,358,1197,-1
144,313,1052,-1
136,365,1038,-1
172,260,926,-1
129,186,819,-1
-3,139,753,-1
-90,149,717,-1
-127,138,728,-1
-114,180,837,-1
-59,264,949,-1
-103,203,978,-1
-242,220,1123,-1
-324,258,1260,-1
-285,309,1362,-1
-99,323,1279,-1
12,298,1080,-1
-20,142,811,-1
-16,236,788,-1
10,232,742,-1
-7,148,747,-1
-43,163,820,-1
-29,132,922,-1
10,113,990,-1
38,94,1016,-1
45,42,996,-1
51,92,1064,-1
153,131,1113,-1
156,177,1186,-1
341,543,1331,-1
278,376,1130,-1
230,417,1093,-1
297,384,963,-1
281,209,754,-1
169,171,639,-1
86,158,551,-1
20,224,548,-1
-39,264,680,-1
-42,356,865,-1
-31,314,991,-1
-134,305,1097,-1
-214,391,1267,-1
-225,368,1275,-1
-310,439,1333,-1
-151,653,1344,-1
-193,374,993,-1
-269,490,925,-1
-208,566,862,-1
-106,414,703,-1
-78,354,675,-1
-30,321,677,-1
0,211,667,-1
28,218,758,-1
88,251,876,-1
159,266,974,-1
220,313,1122,-1
343,311,1160,-1
266,186,1087,-1
293,409,1178,-1
290,356,1039,-1
255,463,1021,-1
280,427,957,-1
248,303,831,-1
145,178,724,-1
25,179,688,-1
-65,206,719,-1
-110,211,803,-1
-71,267,911,-1
-17,293,991,-1
-57,319,1065,-1
-85,377,1149,-1
-175,465,1254,-1
-42,630,1330,-1
-48,370,1036,-1
-183,410,936,-1
-202,504,890,-1
-136,412,793,-1
-90,362,772,-1
-71,316,767,-1
-55,220,723,-1
-70,174,766,-1
-38,213,863,-1
34,200,932,-1
91,195,986,-1
121,267,1070,-1
161,277,1080,-1
85,310,1141,-1
224,497,1232,-1
290,397,1032,-1
151,445,941,-1
128,495,926,-1
152,343,815,-1
109,302,772,-1
-19,227,745,-1
-75,235,780,-1
-75,178,816,-1
-46,208,899,-1
-2,265,1007,-1
27,247,1018,-1
-30,260,1062,-1
-79,295,1083,-1
-216,302,1081,-1
-153,600,1266,-1
-82,435,1058,-1
-213,400,929,-1
-266,596,952,-1
-162,480,835,-1
-93,373,762,-1
-75,358,752,-1
-64,242,705,-1
-74,185,754,-1
-50,183,833,-1
26,200,920,-1
58,227,979,-1
85,339,1114,-1
210,329,1128,-1
167,380,1207,-1
297,541,1195,-1
184,460,1048,-1
167,535,1038,-1
205,393,908,-1
170,238,768,-1
38,161,687,-1
-83,139,639,-1
-183,156,679,-1
-183,271,851,-1
-86,386,1001,-1
-44,235,1003,-1
-79,360,1137,-1
-89,274,1100,-1
-198,397,1220,-1
-31,562,1233,-1
-104,328,998,-1
-207,505,955,-1
-202,507,890,-1
-92,338,748,-1
-51,244,726,-1
-11,238,748,-1
20,146,768,-1
69,177,884,-1
169,227,955,-1
184,148,929,-1
133,287,1048,-1
197,260,1054,-1
193,383,1197,-1
327,580,1229,-1
235,441,1068,-1
197,514,1060,-1
191,388,927,-1
144,276,837,-1
42,205,807,-1
-21,129,766,-1
-64,107,788,-1
-82,111,860,-1
-34,149,940,-1
-12,164,983,-1
-77,157,1052,-1
-42,227,1144,-1
-106,185,1124,-1
-55,384,1272,-1
-42,263,1064,-1
-217,260,945,-1
-266,409,998,-1
-95,331,918,-1
15,248,848,-1
38,154,797,-1
29,36,747,-1
11,-40,803,-1
49,-29,913,-1
105,22,1008,-1
127,91,1109,-1
193,177,1174,-1
175,95,1098,-1
170,241,1269,-1
268,276,1181,-1
153,274,1067,-1
161,259,1037,-1
154,185,903,-1
75,113,825,-1
-5,47,767,-1
-38,-3,736,-1
-65,6,834,-1
-9,42,947,-1
26,42,1010,-1
-27,58,1082,-1
-76,85,1194,-1
-128,87,1208,-1
-180,189,1315,-1
-92,205,1242,-1
-220,140,1092,-1
-261,148,1056,-1
-174,180,963,-1
-112,109,863,-1
-82,20,772,-1
-31,-38,708,-1
3,-54,739,-1
18,-55,803,-1
66,-1,925,-1
113,21,1068,-1
245,76,1195,-1
219,-11,1198,-1
379,169,1313,-1
373,149,1179,-1
321,123,1091,-1
380,138,1017,-1
425,80,837,-1
350,11,741,-1
240,-31,726,-1
161,-51,725,-1
141,-40,822,-1
154,31,951,-1
171,53,1029,-1
126,15,1061,-1
95,-12,1108,-1
25,0,1133,-1
-12,120,1247,-1
72,244,1268,-1
-23,209,1094,-1
-117,317,1107,-1
-42,292,1014,-1
33,168,888,-1
39,58,809,-1
44,-33,758,-1
17,-83,768,-1
11,-63,857,-1
72,-26,949,-1
139,0,1001,-1
132,46,1063,-1
188,82,1116,-1
160,31,1092,-1
319,334,1248,-1
407,283,1101,-1
246,287,1016,-1
228,349,1018,-1
251,189,894,-1
198,125,757,-1
-2,166,739,-1
-23,125,727,-1
30,132,802,-1
152,288,1009,-1
209,167,1061,-1
202,143,1167,-1
191,189,1242,-1
117,236,1320,-1
186,348,1314,-1
58,228,1109,-1
-101,372,1062,-1
-99,425,1036,-1
0,329,908,-1
34,208,819,-1
59,162,746,-1
63,152,734,-1
90,118,759,-1
174,155,838,-1
231,186,899,-1
244,238,1000,-1
367,287,1115,-1
442,124,998,-1
265,148,1019,-1
383,380,1132,-1
465,410,1068,-1
442,402,997,-1
330,339,897,-1
240,272,766,-1
139,191,676,-1
52,181,684,-1
30,212,729,-1
6,233,820,-1
-10,309,942,-1
-27,319,1020,-1
-59,316,1114,-1
-79,294,1132,-1
-92,557,1357,-1
150,455,1170,-1
-4,359,1010,-1
-100,598,1048,-1
-14,511,962,-1
75,303,814,-1
79,245,808,-1
90,192,766,-1
94,155,768,-1
144,167,838,-1
218,200,884,-1
213,182,902,-1
212,297,1025,-1
324,240,1033,-1
224,63,912,-1
262,405,1191,-1
386,492,1230,-1
453,335,1122,-1
345,311,1025,-1
204,160,826,-1
94,109,721,-1
-12,119,702,-1
-71,120,722,-1
-64,210,831,-1
-29,274,946,-1
-10,241,1008,-1
8,243,1109,-1
27,231,1138,-1
-106,184,1093,-1
-54,317,1165,-1
-128,265,1075,-1
-179,470,1127,-1
-43,495,1119,-1
85,301,943,-1
63,154,802,-1
42,142,760,-1
40,93,717,-1
82,99,798,-1
178,188,904,-1
208,167,923,-1
247,287,1073,-1
332,192,1027,-1
226,260,1146,-1
349,424,1203,-1
259,345,1127,-1
274,414,1122,-1
230,234,941,-1
137,146,786,-1
7,162,742,-1
-62,157,738,-1
-89,114,774,-1
-53,213,910,-1
-17,196,965,-1
-49,158,1023,-1
-68,227,1145,-1
-43,177,1097,-1
-156,227,1161,-1
-4,412,1222,-1
-70,186,1072,-1
-101,414,1116,-1
19,351,1030,-1
89,123,821,-1
60,78,742,-1
28,138,742,-1
51,137,761,-1
138,190,873,-1
256,245,994,-1
311,227,1064,-1
416,214,1116,-1
299,40,1056,-1
416,274,1123,-1
257,203,1048,-1
261,439,1152,-1
367,427,1138,-1
322,146,865,-1
71,94,754,-1
-95,159,746,-1
-175,141,734,-1
-157,112,799,-1
-99,168,909,-1
-98,195,975,-1
-113,179,1050,-1
-115,186,1095,-1
-210,201,1136,-1
-67,368,1187,-1
-182,236,1088,-1
-214,450,1112,-1
-28,427,1069,-1
107,350,939,-1
121,245,838,-1
132,149,766,-1
108,99,768,-1
121,125,863,-1
198,133,953,-1
276,145,1056,-1
388,150,1091,-1
319,0,988,-1
280,265,1130,-1
290,290,1139,-1
309,354,1146,-1
371,285,1084,-1
254,169,929,-1
113,53,783,-1
-30,33,751,-1
-56,35,760,-1
-21,-5,804,-1
78,47,914,-1
141,93,1025,-1
106,33,1063,-1
80,73,1154,-1
56,34,1145,-1
15,100,1216,-1
29,81,1129,-1
-196,136,1054,-1
-164,339,1085,-1
71,384,1071,-1
171,222,895,-1
154,128,806,-1
98,70,773,-1
83,45,770,-1
104,22,833,-1
165,53,924,-1
234,109,994,-1
363,149,1096,-1
434,12,1033,-1
269,104,1119,-1
443,345,1211,-1
379,285,1133,-1
397,285,1082,-1
277,172,945,-1
191,112,801,-1
70,120,752,-1
2,135,762,-1
12,131,806,-1
66,196,883,-1
101,201,954,-1
94,149,938,-1
-31,127,949,-1
-151,201,1043,-1
-148,218,1066,-1
-216,216,1161,-1
135,650,1351,-1
134,453,1194,-1
77,564,1113,-1
32,666,1064,-1
123,488,888,-1
149,322,732,-1
165,254,698,-1
150,211,681,-1
159,197,713,-1
209,251,842,-1
252,171,870,-1
271,92,911,-1
361,75,959,-1
456,217,1079,-1
540,396,1162,-1
474,404,1157,-1
387,558,1170,-1
287,485,1072,-1
186,276,885,-1
66,160,740,-1
-18,78,689,-1
-45,83,696,-1
-46,131,792,-1
6,233,943,-1
36,226,1033,-1
2,262,1141,-1
-11,318,1232,-1
-33,219,1181,-1
-106,187,1193,-1
-144,223,1163,-1
-171,388,1142,-1
-37,568,1132,-1
127,403,952,-1
154,310,808,-1
153,200,716,-1
138,105,686,-1
162,53,739,-1
242,-18,808,-1
290,-32,867,-1
353,114,1016,-1
379,-17,1014,-1
302,45,1186,-1
391,278,1179,-1
221,281,1127,-1
202,331,1143,-1
169,243,1003,-1
134,111,877,-1
32,36,792,-1
-65,74,779,-1
-120,83,830,-1
-88,66,900,-1
-32,130,982,-1
-51,146,1052,-1
-65,192,1170,-1
-159,214,1200,-1
-70,426,1330,-1
-14,269,1190,-1
-115,264,1082,-1
-187,370,1036,-1
-74,342,934,-1
27,155,766,-1
41,96,709,-1
-1,96,725,-1
6,153,837,-1
137,240,1000,-1
310,248,1020,-1
403,316,1138,-1
509,202,1042,-1
393,-64,919,-1
433,207,1019,-1
361,284,1000,-1
368,385,1059,-1
311,302,973,-1
101,266,899,-1
-92,249,821,-1
-144,253,751,-1
-151,167,737,-1
-157,158,815,-1
-130,226,951,-1
-141,156,1061,-1
-177,125,1149,-1
-214,279,1301,-1
-6,552,1407,-1
-111,36,1127,-1
-279,254,1090,-1
-255,375,1015,-1
-175,163,830,-1
-75,179,802,-1
-19,180,813,-1
48,46,765,-1
132,36,843,-1
165,36,926,-1
189,27,974,-1
222,26,1056,-1
310,-56,1049,-1
213,-50,1093,-1
267,261,1164,-1
209,266,1147,-1
304,306,1092,-1
311,240,938,-1
221,110,773,-1
81,92,720,-1
-2,54,807,-1
22,-94,907,-1
101,-221,935,-1
156,-157,1016,-1
89,-118,1092,-1
38,-142,1089,-1
-157,14,1211,-1
-113,98,1172,-1
-177,136,1228,-1
-52,262,1247,-1
119,160,1063,-1
167,136,916,-1
178,86,810,-1
209,55,805,-1
244,17,823,-1
206,11,848,-1
157,101,981,-1
201,135,1064,-1
395,83,1087,-1
406,-33,1112,-1
478,136,1119,-1
436,132,1063,-1
412,215,1019,-1
325,265,984,-1
-7,264,908,-1
-157,250,864,-1
-141,62,785,-1
-84,24,789,-1
-32,-40,838,-1
83,-47,876,-1
66,-239,926,-1
-3,-397,1122,-1
-5,73,1396,-1
-275,305,1438,-1
-228,468,1103,-1
-476,117,956,-1
-357,-3,1069,-1
-96,293,1147,-1
33,125,952,-1
23,-47,801,-1
-82,-48,756,-1
-122,-37,790,-1
-107,58,920,-1
-9,67,988,-1
26,0,1004,-1
76,88,1073,-1
36,-31,1103,-1
222,81,1148,-1
154,53,1101,-1
136,49,1020,-1
244,82,1045,-1
262,21,918,-1
147,-15,908,-1
14,-69,903,-1
-65,-131,821,-1
-63,-90,876,-1
-56,-57,937,-1
-39,-70,984,-1
-90,-77,1078,-1
-86,-86,1152,-1
-162,-61,1187,-1
-141,94,1197,-1
-266,62,1057,-1
-391,178,1062,-1
-266,333,1202,-1
28,399,1168,-1
155,215,949,-1
190,88,819,-1
173,0,740,-1
146,-54,745,-1
153,-62,801,-1
229,-3,876,-1
253,128,1041,-1
422,253,1165,-1
414,91,1165,-1
493,447,1210,-1
311,511,1148,-1
263,396,1079,-1
256,283,970,-1
232,171,830,-1
134,84,737,-1
31,105,730,-1
-29,120,756,-1
-48,98,826,-1
-15,127,950,-1
-17,123,1028,-1
-53,187,1135,-1
-111,156,1178,-1
-190,317,1292,-1
-41,342,1245,-1
-82,275,1217,-1
42,414,1202,-1
190,226,1022,-1
202,111,848,-1
190,66,738,-1
162,23,701,-1
154,63,739,-1
154,51,793,-1
137,112,892,-1
147,200,1028,-1
297,270,1036,-1
244,70,1106,-1
437,378,1150,-1
431,187,1124,-1
576,215,1092,-1
576,159,1010,-1
410,98,753,-1
168,111,674,-1
34,212,729,-1
-48,176,750,-1
-50,145,834,-1
-6,79,965,-1
-4,131,1118,-1
-17,183,1320,-1
-71,88,1448,-1
38,281,1485,-1
4,175,1294,-1
-69,301,1208,-1
41,325,1064,-1
140,163,831,-1
144,43,685,-1
180,20,688,-1
200,-47,714,-1
238,-82,775,-1
291,-83,864,-1
352,-10,956,-1
416,-36,1043,-1
484,-124,1003,-1
362,-33,1088,-1
297,207,1129,-1
222,312,1252,-1
330,236,1193,-1
291,93,982,-1
124,60,812,-1
-33,54,732,-1
-162,40,704,-1
-212,-16,736,-1
-244,18,810,-1
-270,33,937,-1
-270,-54,1075,-1
-268,-49,1183,-1
-256,-75,1270,-1
-200,-6,1387,-1
-251,44,1349,-1
-296,188,1309,-1
-153,256,1174,-1
0,160,933,-1
7,94,774,-1
44,134,738,-1
101,93,782,-1
121,0,832,-1
147,65,875,-1
119,104,921,-1
155,137,1023,-1
164,18,1058,-1
259,173,1126,-1
184,326,1201,-1
192,303,1203,-1
251,264,1172,-1
209,181,1040,-1
-4,65,934,-1
-100,64,848,-1
-179,35,813,-1
-201,5,863,-1
-188,41,927,-1
-193,3,978,-1
-226,-10,1084,-1
-169,36,1198,-1
-161,-34,1168,-1
-175,-44,1140,-1
-153,113,1131,-1
-201,373,1141,-1
-222,468,1113,-1
-114,368,1026,-1
15,284,897,-1
89,149,810,-1
103,46,799,-1
128,11,845,-1
177,-42,888,-1
202,-18,925,-1
189,106,1059,-1
325,147,1178,-1
348,-77,1078,-1
345,121,1130,-1
268,218,1184,-1
324,219,1169,-1
321,157,1047,-1
91,49,887,-1
-135,49,871,-1
-257,33,847,-1
-235,-6,813,-1
-186,9,830,-1
-225,23,876,-1
-303,-49,933,-1
-387,-140,1040,-1
-443,-196,1043,-1
-382,-92,1139,-1
-380,-90,1115,-1
-537,-14,1068,-1
-423,238,1125,-1
-197,191,992,-1
-62,187,903,-1
-7,102,827,-1
2,-11,767,-1
-25,-108,787,-1
24,-83,900,-1
66,-4,978,-1
97,105,1131,-1
190,64,1180,-1
162,73,1210,-1
89,299,1185,-1
-80,274,1168,-1
-28,345,1170,-1
0,188,1024,-1
-41,-13,822,-1
-161,-22,756,-1
-248,21,775,-1
-273,-36,824,-1
-253,-51,902,-1
-261,-36,977,-1
-275,-41,1060,-1
-304,-30,1132,-1
-319,155,1317,-1
-176,145,1231,-1
-342,160,1186,-1
-312,380,1232,-1
-76,234,1079,-1
0,110,884,-1
10,132,843,-1
27,124,841,-1
86,7,853,-1
162,2,909,-1
168,27,945,-1
163,97,1039,-1
263,77,1071,-1
282,-23,1096,-1
312,212,1149,-1
268,249,1184,-1
345,151,1119,-1
303,29,960,-1
108,-1,846,-1
-66,0,793,-1
-149,7,789,-1
-167,-36,836,-1
-180,-52,928,-1
-210,-35,1037,-1
-215,-60,1116,-1
-150,-50,1176,-1
-17,-96,1134,-1
-250,-255,991,-1
-369,-35,1067,-1
-370,163,1212,-1
-114,347,1238,-1
118,200,1145,-1
160,223,963,-1
146,94,820,-1
147,76,778,-1
169,49,768,-1
228,122,837,-1
232,140,920,-1
324,166,1054,-1
382,-28,1155,-1
465,200,1215,-1
316,341,1326,-1
345,221,1178,-1
353,160,1042,-1
220,55,797,-1
-16,85,741,-1
-167,157,744,-1
-181,162,777,-1
-187,196,859,-1
-219,181,927,-1
-292,162,980,-1
-357,161,1072,-1
-361,164,1151,-1
-330,207,1219,-1
-360,224,1178,-1
-406,382,1220,-1
-172,404,1237,-1
94,240,1066,-1
102,112,848,-1
60,23,708,-1
18,0,661,-1
16,-14,701,-1
65,62,880,-1
145,165,1039,-1
265,207,1196,-1
421,117,1184,-1
286,4,1141,-1
287,356,1171,-1
133,266,1103,-1
253,374,979,-1
239,48,761,-1
120,27,680,-1
43,87,666,-1
-22,50,684,-1
-66,91,811,-1
-68,189,982,-1
-79,161,1082,-1
-103,96,1167,-1
-197,150,1245,-1
-251,293,1346,-1
-150,339,1359,-1
-207,190,1201,-1
-240,329,1164,-1
-105,337,1063,-1
-1,145,825,-1
27,89,698,-1
47,87,650,-1
34,59,639,-1
30,-5,713,-1
45,83,856,-1
66,216,1067,-1
216,261,1227,-1
296,87,1292,-1
334,493,1310,-1
96,497,1194,-1
129,412,1081,-1
238,407,979,-1
188,157,720,-1
58,88,607,-1
3,172,622,-1
-10,151,610,-1
-88,172,674,-1
-186,292,867,-1
-316,328,1033,-1
-345,408,1247,-1
-296,503,1388,-1
-193,547,1407,-1
-41,662,1285,-1
-241,487,1063,-1
-268,652,1002,-1
-158,571,811,-1
-89,324,609,-1
-41,364,614,-1
17,338,599,-1
26,220,629,-1
26,197,782,-1
100,374,942,-1
208,446,1153,-1
437,315,1191,-1
582,239,1167,-1
576,542,1056,-1
420,457,901,-1
409,506,891,-1
476,587,846,-1
338,347,612,-1
131,282,570,-1
16,328,595,-1
-69,307,628,-1
-157,277,741,-1
-202,438,1010,-1
-117,516,1220,-1
-73,275,1213,-1
-148,397,1228,-1
-330,562,1341,-1
-147,654,1238,-1
-209,544,1144,-1
-132,683,1079,-1
3,578,925,-1
25,264,711,-1
0,247,592,-1
3,244,544,-1
26,110,584,-1
97,218,698,-1
223,294,842,-1
370,204,989,-1
532,163,1083,-1
498,223,1087,-1
411,370,1060,-1
330,462,1117,-1
417,515,1122,-1
457,285,981,-1
281,131,794,-1
10,170,721,-1
-109,163,720,-1
-82,111,728,-1
-36,120,831,-1
24,212,1001,-1
52,177,1082,-1
24,132,1132,-1
-106,149,1201,-1
-199,269,1310,-1
-272,314,1273,-1
-336,380,1263,-1
-211,406,1145,-1
44,341,981,-1
130,208,797,-1
114,87,640,-1
83,62,630,-1
107,121,719,-1
178,127,816,-1
224,181,900,-1
308,260,1038,-1
357,181,1110,-1
460,340,1129,-1
298,479,1169,-1
354,435,1144,-1
375,228,950,-1
172,172,765,-1
-95,211,673,-1
-165,186,721,-1
-89,126,793,-1
14,108,958,-1
64,135,1105,-1
-15,112,1154,-1
-80,149,1241,-1
-139,168,1219,-1
-86,355,1264,-1
-181,389,1179,-1
-201,436,1081,-1
-86,433,1021,-1
102,376,949,-1
184,232,845,-1
167,46,727,-1
147,7,719,-1
192,-11,759,-1
269,-21,832,-1
312,35,885,-1
330,58,933,-1
412,1,949,-1
357,41,1056,-1
429,265,1122,-1
407,274,1139,-1
535,323,1162,-1
465,242,969,-1
216,109,767,-1
15,136,793,-1
-34,55,825,-1
23,83,940,-1
64,116,1042,-1
33,116,1095,-1
23,115,1148,-1
60,136,1154,-1
-139,124,1166,-1
-46,308,1225,-1
-72,286,1135,-1
-99,340,1116,-1
41,344,1097,-1
181,197,951,-1
184,109,851,-1
184,75,796,-1
187,-14,736,-1
212,-44,760,-1
209,-23,815,-1
179,32,916,-1
223,17,995,-1
245,-58,1094,-1
241,313,1217,-1
205,453,1325,-1
335,269,1184,-1
304,244,1011,-1
127,16,735,-1
-53,60,698,-1
-154,36,710,-1
-159,-1,741,-1
-163,93,865,-1
-181,168,978,-1
-206,165,1085,-1
-153,192,1193,-1
-195,163,1284,-1
-110,186,1242,-1
-231,221,1250,-1
-239,325,1231,-1
-86,361,1173,-1
37,205,962,-1
61,124,818,-1
65,121,771,-1
75,78,765,-1
94,25,801,-1
156,101,890,-1
191,175,1012,-1
281,197,1103,-1
231,88,1116,-1
262,308,1144,-1
144,371,1138,-1
227,384,1086,-1
259,189,899,-1
176,88,724,-1
13,99,701,-1
-94,153,770,-1
-88,104,838,-1
-120,111,937,-1
-182,135,1077,-1
-217,142,1201,-1
-152,120,1279,-1
-115,122,1254,-1
-140,142,1217,-1
-248,226,1220,-1
-237,383,1238,-1
-163,387,1180,-1
-30,312,994,-1
69,160,800,-1
100,147,716,-1
109,132,711,-1
119,95,748,-1
196,136,882,-1
287,90,938,-1
322,88,1037,-1
401,67,1079,-1
318,-8,1097,-1
360,237,1174,-1
380,370,1242,-1
404,203,1100,-1
291,184,950,-1
-24,175,856,-1
-264,205,759,-1
-306,141,727,-1
-252,91,747,-1
-209,75,842,-1
-171,57,972,-1
-177,1,1107,-1
-192,29,1205,-1
-271,43,1236,-1
-155,279,1293,-1
-234,180,1239,-1
-215,366,1189,-1
-85,335,1078,-1
11,159,868,-1
36,76,713,-1
33,82,688,-1
61,79,723,-1
101,29,775,-1
144,101,898,-1
241,356,1107,-1
445,307,1140,-1
434,-71,993,-1
435,327,1134,-1
447,574,1158,-1
462,377,1043,-1
436,88,841,-1
322,204,718,-1
143,229,637,-1
-24,298,606,-1
-210,330,723,-1
-262,342,900,-1
-335,242,1022,-1
-344,185,1186,-1
-295,281,1317,-1
-345,368,1412,-1
-47,549,1355,-1
-118,250,1105,-1
-173,483,1063,-1
-95,559,1012,-1
25,365,859,-1
95,279,780,-1
130,214,714,-1
135,170,683,-1
122,161,729,-1
129,175,808,-1
125,197,896,-1
234,278,1041,-1
311,283,1095,-1
380,387,1205,-1
356,519,1206,-1
362,449,1162,-1
355,246,1010,-1
221,187,841,-1
17,157,719,-1
-142,192,677,-1
-207,220,715,-1
-246,205,788,-1
-292,248,920,-1
-297,248,1074,-1
-208,280,1204,-1
-108,234,1262,-1
-161,247,1277,-1
-213,384,1242,-1
-237,524,1173,-1
-111,596,1088,-1
110,503,867,-1
166,299,596,-1
132,283,559,-1
113,359,661,-1
188,395,719,-1
376,360,858,-1
547,148,883,-1
609,156,1127,-1
616,170,1147,-1
501,540,1094,-1
482,592,1049,-1
395,318,976,-1
207,265,859,-1
-24,236,811,-1
-151,138,705,-1
-232,66,700,-1
-177,2,777,-1
-99,-30,896,-1
-54,-21,1020,-1
-49,-17,1153,-1
-232,37,1340,-1
-243,297,1336,-1
-436,356,1339,-1
-327,521,1218,-1
-46,502,1013,-1
101,258,714,-1
106,166,574,-1
67,198,603,-1
67,280,720,-1
176,289,892,-1
426,212,1034,-1
641,42,1082,-1
730,-60,1065,-1
752,224,1098,-1
508,390,1123,-1
483,291,1005,-1
565,314,907,-1
430,276,671,-1
158,238,594,-1
10,345,636,-1
-104,215,676,-1
-222,97,808,-1
-226,188,1007,-1
-163,170,1148,-1
-68,187,1324,-1
-164,290,1420,-1
55,464,1395,-1
-11,374,1311,-1
-47,629,1195,-1
65,638,1077,-1
202,382,829,-1
272,338,752,-1
307,250,713,-1
305,97,694,-1
302,70,771,-1
364,27,858,-1
393,28,936,-1
437,41,985,-1
364,-23,1031,-1
390,119,1084,-1
345,349,1138,-1
318,352,1094,-1
238,254,972,-1
58,216,875,-1
-134,184,832,-1
-187,70,802,-1
-172,-7,823,-1
-96,0,852,-1
-107,40,927,-1
-146,26,1026,-1
-223,77,1105,-1
-272,106,1160,-1
-314,14,1033,-1
-464,80,1038,-1
-540,261,1152,-1
-474,403,1182,-1
-194,453,1133,-1
33,289,966,-1
108,71,762,-1
82,42,744,-1
60,-3,785,-1
74,19,892,-1
166,77,1033,-1
226,180,1143,-1
205,176,1179,-1
229,191,1214,-1
176,362,1196,-1
154,434,1188,-1
244,306,1067,-1
236,146,837,-1
99,74,671,-1
-86,110,616,-1
-183,132,615,-1
-213,176,697,-1
-254,263,863,-1
-250,300,1051,-1
-266,191,1128,-1
-319,173,1255,-1
-346,175,1339,-1
-231,163,1138,-1
-432,234,1056,-1
-532,381,1041,-1
-373,439,1049,-1
-168,346,942,-1
-121,209,852,-1
-130,141,845,-1
-86,186,888,-1
-25,101,895,-1
89,78,994,-1
170,41,1061,-1
194,-7,1071,-1
74,-190,1029,-1
-52,69,1086,-1
-149,118,1119,-1
12,193,1161,-1
196,216,1164,-1
127,38,927,-1
-75,-31,840,-1
-185,-60,736,-1
-275,-124,724,-1
-336,-86,829,-1
-345,34,955,-1
-361,91,1079,-1
-356,138,1188,-1
-315,265,1352,-1
-144,263,1306,-1
-201,192,1204,-1
-274,260,1187,-1
-125,210,1035,-1
-2,93,800,-1
33,116,734,-1
53,93,697,-1
48,47,707,-1
70,87,853,-1
151,180,1016,-1
263,194,1119,-1
363,51,1093,-1
262,24,1183,-1
319,177,1162,-1
222,421,1280,-1
217,290,1172,-1
142,110,968,-1
-2,56,793,-1
-199,37,725,-1
-297,26,732,-1
-313,36,790,-1
-289,35,898,-1
-267,-6,980,-1
-250,-5,1089,-1
-163,27,1207,-1
-117,-18,1227,-1
-144,-4,1186,-1
-319,91,1201,-1
-339,238,1215,-1
-170,269,1143,-1
-37,184,946,-1
22,150,790,-1
47,104,730,-1
61,53,727,-1
106,50,838,-1
156,146,995,-1
219,187,1123,-1
352,114,1177,-1
377,-14,1137,-1
337,110,1159,-1
268,124,1087,-1
323,140,1070,-1
372,117,1044,-1
215,-12,885,-1
10,-11,837,-1
-118,-13,815,-1
-131,-134,754,-1
-134,-130,768,-1
-139,-40,877,-1
-138,-33,974,-1
-113,-9,1103,-1
-115,-34,1160,-1
-164,34,1254,-1
-128,34,1274,-1
-165,106,1262,-1
-115,211,1294,-1
61,204,1193,-1
171,89,995,-1
189,11,827,-1
167,-8,739,-1
178,-14,739,-1
225,-41,774,-1
226,-1,858,-1
216,111,1043,-1
297,99,1152,-1
312,-7,1193,-1
343,133,1240,-1
333,162,1182,-1
382,169,1116,-1
410,66,988,-1
307,-66,818,-1
129,-67,749,-1
9,-45,698,-1
-88,-36,743,-1
-195,43,874,-1
-269,83,1013,-1
-291,66,1070,-1
-281,-17,1097,-1
-245,-57,1112,-1
-329,-127,1057,-1
-365,55,1222,-1
-382,142,1280,-1
-265,187,1268,-1
-76,176,1145,-1
38,-37,853,-1
48,-119,684,-1
26,-36,690,-1
18,-86,727,-1
37,-59,798,-1
10,109,967,-1
-35,237,1153,-1
96,329,1295,-1
66,284,1285,-1
106,529,1148,-1
-46,498,1155,-1
102,544,1142,-1
157,139,945,-1
58,-44,817,-1
-59,5,768,-1
-113,27,729,-1
-123,17,750,-1
-144,48,806,-1
-208,91,915,-1
-240,118,1043,-1
-223,184,1194,-1
-304,212,1293,-1
-181,368,1317,-1
-324,366,1283,-1
-277,575,1261,-1
-100,281,1011,-1
-1,100,745,-1
-12,88,621,-1
-58,145,609,-1
-68,173,716,-1
29,306,909,-1
209,233,960,-1
236,197,1049,-1
325,297,1210,-1
232,-28,1051,-1
337,356,1118,-1
233,490,1204,-1
281,460,1082,-1
233,314,931,-1
102,199,777,-1
-46,158,748,-1
-108,191,844,-1
-97,83,869,-1
-144,71,865,-1
-253,180,945,-1
-290,200,1004,-1
-197,312,1115,-1
-321,463,1250,-1
-80,634,1284,-1
-121,433,1132,-1
-147,651,1123,-1
-31,457,987,-1
108,289,824,-1
133,268,774,-1
124,203,732,-1
151,250,761,-1
257,258,815,-1
410,155,895,-1
466,32,996,-1
523,59,1095,-1
429,-27,1092,-1
433,412,1143,-1
369,599,1171,-1
418,288,1003,-1
357,233,844,-1
151,103,719,-1
-94,113,772,-1
-116,88,849,-1
-76,-71,889,-1
-60,-59,952,-1
-82,-29,1013,-1
-88,-44,1053,-1
-87,-12,1097,-1
-228,8,1105,-1
-192,163,1198,-1
-233,52,1130,-1
-308,193,1145,-1
-252,256,1162,-1
-87,91,965,-1
-18,-18,808,-1
11,-37,762,-1
56,-102,763,-1
88,-142,841,-1
108,-68,983,-1
90,72,1101,-1
145,137,1147,-1
42,-16,1084,-1
63,253,1201,-1
87,320,1239,-1
190,190,1164,-1
232,210,1076,-1
134,-42,840,-1
1,-66,762,-1
-91,-3,767,-1
-137,-54,782,-1
-156,-15,870,-1
-175,38,960,-1
-197,28,1073,-1
-191,103,1194,-1
-202,35,1169,-1
-288,22,1199,-1
-314,15,1137,-1
-362,166,1133,-1
-243,313,1182,-1
-14,226,1023,-1
48,117,857,-1
76,66,756,-1
66,11,721,-1
44,-36,761,-1
51,8,887,-1
92,36,993,-1
177,123,1173,-1
333,90,1193,-1
211,-5,1089,-1
160,311,1123,-1
32,382,1157,-1
99,448,1194,-1
194,242,1105,-1
206,72,911,-1
92,-31,756,-1
-16,34,721,-1
-60,5,737,-1
-49,55,847,-1
13,173,1000,-1
23,155,1045,-1
-5,152,1152,-1
-27,110,1208,-1
-192,56,1176,-1
-262,185,1228,-1
-224,116,1162,-1
-212,174,1094,-1
-141,228,1060,-1
-12,130,904,-1
32,93,807,-1
43,103,779,-1
47,62,785,-1
85,69,851,-1
183,132,949,-1
251,137,1040,-1
328,130,1119,-1
327,84,1115,-1
257,157,1115,-1
165,475,1154,-1
170,474,1053,-1
145,346,918,-1
54,263,809,-1
-28,35,697,-1
-71,-14,779,-1
-41,-30,838,-1
-10,-42,909,-1
33,46,1027,-1
18,55,1067,-1
-46,106,1115,-1
-89,99,1155,-1
-189,149,1195,-1
-126,363,1326,-1
-211,167,1199,-1
-239,326,1215,-1
-131,221,1081,-1
-36,111,914,-1
0,116,829,-1
31,88,765,-1
33,38,737,-1
31,53,795,-1
59,73,856,-1
29,136,952,-1
97,264,1137,-1
205,134,1175,-1
288,272,1238,-1
215,448,1270,-1
237,337,1132,-1
279,254,1052,-1
230,59,868,-1
59,7,781,-1
-46,-22,735,-1
-48,-63,714,-1
-18,-1,820,-1
-50,61,931,-1
-127,61,1004,-1
-218,81,1149,-1
-325,36,1218,-1
-345,104,1227,-1
-487,196,1215,-1
-430,268,1138,-1
-236,336,1095,-1
8,295,951,-1
98,178,793,-1
122,142,762,-1
124,87,770,-1
166,73,865,-1
212,95,966,-1
257,141,1065,-1
343,183,1165,-1
361,93,1087,-1
221,182,1125,-1
195,257,1096,-1
219,366,1150,-1
253,365,1117,-1
204,206,913,-1
34,154,784,-1
-80,131,694,-1
-143,19,657,-1
-221,-17,766,-1
-247,7,891,-1
-286,11,1028,-1
-285,28,1185,-1
-200,60,1257,-1
-287,31,1228,-1
-245,245,1240,-1
-294,102,1038,-1
-334,232,1004,-1
-249,385,1004,-1
-96,259,859,-1
-31,213,799,-1
51,227,790,-1
57,76,761,-1
64,70,849,-1
92,86,937,-1
89,105,988,-1
115,210,1167,-1
229,201,1218,-1
160,275,1204,-1
214,589,1350,-1
213,434,1196,-1
257,321,1034,-1
240,315,927,-1
166,110,710,-1
41,50,652,-1
-32,65,665,-1
-69,27,724,-1
-75,65,858,-1
-89,133,1015,-1
-85,80,1117,-1
-89,76,1191,-1
-239,75,1206,-1
-156,218,1247,-1
-289,87,1136,-1
-316,272,1126,-1
-221,259,1072,-1
-65,186,895,-1
-8,104,786,-1
35,120,754,-1
60,27,735,-1
134,16,815,-1
177,128,935,-1
220,233,1043,-1
241,321,1174,-1
266,224,1160,-1
257,352,1201,-1
231,468,1118,-1
146,473,1035,-1
151,405,959,-1
159,325,826,-1
51,216,692,-1
-88,163,745,-1
-100,89,871,-1
-36,21,974,-1
-5,33,1029,-1
-50,83,1064,-1
-99,117,1091,-1
-217,160,1083,-1
-274,426,1246,-1
-214,568,1247,-1
-280,492,1111,-1
-218,502,1098,-1
-31,307,924,-1
65,144,774,-1
73,149,756,-1
77,112,720,-1
53,43,750,-1
57,107,858,-1
91,165,960,-1
106,221,1084,-1
209,269,1173,-1
234,181,1107,-1
142,220,1146,-1
183,342,1115,-1
154,463,1127,-1
195,332,1031,-1
164,200,861,-1
15,128,727,-1
-150,133,703,-1
-253,108,717,-1
-260,147,846,-1
-190,196,1007,-1
-140,146,1080,-1
-120,149,1166,-1
-129,129,1185,-1
-269,92,1177,-1
-212,256,1170,-1
-312,242,1065,-1
-333,441,1083,-1
-206,372,1004,-1
-71,187,847,-1
-9,129,792,-1
22,117,741,-1
43,95,757,-1
99,92,807,-1
213,155,885,-1
227,206,964,-1
267,320,1096,-1
349,207,1100,-1
312,263,1132,-1
277,464,1189,-1
241,569,1188,-1
242,474,1070,-1
179,339,880,-1
52,253,768,-1
-68,193,732,-1
-162,126,745,-1
-175,93,842,-1
-184,155,965,-1
-197,128,1039,-1
-179,134,1118,-1
-120,178,1175,-1
-248,131,1138,-1
-180,318,1183,-1
-218,205,1097,-1
-194,402,1110,-1
-82,358,1073,-1
37,218,945,-1
82,119,869,-1
84,50,792,-1
73,7,781,-1
79,-22,830,-1
123,-1,907,-1
146,30,1004,-1
208,91,1118,-1
260,3,1114,-1
319,136,1146,-1
233,166,1158,-1
252,190,1093,-1
368,189,1089,-1
361,30,901,-1
183,-14,838,-1
59,32,845,-1
-9,-33,841,-1
-33,-46,903,-1
-19,-9,975,-1
-32,-27,1017,-1
-24,-63,1060,-1
-42,-84,1081,-1
-143,-174,1012,-1
-261,-122,1038,-1
-313,13,1188,-1
-289,127,1244,-1
-133,203,1287,-1
50,177,1110,-1
111,-36,823,-1
112,-33,752,-1
144,-13,738,-1
201,-111,754,-1
250,-68,842,-1
200,13,900,-1
209,72,1031,-1
288,-18,1100,-1
324,28,1111,-1
336,351,1392,-1
398,308,1324,-1
486,206,1113,-1
451,137,856,-1
243,82,655,-1
22,77,662,-1
-118,73,668,-1
-206,63,786,-1
-171,89,957,-1
-42,110,1111,-1
20,26,1165,-1
49,82,1209,-1
-103,176,1281,-1
-109,211,1218,-1
-208,218,1107,-1
-262,383,1096,-1
-151,324,981,-1
-2,214,827,-1
112,121,739,-1
143,12,658,-1
158,-62,651,-1
148,25,834,-1
152,153,1072,-1
124,316,1118,-1
165,408,1190,-1
258,218,1088,-1
178,227,1078,-1
141,534,1097,-1
116,557,1075,-1
226,495,993,-1
212,216,865,-1
128,125,787,-1
29,76,744,-1
-61,29,747,-1
-119,4,844,-1
-134,56,947,-1
-160,141,1073,-1
-173,204,1137,-1
-147,190,1177,-1
-210,126,1167,-1
-183,248,1196,-1
-230,140,1080,-1
-330,268,1025,-1
-345,395,1049,-1
-143,431,977,-1
-19,204,817,-1
24,184,743,-1
25,183,720,-1
17,167,753,-1
37,241,876,-1
112,291,1012,-1
201,287,1128,-1
353,221,1144,-1
257,97,1088,-1
257,360,1108,-1
187,352,1087,-1
249,397,1099,-1
276,228,976,-1
162,86,846,-1
21,61,772,-1
-78,69,745,-1
-120,62,789,-1
-110,71,888,-1
-80,44,972,-1
-108,101,1082,-1
-126,98,1172,-1
-142,41,1150,-1
-278,35,1158,-1
-259,122,1192,-1
-256,234,1215,-1
-198,292,1199,-1
-60,277,1118,-1
39,115,923,-1
56,58,819,-1
70,51,794,-1
121,-25,776,-1
194,-11,819,-1
228,30,850,-1
188,135,970,-1
236,153,1066,-1
227,7,1098,-1
302,185,1191,-1
250,351,1303,-1
287,286,1233,-1
235,211,1079,-1
107,81,873,-1
-30,4,768,-1
-134,-26,748,-1
-159,-82,783,-1
-166,-79,860,-1
-154,-48,941,-1
-156,-53,1034,-1
-116,-8,1137,-1
-163,-12,1184,-1
-144,132,1258,-1
-274,121,1182,-1
-288,320,1177,-1
-161,282,1124,-1
4,247,958,-1
29,149,817,-1
38,159,777,-1
29,121,789,-1
76,86,876,-1
172,97,996,-1
244,45,1039,-1
278,72,1111,-1
341,72,1094,-1
164,-3,1066,-1
285,271,1202,-1
302,300,1163,-1
287,344,1088,-1
224,221,925,-1
132,153,788,-1
-30,83,740,-1
-150,65,758,-1
-185,25,811,-1
-144,43,925,-1
-36,66,1043,-1
-5,-47,1040,-1
-82,0,1138,-1
-170,-18,1159,-1
-314,83,1233,-1
-242,291,1245,-1
-334,147,1081,-1
-334,324,1123,-1
-175,204,1034,-1
-68,52,887,-1
-45,33,842,-1
-14,18,798,-1
-1,-61,768,-1
16,-34,827,-1
51,21,888,-1
60,56,971,-1
170,159,1104,-1
214,17,1114,-1
311,250,1252,-1
245,266,1221,-1
206,301,1176,-1
243,222,1111,-1
205,172,979,-1
61,62,844,-1
-83,103,818,-1
-110,83,793,-1
-89,5,804,-1
-61,36,884,-1
-96,58,957,-1
-126,52,1050,-1
-111,61,1130,-1
-35,38,1123,-1
-293,-30,1123,-1
-261,136,1198,-1
-280,43,1120,-1
-291,284,1156,-1
-148,252,1078,-1
-27,113,897,-1
11,99,825,-1
28,122,821,-1
86,66,843,-1
176,85,912,-1
216,112,981,-1
248,167,1083,-1
276,62,1105,-1
308,65,1198,-1
323,181,1168,-1
227,239,1132,-1
200,133,1014,-1
177,139,908,-1
88,13,779,-1
-31,-6,741,-1
-90,1,732,-1
-133,-35,814,-1
-108,8,941,-1
-90,-6,1019,-1
-121,-28,1100,-1
-158,-6,1176,-1
-319,-21,1221,-1
-185,142,1291,-1
-296,11,1194,-1
-312,240,1203,-1
-176,194,1114,-1
-35,73,916,-1
6,25,787,-1
21,33,721,-1
47,6,729,-1
81,-33,809,-1
118,17,912,-1
117,83,1036,-1
221,183,1175,-1
258,35,1146,-1
253,181,1213,-1
167,251,1187,-1
132,388,1218,-1
202,257,1120,-1
183,113,927,-1
59,-34,738,-1
-98,-11,682,-1
-184,13,708,-1
-178,-28,779,-1
-166,23,919,-1
-165,80,1076,-1
-177,23,1185,-1
-225,16,1264,-1
-229,80,1326,-1
-250,31,1226,-1
-302,162,1172,-1
-254,169,1102,-1
-152,145,968,-1
-92,43,830,-1
-58,32,751,-1
-42,7,719,-1
-24,-22,791,-1
54,12,919,-1
102,52,994,-1
91,143,1099,-1
163,264,1161,-1
86,189,1101,-1
90,261,1115,-1
86,310,1177,-1
199,318,1152,-1
214,125,955,-1
175,-6,738,-1
68,-34,677,-1
-84,64,739,-1
-213,58,843,-1
-255,93,993,-1
-255,190,1166,-1
-243,140,1232,-1
-195,155,1242,-1
-270,101,1187,-1
-156,293,1202,-1
-248,218,1119,-1
-282,429,1114,-1
-207,408,1085,-1
-65,298,942,-1
-27,115,800,-1
-3,95,773,-1
-12,1,751,-1
-42,-48,795,-1
3,35,915,-1
60,72,977,-1
64,126,1078,-1
168,230,1149,-1
84,164,1116,-1
109,382,1175,-1
82,469,1243,-1
247,445,1196,-1
249,221,971,-1
113,65,715,-1
-34,16,593,-1
-106,40,607,-1
-160,17,720,-1
-145,68,941,-1
-98,91,1146,-1
-141,68,1249,-1
-200,150,1317,-1
-264,76,1228,-1
-293,241,1208,-1
-389,272,1154,-1
-418,436,1162,-1
-282,441,1112,-1
-75,281,910,-1
-2,70,696,-1
-10,51,642,-1
-31,73,703,-1
-21,72,815,-1
45,109,976,-1
133,187,1049,-1
132,185,1122,-1
251,260,1149,-1
207,87,1045,-1
211,264,1088,-1
235,360,1104,-1
271,402,1099,-1
265,270,1014,-1
174,150,854,-1
12,38,721,-1
-87,54,720,-1
-130,68,800,-1
-135,150,955,-1
-92,159,1097,-1
-29,144,1157,-1
-25,109,1177,-1
3,138,1188,-1
-156,32,1070,-1
-265,224,1100,-1
-304,279,1092,-1
-307,420,1080,-1
-200,392,1069,-1
-20,237,893,-1
67,108,760,-1
89,86,722,-1
115,69,755,-1
137,126,871,-1
153,122,951,-1
185,158,1058,-1
344,218,1163,-1
360,199,1143,-1
309,413,1249,-1
375,393,1183,-1
350,252,1023,-1
212,207,836,-1
69,186,745,-1
-45,113,712,-1
-81,78,730,-1
-119,66,825,-1
-119,109,947,-1
-106,114,1025,-1
-91,123,1123,-1
-52,98,1199,-1
-240,75,1244,-1
-40,287,1316,-1
-103,-22,1117,-1
-134,202,1111,-1
-84,213,1083,-1
43,104,907,-1
62,74,830,-1
80,79,773,-1
75,42,750,-1
88,-7,813,-1
157,51,928,-1
201,34,984,-1
234,69,1065,-1
293,68,1082,-1
138,3,1095,-1
217,309,1284,-1
260,257,1265,-1
286,154,1131,-1
136,158,994,-1
9,0,822,-1
-92,-39,743,-1
-141,-3,764,-1
-139,-36,822,-1
-115,-9,898,-1
-122,8,994,-1
-151,-25,1085,-1
-166,-31,1184,-1
-218,-94,1155,-1
-227,20,1200,-1
-306,92,1160,-1
-309,180,1154,-1
-177,222,1160,-1
-33,176,1013,-1
6,47,838,-1
4,39,754,-1
-30,25,716,-1
-19,23,788,-1
43,61,906,-1
92,114,1021,-1
158,199,1183,-1
327,29,1131,-1
148,-46,1121,-1
200,242,1200,-1
154,209,1180,-1
228,274,1170,-1
222,168,1052,-1
106,34,846,-1
-37,1,752,-1
-87,22,748,-1
-97,-55,769,-1
-128,-16,876,-1
-160,28,980,-1
-183,-6,1080,-1
-153,26,1195,-1
-258,16,1225,-1
-165,211,1289,-1
-194,56,1143,-1
-216,222,1092,-1
-184,193,1026,-1
-63,127,879,-1
-32,61,790,-1
-16,95,795,-1
9,38,818,-1
49,34,896,-1
96,90,999,-1
110,102,1047,-1
144,172,1127,-1
266,95,1073,-1
69,49,1015,-1
122,288,1099,-1
153,435,1212,-1
226,316,1155,-1
177,269,1057,-1
89,64,849,-1
-25,-3,762,-1
-117,8,767,-1
-144,-43,796,-1
-140,21,901,-1
-146,69,1005,-1
-145,66,1092,-1
-107,96,1163,-1
-262,166,1280,-1
-73,265,1260,-1
-183,103,1099,-1
-250,291,1059,-1
-206,255,998,-1
-75,157,856,-1
-30,138,783,-1
-36,169,764,-1
-41,154,794,-1
6,134,875,-1
86,207,987,-1
126,209,1067,-1
231,170,1110,-1
106,60,1123,-1
262,324,1208,-1
113,348,1160,-1
135,437,1151,-1
171,360,1061,-1
128,221,886,-1
-6,85,757,-1
-109,109,748,-1
-134,65,764,-1
-128,60,844,-1
-134,79,912,-1
-178,110,986,-1
-193,141,1072,-1
-248,100,1098,-1
-205,414,1396,-1
-32,129,1161,-1
-208,267,1102,-1
-288,309,1069,-1
-156,254,964,-1
-56,193,907,-1
-22,171,861,-1
-28,126,795,-1
-43,112,817,-1
-4,140,879,-1
74,125,907,-1
61,155,959,-1
107,189,1031,-1
199,22,967,-1
-1,166,1110,-1
154,429,1256,-1
176,354,1232,-1
245,411,1224,-1
196,288,1039,-1
99,98,825,-1
-71,130,786,-1
-177,115,753,-1
-236,67,787,-1
-225,102,844,-1
-236,85,846,-1
-318,90,891,-1
-347,131,1019,-1
-491,203,1229,-1
-274,345,1389,-1
-152,238,1265,-1
-181,293,1074,-1
-131,314,1080,-1
94,208,994,-1
179,9,902,-1
180,-56,854,-1
154,-122,787,-1
122,-124,781,-1
107,-30,837,-1
102,65,919,-1
84,121,1032,-1
53,155,1314,-1
338,121,1403,-1
328,92,1232,-1
146,-116,914,-1
23,-43,798,-1
35,91,771,-1
109,90,828,-1
147,115,879,-1
44,94,876,-1
-80,56,914,-1
-97,59,963,-1
-72,56,1013,-1
-40,121,1056,-1
-26,139,1073,-1
-121,87,1016,-1
-251,307,1215,-1
-140,499,1369,-1
-158,229,1193,-1
-376,315,1110,-1
-323,234,998,-1
-175,91,807,-1
-131,109,780,-1
-80,191,812,-1
-54,125,823,-1
-17,137,881,-1
9,131,931,-1
-25,124,991,-1
16,149,1108,-1
116,58,1102,-1
54,127,1178,-1
202,444,1366,-1
268,139,1063,-1
95,130,910,-1
46,302,937,-1
106,174,842,-1
98,100,813,-1
-11,142,859,-1
-86,69,868,-1
-86,35,904,-1
-64,89,969,-1
-25,111,1031,-1
35,69,1036,-1
39,40,1044,-1
19,13,1065,-1
30,58,1134,-1
-37,50,1120,-1
-143,218,1223,-1
-106,319,1185,-1
-151,152,960,-1
-260,260,910,-1
-210,381,925,-1
-46,302,893,-1
34,228,890,-1
49,169,883,-1
39,61,867,-1
53,69,941,-1
90,46,986,-1
124,42,1013,-1
99,65,1034,-1
124,111,1081,-1
165,91,1055,-1
99,170,1146,-1
264,365,1242,-1
254,188,1016,-1
118,324,988,-1
151,358,974,-1
224,243,887,-1
176,228,841,-1
73,134,779,-1
8,110,789,-1
-22,90,845,-1
10,111,930,-1
85,132,1006,-1
90,109,1006,-1
-22,122,1043,-1
-121,126,1059,-1
-299,165,1090,-1
-265,500,1325,-1
-136,407,1228,-1
-187,322,1004,-1
-271,368,941,-1
-238,347,885,-1
-119,243,840,-1
-44,220,859,-1
-8,163,849,-1
-25,124,841,-1
-23,157,885,-1
21,168,921,-1
42,203,954,-1
28,295,1049,-1
167,345,1130,-1
180,187,1079,-1
244,489,1206,-1
209,436,1089,-1
175,477,1068,-1
243,398,1007,-1
222,271,868,-1
103,122,747,-1
-1,100,718,-1
-59,104,748,-1
-77,51,801,-1
-41,159,948,-1
17,174,1032,-1
-23,136,1047,-1
-84,234,1140,-1
-100,212,1113,-1
-187,363,1230,-1
-75,456,1205,-1
-147,288,983,-1
-229,442,949,-1
-176,460,930,-1
-50,349,839,-1
-18,254,804,-1
-23,228,778,-1
-31,179,799,-1
-2,162,866,-1
61,178,948,-1
101,145,964,-1
68,227,1049,-1
163,311,1132,-1
154,173,1146,-1
291,440,1358,-1
297,414,1068,-1
152,298,877,-1
157,301,818,-1
164,243,776,-1
76,234,777,-1
23,194,769,-1
-8,173,810,-1
-8,204,889,-1
-6,231,976,-1
-19,220,1015,-1
-75,225,1071,-1
-93,263,1132,-1
-157,243,1109,-1
-120,517,1296,-1
-12,407,1119,-1
-110,388,1002,-1
-152,479,990,-1
-67,355,895,-1
1,235,827,-1
11,190,797,-1
8,167,767,-1
-5,121,779,-1
46,171,860,-1
119,224,943,-1
126,218,983,-1
167,355,1120,-1
250,207,1047,-1
192,294,1136,-1
263,385,1144,-1
255,392,1086,-1
310,484,1096,-1
329,344,932,-1
259,197,773,-1
145,121,655,-1
34,118,623,-1
-70,155,698,-1
-87,234,864,-1
-20,292,1014,-1
0,221,1064,-1
-67,313,1183,-1
-85,317,1181,-1
-221,333,1197,-1
-106,545,1289,-1
-104,313,1032,-1
-188,412,978,-1
-177,464,953,-1
-80,367,853,-1
-59,259,799,-1
-38,193,768,-1
-32,128,753,-1
-20,93,798,-1
47,132,876,-1
126,171,937,-1
117,180,1009,-1
197,314,1161,-1
232,102,1059,-1
221,289,1198,-1
260,310,1156,-1
155,383,1058,-1
192,460,1060,-1
228,341,925,-1
172,159,774,-1
48,89,708,-1
-21,67,700,-1
-78,-27,723,-1
-43,100,904,-1
27,210,1065,-1
24,125,1132,-1
0,268,1263,-1
-37,202,1220,-1
-114,307,1283,-1
-80,301,1175,-1
-180,238,1023,-1
-177,312,1008,-1
-74,285,926,-1
-47,178,810,-1
-50,139,745,-1
-12,132,723,-1
26,65,733,-1
76,104,829,-1
128,159,922,-1
145,272,1071,-1
281,333,1214,-1
272,137,1102,-1
253,401,1224,-1
190,386,1089,-1
109,452,1055,-1
172,470,1045,-1
200,317,878,-1
162,178,735,-1
70,115,711,-1
25,101,706,-1
-13,67,767,-1
-10,160,898,-1
-24,237,998,-1
-88,295,1147,-1
-26,411,1300,-1
-45,311,1276,-1
69,413,1279,-1
-74,218,1058,-1
-202,399,1010,-1
-242,428,984,-1
-140,349,869,-1
-75,188,762,-1
-28,151,726,-1
-11,97,744,-1
12,68,822,-1
93,142,950,-1
172,196,997,-1
186,250,1112,-1
293,283,1154,-1
180,273,1090,-1
185,503,1089,-1
130,463,1021,-1
208,481,1014,-1
241,320,931,-1
202,168,798,-1
126,81,723,-1
38,162,700,-1
-78,207,713,-1
-155,242,805,-1
-167,332,959,-1
-205,357,1094,-1
-142,477,1246,-1
-113,403,1200,-1
-195,477,1240,-1
-143,481,1118,-1
-236,371,931,-1
-231,530,963,-1
-80,486,911,-1
34,291,782,-1
55,207,757,-1
78,209,757,-1
64,118,745,-1
80,168,843,-1
155,244,924,-1
143,204,967,-1
193,349,1102,-1
175,299,1105,-1
255,573,1222,-1
253,575,1076,-1
158,552,1005,-1
138,455,894,-1
70,309,739,-1
-8,183,676,-1
-83,130,717,-1
-84,154,781,-1
-38,155,869,-1
21,198,993,-1
32,236,1048,-1
-34,228,1105,-1
-112,270,1125,-1
-276,338,1189,-1
-116,601,1240,-1
-199,348,1036,-1
-248,589,1052,-1
-139,542,984,-1
-43,327,792,-1
-47,234,734,-1
-35,221,749,-1
-19,146,785,-1
1,106,840,-1
64,243,957,-1
136,297,1048,-1
290,253,1094,-1
362,133,973,-1
182,212,1058,-1
267,379,1112,-1
239,365,1106,-1
294,433,1107,-1
226,300,961,-1
105,125,781,-1
-16,115,727,-1
-102,97,724,-1
-138,92,787,-1
-109,172,910,-1
-56,225,1002,-1
-59,211,1082,-1
-52,240,1155,-1
-164,211,1168,-1
-82,403,1265,-1
-68,238,1102,-1
-132,352,1047,-1
-141,410,1049,-1
-30,296,921,-1
-20,151,806,-1
-51,132,759,-1
-130,109,752,-1
-200,101,811,-1
-128,202,941,-1
-7,261,1052,-1
80,267,1143,-1
196,272,1168,-1
126,191,1191,-1
264,347,1197,-1
161,274,1049,-1
141,307,1032,-1
186,229,926,-1
176,123,807,-1
69,45,722,-1
-29,89,732,-1
-54,98,766,-1
-88,92,908,-1
-70,173,1014,-1
-79,113,1023,-1
-115,77,1094,-1
-137,116,1138,-1
-267,176,1210,-1
-126,316,1223,-1
-240,141,1020,-1
-310,322,1030,-1
-242,350,1001,-1
-115,282,888,-1
-59,234,820,-1
0,184,789,-1
32,93,805,-1
103,83,904,-1
176,50,977,-1
175,98,1031,-1
233,228,1167,-1
273,106,1140,-1
333,341,1261,-1
228,369,1089,-1
117,493,1084,-1
195,386,984,-1
183,312,870,-1
88,182,757,-1
-40,160,724,-1
-136,149,754,-1
-177,114,829,-1
-144,181,965,-1
-73,195,1039,-1
-106,174,1098,-1
-113,200,1161,-1
-226,185,1161,-1
-126,406,1285,-1
-160,209,1082,-1
-234,371,1025,-1
-196,407,1010,-1
-11,286,859,-1
18,130,740,-1
8,176,763,-1
17,111,776,-1
41,72,863,-1
111,152,991,-1
187,117,996,-1
133,148,1039,-1
187,216,1113,-1
139,60,1027,-1
204,413,1214,-1
261,452,1168,-1
237,429,1090,-1
214,403,1001,-1
163,230,845,-1
111,101,718,-1
25,80,687,-1
-10,65,635,-1
-36,121,765,-1
-9,368,1000,-1
-5,272,1028,-1
-71,288,1180,-1
-126,321,1252,-1
-270,276,1225,-1
-203,466,1327,-1
-160,272,1154,-1
-194,306,1073,-1
-194,353,998,-1
-114,294,874,-1
-63,185,774,-1
-20,156,744,-1
-17,81,707,-1
-28,40,755,-1
20,66,860,-1
119,102,963,-1
141,133,1057,-1
125,206,1172,-1
152,247,1326,-1
292,297,1172,-1
68,335,1013,-1
12,360,991,-1
84,282,898,-1
121,277,867,-1
43,239,820,-1
-35,200,781,-1
-73,174,811,-1
-60,141,902,-1
21,169,1045,-1
-96,202,1105,-1
-154,289,1137,-1
-293,248,1071,-1
-303,468,1214,-1
-242,430,1062,-1
-327,434,974,-1
-324,538,968,-1
-180,396,855,-1
-88,215,785,-1
-60,161,801,-1
-39,124,801,-1
-45,87,865,-1
21,165,962,-1
86,166,992,-1
84,186,1052,-1
145,228,1097,-1
115,103,1006,-1
83,287,1127,-1
182,265,1107,-1
141,327,1069,-1
134,375,1076,-1
145,282,977,-1
117,159,849,-1
27,88,753,-1
-44,104,709,-1
-75,107,735,-1
-73,141,832,-1
-70,241,968,-1
-128,233,1074,-1
-142,292,1233,-1
-127,283,1239,-1
-159,364,1296,-1
-50,381,1224,-1
-172,274,985,-1
-285,466,972,-1
-250,526,927,-1
-150,376,764,-1
-138,267,717,-1
-109,247,741,-1
-67,116,736,-1
-12,59,807,-1
51,197,948,-1
130,247,984,-1
127,342,1059,-1
187,393,1039,-1
44,332,1022,-1
209,625,1169,-1
236,424,1070,-1
262,464,1108,-1
265,367,984,-1
201,187,804,-1
85,81,657,-1
-54,134,636,-1
-117,115,655,-1
-96,156,793,-1
-99,542,1091,-1
-196,486,1131,-1
-204,555,1204,-1
-200,546,1156,-1
-183,672,1165,-1
-133,641,997,-1
-271,568,883,-1
-211,694,884,-1
-86,523,781,-1
-10,329,687,-1
12,273,657,-1
14,182,647,-1
-25,208,703,-1
-3,436,853,-1
49,484,932,-1
119,528,1033,-1
289,527,1114,-1
213,325,1089,-1
312,641,1190,-1
209,576,1067,-1
225,596,1027,-1
211,485,895,-1
155,326,757,-1
61,224,658,-1
-50,190,647,-1
-124,192,696,-1
-148,214,792,-1
-121,302,904,-1
-159,309,1000,-1
-164,323,1094,-1
-300,293,1152,-1
-136,588,1317,-1
-147,272,1092,-1
-259,329,1037,-1
-266,414,998,-1
-160,278,846,-1
-108,158,721,-1
-76,190,715,-1
-52,168,727,-1
-19,181,784,-1
32,249,900,-1
85,281,968,-1
106,320,1085,-1
249,291,1140,-1
129,188,1148,-1
273,521,1171,-1
73,383,1089,-1
167,581,1125,-1
210,435,1008,-1
163,169,822,-1
9,119,723,-1
-111,189,715,-1
-175,128,707,-1
-162,109,765,-1
-165,220,875,-1
-225,293,1003,-1
-187,394,1153,-1
-290,268,1163,-1
-186,536,1313,-1
-207,326,1131,-1
-255,445,1068,-1
-208,513,1052,-1
-80,339,887,-1
-59,168,739,-1
-68,145,687,-1
-87,169,694,-1
-79,171,766,-1
-6,229,897,-1
70,283,985,-1
71,343,1107,-1
195,395,1185,-1
132,93,1033,-1
136,408,1184,-1
123,450,1128,-1
168,505,1154,-1
207,368,1022,-1
131,205,843,-1
0,96,702,-1
-127,153,677,-1
-205,164,700,-1
-223,204,791,-1
-178,297,946,-1
-161,267,999,-1
-186,250,1087,-1
-189,295,1158,-1
-248,325,1199,-1
-198,351,1140,-1
-323,315,1046,-1
-334,522,1074,-1
-179,452,1014,-1
-9,285,883,-1
25,190,787,-1
2,125,715,-1
-25,149,752,-1
3,148,823,-1
62,160,875,-1
63,258,1004,-1
157,385,1156,-1
201,123,1101,-1
303,441,1256,-1
199,327,1101,-1
99,417,1064,-1
136,376,993,-1
126,305,885,-1
42,118,738,-1
-42,118,679,-1
-122,196,709,-1
-142,207,803,-1
-133,223,940,-1
-109,170,1056,-1
-140,116,1171,-1
-163,173,1214,-1
-365,199,1263,-1
0,573,1334,-1
-132,40,965,-1
-289,409,960,-1
-271,484,953,-1
-124,287,818,-1
-33,202,801,-1
-19,190,804,-1
-31,127,785,-1
-13,110,828,-1
15,141,899,-1
38,209,979,-1
110,316,1131,-1
238,170,1079,-1
99,252,1200,-1
279,415,1199,-1
166,286,1098,-1
166,420,1094,-1
166,277,961,-1
101,201,832,-1
-2,122,744,-1
-89,151,732,-1
-142,144,764,-1
-134,138,861,-1
-109,187,950,-1
-143,160,1003,-1
-166,227,1115,-1
-109,247,1154,-1
-249,204,1171,-1
-92,421,1232,-1
-164,132,1011,-1
-258,343,1008,-1
-249,421,1028,-1
-87,289,907,-1
-38,177,824,-1
-18,166,776,-1
-22,160,777,-1
-3,138,816,-1
47,191,905,-1
54,231,998,-1
89,276,1125,-1
207,203,1113,-1
48,97,1076,-1
156,440,1260,-1
224,325,1167,-1
223,339,1115,-1
218,328,1000,-1
197,192,822,-1
119,96,681,-1
8,129,661,-1
-71,160,679,-1
-101,173,771,-1
-114,257,927,-1
-103,327,1069,-1
-120,255,1151,-1
-213,196,1172,-1
-288,459,1381,-1
-92,410,1231,-1
-221,282,1065,-1
-307,455,1024,-1
-287,393,954,-1
-163,252,864,-1
-61,202,838,-1
-13,124,765,-1
-8,61,747,-1
23,101,792,-1
66,96,815,-1
23,138,867,-1
63,332,1056,-1
165,214,1110,-1
227,329,1257,-1
188,471,1247,-1
122,476,1237,-1
195,361,1081,-1
141,224,894,-1
23,107,707,-1
-137,183,691,-1
-239,207,703,-1
-229,185,776,-1
-174,185,892,-1
-205,158,972,-1
-252,224,1118,-1
-254,241,1193,-1
-310,269,1260,-1
-260,372,1213,-1
-358,375,1164,-1
-326,481,1107,-1
-182,389,968,-1
-87,230,779,-1
-28,207,683,-1
-33,210,665,-1
-25,194,751,-1
34,169,897,-1
155,290,1068,-1
228,273,1154,-1
332,126,1157,-1
261,-1,1116,-1
324,171,1128,-1
254,251,1130,-1
351,375,1126,-1
432,116,966,-1
354,72,825,-1
80,82,826,-1
-128,123,873,-1
-178,67,874,-1
-117,21,896,-1
-57,-76,895,-1
-36,-138,911,-1
4,-162,958,-1
-80,-172,1018,-1
-193,-100,1126,-1
-294,111,1269,-1
-319,234,1313,-1
-257,370,1286,-1
-44,420,1187,-1
136,232,937,-1
214,88,772,-1
238,33,722,-1
293,-53,752,-1
355,-4,825,-1
385,5,913,-1
455,-56,936,-1
361,-13,1056,-1
431,112,1123,-1
370,352,1233,-1
362,342,1216,-1
383,293,1143,-1
296,154,958,-1
92,83,846,-1
-60,149,825,-1
-118,92,799,-1
-122,22,827,-1
-123,82,897,-1
-151,97,984,-1
-136,67,1070,-1
-117,37,1134,-1
-160,37,1233,-1
-129,132,1216,-1
-200,160,1225,-1
-202,308,1198,-1
-75,295,1105,-1
61,182,928,-1
132,84,796,-1
140,80,723,-1
125,88,720,-1
132,29,804,-1
226,98,927,-1
290,103,1018,-1
358,161,1058,-1
313,44,1031,-1
278,223,1137,-1
324,298,1233,-1
419,312,1261,-1
489,200,1123,-1
370,76,856,-1
104,29,719,-1
-152,122,727,-1
-268,84,775,-1
-249,78,887,-1
-144,158,1030,-1
-90,99,1082,-1
-95,45,1114,-1
-100,9,1134,-1
-199,-39,1176,-1
-159,84,1199,-1
-297,137,1210,-1
-327,328,1239,-1
-76,329,1174,-1
94,128,954,-1
108,10,776,-1
87,4,732,-1
89,-17,772,-1
134,-103,828,-1
199,-59,888,-1
216,-2,977,-1
274,39,1046,-1
308,-71,1011,-1
184,-17,1072,-1
320,279,1176,-1
350,183,1118,-1
364,178,988,-1
266,188,849,-1
112,146,708,-1
-59,186,694,-1
-147,281,772,-1
-178,281,858,-1
-159,357,974,-1
-128,392,1057,-1
-128,278,1134,-1
-166,273,1211,-1
-344,277,1279,-1
-200,598,1336,-1
-251,325,1193,-1
-269,578,1199,-1
-112,550,1168,-1
68,310,931,-1
103,159,742,-1
99,104,635,-1
38,81,587,-1
-8,131,687,-1
10,238,832,-1
86,298,949,-1
213,337,1120,-1
298,30,1059,-1
243,321,1211,-1
227,366,1229,-1
207,255,1162,-1
184,157,991,-1
97,183,907,-1
47,126,817,-1
33,117,812,-1
13,132,825,-1
12,60,825,-1
28,76,911,-1
5,114,974,-1
-53,102,1035,-1
-159,99,1127,-1
-355,88,1188,-1
-272,79,1152,-1
-265,229,1211,-1
-154,390,1224,-1
-13,248,1126,-1
83,199,993,-1
91,123,859,-1
72,26,747,-1
23,-3,716,-1
38,-69,780,-1
119,-157,855,-1
183,-161,910,-1
127,-44,1028,-1
147,64,1113,-1
27,-15,1126,-1
19,265,1213,-1
67,470,1327,-1
150,320,1222,-1
115,234,1063,-1
-4,37,840,-1
-77,-25,715,-1
-114,-24,686,-1
-123,-66,729,-1
-77,-34,879,-1
-36,-18,1041,-1
-59,-31,1113,-1
-100,-12,1190,-1
-152,30,1219,-1
-174,81,1251,-1
-217,123,1265,-1
-312,164,1267,-1
-226,274,1232,-1
-67,255,1056,-1
41,127,801,-1
83,125,665,-1
74,146,610,-1
99,143,645,-1
182,128,770,-1
243,38,904,-1
384,154,1155,-1
526,8,1210,-1
442,-3,1251,-1
447,206,1305,-1
340,313,1218,-1
301,277,1104,-1
241,223,966,-1
169,125,805,-1
-2,107,742,-1
-123,125,756,-1
-196,134,774,-1
-146,86,841,-1
-60,32,909,-1
-89,104,995,-1
-151,57,1099,-1
-169,83,1180,-1
-248,169,1237,-1
-138,293,1262,-1
-276,172,1104,-1
-373,288,1081,-1
-283,323,1056,-1
-121,239,910,-1
-7,88,753,-1
30,57,687,-1
22,34,669,-1
31,32,728,-1
51,52,822,-1
88,195,1028,-1
277,361,1223,-1
292,149,1195,-1
398,519,1287,-1
214,508,1170,-1
172,444,1123,-1
221,364,1007,-1
172,204,794,-1
40,177,638,-1
-81,258,637,-1
-195,247,673,-1
-269,234,733,-1
-303,314,854,-1
-395,362,935,-1
-456,408,1098,-1
-475,450,1203,-1
-405,571,1290,-1
-363,475,1182,-1
-340,536,1169,-1
-153,477,1060,-1
1,281,874,-1
87,169,747,-1
119,129,686,-1
97,67,620,-1
31,98,652,-1
-24,181,785,-1
-40,327,950,-1
82,538,1190,-1
182,312,1158,-1
180,466,1308,-1
199,530,1244,-1
156,482,1156,-1
168,302,1010,-1
147,253,861,-1
54,153,670,-1
-120,132,567,-1
-263,186,623,-1
-309,179,713,-1
-234,235,840,-1
-180,238,1039,-1
-166,154,1201,-1
-140,206,1334,-1
-235,235,1383,-1
-136,372,1324,-1
-224,269,1141,-1
-284,434,1086,-1
-171,449,1039,-1
-13,232,826,-1
52,83,675,-1
60,45,609,-1
43,2,572,-1
19,56,669,-1
110,257,872,-1
188,347,993,-1
252,450,1153,-1
298,422,1241,-1
246,352,1330,-1
244,461,1237,-1
97,462,1149,-1
171,460,1002,-1
221,321,855,-1
238,163,716,-1
150,97,625,-1
54,109,634,-1
19,94,698,-1
68,114,809,-1
95,134,966,-1
90,160,1134,-1
113,138,1277,-1
-18,113,1315,-1
-22,369,1405,-1
-34,298,1275,-1
-140,226,1102,-1
-193,278,990,-1
-140,268,892,-1
-40,122,761,-1
-2,59,767,-1
37,161,810,-1
78,145,867,-1
140,167,902,-1
198,221,963,-1
256,215,1013,-1
335,227,1049,-1
260,166,1049,-1
295,297,1080,-1
216,326,1078,-1
260,413,1105,-1
280,367,1072,-1
155,123,925,-1
38,80,849,-1
-40,64,761,-1
-86,-26,726,-1
-104,-13,820,-1
-139,39,903,-1
-194,130,1009,-1
-206,182,1139,-1
-320,110,1205,-1
-227,412,1397,-1
-226,188,1221,-1
-370,301,1107,-1
-343,430,1086,-1
-132,317,932,-1
-10,193,791,-1
37,129,723,-1
79,63,709,-1
25,33,762,-1
27,61,880,-1
98,107,988,-1
116,164,1132,-1
215,188,1196,-1
91,145,1232,-1
139,406,1247,-1
55,276,1157,-1
127,248,1051,-1
77,168,939,-1
-39,38,814,-1
-163,21,783,-1
-214,39,799,-1
-215,-14,846,-1
-192,0,1019,-1
-199,-44,1075,-1
-193,-55,1146,-1
-160,-94,1136,-1
-239,-114,1096,-1
-342,36,1081,-1
-388,250,1095,-1
-270,413,1124,-1
-71,321,1024,-1
48,221,882,-1
62,111,771,-1
27,59,739,-1
-23,112,851,-1
51,125,1011,-1
152,-14,1050,-1
110,91,1188,-1
176,69,1191,-1
70,-36,1050,-1
125,294,1115,-1
26,291,1072,-1
104,404,1076,-1
42,239,918,-1
-323,157,783,-1
-454,106,704,-1
-339,25,743,-1
-119,-69,858,-1
88,-82,1055,-1
224,-140,1175,-1
171,-121,1226,-1
75,-65,1253,-1
20,1,1210,-1
-124,14,1163,-1
-175,249,1145,-1
-347,251,1050,-1
-381,360,1036,-1
-230,338,980,-1
-54,139,812,-1
-6,25,729,-1
-3,4,717,-1
-67,-38,775,-1
-48,-21,923,-1
48,167,1156,-1
185,184,1267,-1
312,62,1246,-1
274,76,1126,-1
203,188,1116,-1
190,245,1051,-1
166,295,1021,-1
176,362,1010,-1
58,193,874,-1
-145,131,789,-1
-228,106,744,-1
-183,25,709,-1
-113,17,783,-1
-87,33,932,-1
-128,51,1049,-1
-172,58,1173,-1
-155,112,1188,-1
-236,154,1242,-1
-252,264,1088,-1
-466,361,1016,-1
-336,568,1084,-1
7,552,1070,-1
259,382,896,-1
289,103,689,-1
214,67,753,-1
125,53,844,-1
84,12,926,-1
65,77,1051,-1
110,259,1215,-1
293,344,1289,-1
206,224,1222,-1
255,533,1240,-1
189,436,1119,-1
250,397,1023,-1
298,223,879,-1
278,35,679,-1
141,32,657,-1
21,61,734,-1
-22,-4,789,-1
-43,27,883,-1
-62,112,980,-1
-150,74,1002,-1
-240,92,1070,-1
-363,74,1126,-1
-347,224,1223,-1
-376,156,1192,-1
-396,271,1187,-1
-253,313,1150,-1
-65,193,945,-1
7,84,769,-1
19,95,724,-1
24,78,747,-1
28,27,837,-1
44,61,945,-1
77,213,1131,-1
211,268,1249,-1
283,59,1171,-1
207,275,1241,-1
170,255,1106,-1
175,277,1036,-1
248,230,1005,-1
245,101,863,-1
142,42,744,-1
-33,120,714,-1
-163,156,739,-1
-248,155,808,-1
-244,196,901,-1
-367,163,975,-1
-472,176,1117,-1
-520,156,1247,-1
-349,395,1397,-1
-330,219,1224,-1
-369,418,1158,-1
-268,414,1048,-1
-90,239,863,-1
8,122,735,-1
24,108,681,-1
28,107,690,-1
35,90,754,-1
81,90,908,-1
162,100,1086,-1
300,63,1199,-1
226,138,1284,-1
272,282,1190,-1
27,431,1151,-1
31,476,1121,-1
113,379,994,-1
62,264,807,-1
-91,104,666,-1
-276,132,711,-1
-327,131,793,-1
-239,59,883,-1
-175,57,971,-1
-208,124,1052,-1
-284,145,1123,-1
-378,119,1104,-1
-305,331,1196,-1
-338,277,1134,-1
-275,495,1173,-1
-149,513,1155,-1
-14,368,1018,-1
8,174,840,-1
6,170,760,-1
-2,115,700,-1
20,104,735,-1
14,101,799,-1
44,238,1004,-1
257,237,1142,-1
366,-48,1017,-1
224,279,1260,-1
269,186,1165,-1
197,389,1250,-1
252,329,1128,-1
196,199,885,-1
70,138,672,-1
-107,146,570,-1
-233,214,573,-1
-326,245,713,-1
-303,255,889,-1
-225,297,1067,-1
-156,277,1222,-1
-93,251,1309,-1
-197,319,1335,-1
18,530,1285,-1
-157,259,1091,-1
-176,564,1126,-1
-112,422,1023,-1
-80,264,886,-1
-47,197,784,-1
-47,143,702,-1
-78,120,701,-1
-114,119,775,-1
-50,221,954,-1
46,123,1036,-1
207,155,1167,-1
389,7,1107,-1
272,-31,1075,-1
302,338,1015,-1
187,211,990,-1
336,404,980,-1
321,186,861,-1
161,59,726,-1
-6,46,698,-1
-168,107,741,-1
-227,109,850,-1
-185,116,1033,-1
-36,100,1121,-1
-10,147,1216,-1
18,88,1217,-1
-152,37,1201,-1
-167,345,1339,-1
-231,211,1233,-1
-251,404,1227,-1
-207,348,1134,-1
-123,191,926,-1
-33,103,765,-1
28,73,656,-1
26,38,623,-1
1,32,681,-1
5,45,816,-1
65,73,996,-1
109,260,1296,-1
232,130,1274,-1
32,203,1219,-1
-42,541,1221,-1
-82,517,1103,-1
44,578,1054,-1
54,268,872,-1
-10,136,751,-1
-144,52,708,-1
-221,-24,706,-1
-262,-42,792,-1
-279,-19,905,-1
-249,38,1009,-1
-234,37,1081,-1
-226,48,1097,-1
-426,47,1085,-1
-276,324,1212,-1
-370,258,1176,-1
-326,412,1230,-1
-191,262,1110,-1
-64,145,925,-1
-3,122,774,-1
12,103,712,-1
9,67,729,-1
5,91,815,-1
5,170,927,-1
48,354,1116,-1
186,228,1082,-1
26,169,1096,-1
82,386,1166,-1
30,439,1217,-1
94,379,1176,-1
68,295,1070,-1
-14,80,877,-1
-108,-3,793,-1
-201,30,797,-1
-284,-15,818,-1
-329,27,897,-1
-322,90,970,-1
-284,52,1013,-1
-205,75,1083,-1
-316,105,1170,-1
-131,169,1172,-1
-256,93,1063,-1
-259,129,1067,-1
-180,100,996,-1
-70,50,922,-1
-21,25,858,-1
-7,-26,779,-1
-37,-11,796,-1
-29,21,878,-1
37,60,982,-1
63,105,1036,-1
76,146,1131,-1
3,82,1123,-1
64,304,1218,-1
-14,430,1191,-1
11,498,1234,-1
105,314,1126,-1
130,95,921,-1
21,-13,763,-1
-85,-19,695,-1
-129,-20,709,-1
-113,23,833,-1
-91,73,946,-1
-134,130,1052,-1
-165,138,1144,-1
-204,81,1122,-1
-293,170,1178,-1
-297,290,1153,-1
-364,377,1093,-1
-337,381,1035,-1
-150,271,966,-1
63,217,874,-1
162,71,782,-1
123,24,821,-1
124,49,877,-1
164,80,962,-1
194,137,1036,-1
183,218,1124,-1
231,191,1146,-1
168,160,1169,-1
168,382,1145,-1
128,604,1072,-1
138,360,874,-1
95,153,718,-1
11,35,696,-1
-45,-41,740,-1
-75,-71,831,-1
-90,18,961,-1
-117,103,1049,-1
-168,106,1083,-1
-162,223,1161,-1
-314,183,1152,-1
-206,398,1261,-1
-230,246,1193,-1
-202,389,1159,-1
-112,303,1089,-1
40,142,903,-1
73,71,793,-1
91,72,766,-1
98,7,773,-1
86,-29,838,-1
86,-1,933,-1
81,37,991,-1
134,169,1144,-1
108,191,1169,-1
130,458,1172,-1
-31,591,1151,-1
30,503,1105,-1
142,271,973,-1
171,83,817,-1
117,-1,703,-1
54,3,660,-1
41,65,667,-1
46,137,753,-1
-20,149,842,-1
-138,190,1005,-1
-215,240,1210,-1
-143,216,1288,-1
-228,302,1412,-1
-115,443,1258,-1
-322,529,1200,-1
-275,639,1176,-1
-76,539,1092,-1
62,364,938,-1
100,243,802,-1
84,222,729,-1
68,208,729,-1
90,138,738,-1
97,168,822,-1
135,265,968,-1
245,266,1044,-1
205,190,1099,-1
287,376,1264,-1
267,414,1216,-1
202,531,1191,-1
179,332,993,-1
177,219,767,-1
62,148,563,-1
-110,145,541,-1
-178,178,642,-1
-129,99,688,-1
-46,140,858,-1
-108,357,1174,-1
-190,358,1235,-1
-199,307,1286,-1
-195,296,1418,-1
-164,522,1343,-1
-162,398,982,-1
-321,525,942,-1
-328,674,967,-1
-123,486,834,-1
-7,204,720,-1
7,219,746,-1
25,106,724,-1
30,71,767,-1
68,195,899,-1
121,227,971,-1
122,218,1062,-1
231,299,1130,-1
145,218,1118,-1
244,345,1160,-1
183,277,1061,-1
176,359,1089,-1
233,188,978,-1
209,133,845,-1
88,40,726,-1
-49,78,692,-1
-136,143,753,-1
-115,88,854,-1
-33,52,982,-1
30,90,1091,-1
14,81,1162,-1
4,77,1194,-1
-110,101,1240,-1
-10,320,1326,-1
-72,120,1136,-1
-202,290,1128,-1
-173,328,1125,-1
-24,209,995,-1
9,107,881,-1
22,105,813,-1
12,72,754,-1
17,46,769,-1
52,46,833,-1
114,113,897,-1
91,120,992,-1
212,223,1122,-1
264,91,1148,-1
360,233,1223,-1
286,242,1165,-1
230,288,1128,-1
219,265,986,-1
100,176,836,-1
-20,8,699,-1
-105,23,706,-1
-105,26,745,-1
-48,-44,824,-1
30,-40,939,-1
73,42,1060,-1
73,91,1149,-1
29,4,1170,-1
-136,85,1319,-1
7,239,1308,-1
-119,102,1221,-1
-196,303,1234,-1
-114,222,1178,-1
-4,102,987,-1
31,18,851,-1
56,4,767,-1
4,4,728,-1
-12,41,793,-1
50,104,898,-1
122,147,980,-1
190,224,1116,-1
297,137,1118,-1
201,133,1169,-1
239,326,1146,-1
146,397,1134,-1
210,285,1047,-1
197,181,904,-1
78,77,768,-1
-99,85,728,-1
-168,117,746,-1
-155,49,770,-1
-121,71,865,-1
-101,124,1000,-1
