AccX [mg],AccY,AccZ,Ground Truth
783,784,145,0
850,728,238,0
974,630,258,0
1075,601,216,0
1152,577,203,0
1181,623,231,0
1328,611,240,0
1247,494,186,0
1183,434,141,0
1217,379,73,0
1146,351,55,0
1026,295,21,0
895,250,7,0
826,263,27,0
643,194,6,0
643,194,6,0
643,194,6,0
692,186,-3,0
716,229,28,0
677,314,102,0
805,355,107,0
1031,415,146,0
1364,468,207,0
1392,696,375,0
1263,855,450,0
1012,774,340,0
1014,266,298,0
987,46,313,0
844,225,253,0
725,500,207,0
682,650,271,0
700,613,320,0
731,479,330,0
903,380,294,0
1209,414,176,0
1209,414,176,0
1179,473,195,0
1031,470,196,0
888,455,155,0
914,428,107,0
968,398,75,0
992,353,78,0
859,307,89,0
748,294,101,0
709,300,116,0
713,291,111,0
716,280,116,0
760,289,131,0
851,307,132,0
884,304,143,0
970,342,165,0
1099,398,195,0
1251,512,227,0
770,560,382,0
770,560,382,0
709,504,392,0
905,367,248,0
1002,296,185,0
822,290,221,0
633,402,255,0
557,509,246,0
637,559,240,0
737,479,226,0
808,393,213,0
898,393,220,0
944,466,219,0
1104,545,222,0
1214,507,205,0
1201,491,208,0
1050,464,226,0
1000,483,197,0
982,430,128,0
1033,365,81,0
827,311,69,0
827,311,69,0
721,304,61,0
696,309,81,0
687,284,83,0
688,249,63,0
757,214,59,0
851,214,61,0
965,276,86,0
1125,357,108,0
1144,434,169,0
1269,528,257,0
1119,578,415,0
1006,496,404,0
984,309,277,0
986,86,157,0
811,98,107,0
676,200,112,0
579,418,113,0
534,533,128,0
580,494,151,0
580,494,151,0
810,516,185,0
1058,592,264,0
1157,681,319,0
1212,686,301,0
1258,545,241,0
1207,313,254,0
1093,293,224,0
1051,359,166,0
1131,425,164,0
1009,459,184,0
881,396,124,0
744,318,71,0
694,314,63,0
728,333,90,0
780,297,114,0
850,231,112,0
916,180,144,0
1046,229,175,0
1046,229,175,0
1004,287,168,0
989,381,258,0
955,396,311,0
1085,403,298,0
1205,375,193,0
977,319,117,0
771,320,172,0
756,415,170,0
758,519,92,0
760,572,104,0
773,554,166,0
963,575,215,0
1102,618,216,0
1179,720,237,0
1202,749,259,0
1195,648,256,0
1065,532,283,0
1167,467,257,0
1360,432,143,0
1360,432,143,0
1179,341,142,0
994,285,86,0
875,290,47,0
800,305,43,0
723,255,35,0
687,210,37,0
700,203,43,0
751,237,75,0
819,260,118,0
965,274,116,0
1005,286,75,0
1110,400,130,0
1234,590,285,0
1342,669,318,0
1289,577,162,0
1014,397,184,0
821,144,231,0
691,590,119,0
691,590,119,0
691,590,119,0
604,639,186,0
728,639,253,0
1007,638,265,0
1119,663,241,0
1209,643,258,0
1242,551,254,0
1383,495,218,0
1210,437,197,0
1159,449,190,0
1123,419,107,0
1094,398,59,0
1006,357,47,0
858,275,12,0
727,241,18,0
698,273,44,0
655,259,43,0
694,242,46,0
788,228,61,0
908,228,76,0
946,267,149,0
982,303,194,0
927,336,210,0
1057,438,289,0
1129,529,436,0
1146,504,406,0
1106,462,305,0
1006,359,305,0
859,237,283,0
785,310,247,0
719,437,198,0
665,559,206,0
621,589,279,0
709,545,325,0
931,541,342,0
1088,521,308,0
1116,528,328,0
1257,456,316,0
1199,459,300,0
1105,466,320,0
1068,441,284,0
1080,400,175,0
1157,352,104,0
1068,305,119,0
836,288,120,0
641,316,119,0
537,373,142,0
566,420,163,0
596,258,216,0
703,118,232,0
918,113,257,0
977,129,289,0
925,228,298,0
1033,300,266,0
1029,359,180,0
1202,494,192,0
1076,584,363,0
964,581,332,0
982,578,267,0
970,414,166,0
843,295,159,0
747,328,200,0
681,432,186,0
647,530,171,0
608,568,233,0
708,573,310,0
989,605,338,0
1249,578,285,0
1435,512,274,0
1278,402,300,0
1194,436,305,0
1074,465,275,0
1060,479,201,0
994,417,132,0
1008,361,88,0
945,320,78,0
814,300,48,0
694,274,46,0
688,318,71,0
737,318,108,0
773,304,97,0
884,254,107,0
936,216,142,0
1037,211,140,0
984,232,188,0
1014,315,165,0
887,442,261,0
908,538,360,0
1040,523,382,0
1075,424,328,0
924,276,264,0
810,246,267,0
787,356,256,0
783,541,253,0
698,613,292,0
759,623,319,0
958,594,296,0
1077,598,249,0
1295,636,271,0
1284,639,274,0
1234,598,246,0
1105,551,260,0
1135,507,200,0
1181,430,126,0
1208,345,95,0
1179,290,100,0
1024,243,67,0
896,230,41,0
787,208,62,0
675,161,52,0
635,196,65,0
701,230,61,0
729,216,81,0
774,202,78,0
902,217,65,0
1004,319,83,0
1177,486,179,0
1346,692,384,0
1390,694,411,0
1225,556,282,0
1011,261,332,0
856,21,350,0
786,179,281,0
716,472,202,0
646,672,246,0
623,758,299,0
738,685,307,0
994,667,304,0
1091,611,264,0
1298,643,235,0
1276,364,222,0
1170,376,236,0
1222,391,154,0
1157,417,75,0
1107,390,56,0
902,342,59,0
697,290,24,0
571,279,46,0
530,255,101,0
563,242,116,0
665,241,69,0
834,258,92,0
961,262,151,0
1112,277,126,0
1227,304,148,0
1397,482,233,0
1212,598,378,0
1013,596,416,0
970,503,321,0
1042,312,206,0
874,159,193,0
749,193,191,0
665,367,129,0
589,536,74,0
603,608,79,0
747,604,116,0
977,572,140,0
1029,568,165,0
1187,629,231,0
1234,639,237,0
1344,595,223,0
1174,434,223,0
1169,370,190,0
1194,384,157,0
1151,329,147,0
946,338,136,0
791,295,113,0
718,306,68,0
699,293,80,0
669,245,90,0
692,231,95,0
850,257,102,0
898,242,112,0
960,257,116,0
1059,277,127,0
1160,342,38,0
1142,511,49,0
946,714,175,0
842,802,192,0
872,696,130,0
838,490,124,0
759,313,204,0
671,253,202,0
635,375,191,0
660,534,246,0
806,618,248,0
1089,666,262,0
1163,675,306,0
1277,760,380,0
1286,737,334,0
1263,592,165,0
983,403,65,0
974,323,-25,0
994,381,-39,0
1036,516,-10,0
1000,484,-40,0
842,343,-111,0
703,288,-92,0
646,294,-33,0
654,289,0,0
731,256,-10,0
813,222,-9,0
793,234,52,0
869,304,81,0
990,358,43,0
1300,544,39,0
1265,861,202,0
1075,1062,378,0
906,979,330,0
974,578,231,0
1045,85,257,0
858,-31,268,0
684,236,223,0
572,560,194,0
565,763,249,0
640,705,277,0
808,536,255,0
1023,365,193,0
1072,318,152,0
1195,453,180,0
1134,568,201,0
1090,615,161,0
1022,530,190,0
935,434,158,0
925,386,112,0
994,365,103,0
930,328,101,0
787,305,104,0
704,313,140,0
644,322,141,0
627,306,126,0
688,260,103,0
824,252,123,0
959,289,170,0
1031,320,202,0
1157,326,238,0
1041,338,238,0
981,407,291,0
922,489,403,0
959,506,380,0
1053,404,275,0
905,213,232,0
681,193,234,0
624,266,189,0
640,358,105,0
726,441,73,0
806,476,106,0
813,475,133,0
861,547,198,0
1018,680,266,0
1322,777,252,0
1186,747,243,0
1118,522,305,0
1062,359,360,0
1002,381,286,0
968,414,202,0
1022,425,167,0
937,400,128,0
816,312,90,0
720,302,78,0
693,340,44,0
780,360,0,0
988,339,-1,0
1112,258,-11,0
960,200,8,0
965,268,51,0
996,356,85,0
920,456,153,0
927,435,331,0
736,276,387,0
855,296,432,0
972,259,354,0
874,280,269,0
755,337,286,0
702,378,291,0
726,440,278,0
782,472,275,0
837,473,281,0
1000,529,285,0
1105,564,231,0
1209,620,240,0
1196,552,244,0
1144,590,244,0
1041,552,238,0
994,507,210,0
1021,449,159,0
1193,373,81,0
1111,298,46,0
939,244,63,0
785,271,88,0
728,357,95,0
745,388,94,0
800,313,61,0
854,223,52,0
842,152,79,0
818,166,121,0
876,252,129,0
886,358,142,0
1032,484,218,0
1100,622,406,0
1181,595,442,0
1179,366,231,0
1014,185,135,0
815,145,220,0
758,268,247,0
738,479,205,0
685,631,186,0
661,645,245,0
788,581,293,0
989,546,298,0
1077,560,292,0
1204,582,306,0
1178,527,267,0
1289,453,231,0
1154,337,194,0
1133,395,193,0
1063,481,160,0
1103,442,113,0
998,337,65,0
828,267,28,0
706,268,23,0
674,308,45,0
672,284,45,0
672,264,57,0
710,264,87,0
804,276,122,0
967,272,144,0
1122,218,85,0
1179,317,111,0
1151,495,265,0
1125,659,405,0
1092,635,386,0
1011,439,208,0
944,197,164,0
833,157,197,0
785,286,188,0
737,468,175,0
733,605,231,0
708,568,321,0
687,484,347,0
845,424,349,0
1042,334,249,0
1090,325,192,0
1233,442,275,0
1193,525,322,0
1087,510,270,0
1098,458,236,0
1163,419,148,0
1125,345,45,0
1045,331,45,0
834,340,95,0
640,347,91,0
565,337,79,0
627,307,71,0
706,287,96,0
732,270,121,0
782,267,146,0
846,290,194,0
900,340,253,0
1092,355,229,0
1223,381,244,0
1209,452,269,0
928,502,334,0
887,537,320,0
977,488,173,0
1027,364,68,0
906,264,77,0
728,329,106,0
641,437,87,0
589,492,66,0
577,448,94,0
580,288,124,0
820,472,148,0
990,639,150,0
1056,701,146,0
1247,748,218,0
1162,786,288,0
1144,740,310,0
1062,602,239,0
1042,452,115,0
1113,362,20,0
1004,309,-7,0
870,271,-14,0
788,279,1,0
772,352,-11,0
809,360,-48,0
825,299,-44,0
802,217,-43,0
786,177,-45,0
812,252,4,0
859,364,71,0
936,422,112,0
1065,392,107,0
1133,382,144,0
1171,429,242,0
1009,572,418,0
879,636,426,0
850,577,303,0
960,324,200,0
891,140,172,0
751,214,199,0
689,375,206,0
736,568,191,0
782,591,191,0
828,459,166,0
929,384,155,0
1053,367,144,0
1180,458,143,0
1160,552,197,0
1239,611,248,0
1014,525,210,0
948,424,142,0
1055,344,86,0
1053,289,96,0
917,290,119,0
771,301,121,0
693,315,106,0
715,306,91,0
784,273,106,0
986,226,113,0
1031,206,94,0
1152,258,97,0
940,321,182,0
933,424,223,0
841,432,275,0
849,416,300,0
952,373,290,0
975,317,261,0
895,333,218,0
809,396,227,0
773,468,211,0
774,536,213,0
768,523,232,0
876,518,251,0
988,563,260,0
903,588,270,0
979,640,303,0
1126,599,274,0
1212,591,247,0
1163,512,283,0
1157,517,250,0
1200,495,164,0
1341,414,108,0
1306,330,95,0
1058,225,67,0
851,231,61,0
765,285,67,0
748,306,63,0
680,257,51,0
675,220,66,0
748,213,92,0
813,220,120,0
979,226,101,0
1047,262,63,0
1017,393,110,0
1108,590,245,0
1257,774,388,0
1240,743,290,0
1028,549,224,0
842,112,286,0
841,106,291,0
826,332,242,0
765,582,211,0
744,706,279,0
769,662,342,0
864,581,377,0
956,524,369,0
950,442,300,0
1141,404,242,0
1204,372,223,0
1266,438,239,0
1275,501,275,0
1096,473,191,0
1045,410,100,0
1079,326,85,0
945,281,98,0
752,245,92,0
635,243,113,0
604,249,124,0
586,233,138,0
606,222,173,0
695,222,183,0
826,200,160,0
1027,214,143,0
1323,328,142,0
1429,490,148,0
1517,716,294,0
1193,764,361,0
803,655,312,0
923,364,219,0
950,150,137,0
820,207,174,0
673,327,204,0
584,502,186,0
589,550,191,0
556,439,208,0
584,376,251,0
768,425,271,0
963,544,288,0
1355,709,354,0
1409,671,303,0
1317,534,269,0
1190,270,264,0
1160,188,171,0
1150,253,124,0
1095,315,142,0
914,374,134,0
815,383,107,0
723,310,50,0
627,255,12,0
635,243,34,0
651,225,34,0
677,224,23,0
796,235,22,0
924,281,17,0
804,-307,-386,0
860,-838,391,0
936,758,225,0
1189,106,501,0
1164,483,319,0
1243,264,216,0
1262,-146,357,0
849,583,346,0
780,427,422,0
678,330,312,0
681,289,210,0
732,252,220,0
840,236,237,0
1021,238,177,0
1052,265,123,0
1111,300,128,0
1058,307,134,0
1185,364,120,0
1090,340,129,0
1015,222,91,0
948,5,8,0
1013,-43,-6,0
1083,100,10,0
950,187,41,0
875,136,55,0
842,70,59,0
865,31,73,0
845,80,133,0
881,158,185,0
926,144,137,0
1034,125,109,0
1309,142,51,0
1382,262,-42,0
980,464,113,0
854,523,296,0
875,437,237,0
907,288,135,0
912,65,148,0
844,-13,224,0
819,107,252,0
800,222,265,0
784,272,320,0
810,201,350,0
908,153,407,0
927,79,455,0
901,133,424,0
840,208,380,0
788,239,348,0
850,229,326,0
1012,240,346,0
967,295,385,0
963,345,335,0
1094,320,247,0
1201,266,111,0
1091,181,81,0
931,106,92,0
840,161,99,0
896,332,80,0
997,448,71,0
995,395,74,0
1025,229,63,0
1168,92,44,0
928,99,130,0
780,269,290,0
761,343,383,0
856,337,326,0
953,236,286,0
959,26,346,0
930,-24,433,0
874,111,417,0
814,207,387,0
782,225,377,0
781,239,370,0
777,222,375,0
757,249,388,0
844,295,376,0
1036,328,351,0
1151,338,304,0
1258,349,328,0
1294,347,350,0
1251,312,306,0
1108,276,271,0
1079,249,220,0
1045,220,140,0
1019,224,96,0
1075,234,113,0
1001,238,120,0
906,195,77,0
856,171,54,0
879,177,84,0
818,165,90,0
746,152,104,0
701,149,142,0
747,154,186,0
868,149,185,0
1007,138,171,0
1210,174,165,0
1221,264,213,0
1147,347,273,0
1098,447,315,0
1165,527,330,0
1153,482,300,0
1091,277,339,0
1008,210,420,0
946,276,401,0
891,349,369,0
890,358,350,0
919,289,343,0
935,235,311,0
940,215,264,0
947,221,199,0
935,216,143,0
946,202,91,0
1015,239,68,0
1082,306,77,0
938,377,100,0
883,409,45,0
1058,427,-5,0
1135,378,-46,0
1003,286,-42,0
811,200,0,0
743,294,44,0
769,415,20,0
802,464,-22,0
837,437,-10,0
899,395,14,0
963,362,12,0
1059,359,24,0
1146,363,48,0
1125,409,94,0
991,470,198,0
865,449,218,0
967,386,186,0
1118,265,101,0
1052,139,80,0
859,133,109,0
740,213,134,0
657,301,91,0
624,341,66,0
745,310,112,0
788,257,184,0
821,315,276,0
824,172,337,0
951,14,370,0
1068,50,455,0
1173,26,466,0
1315,298,403,0
1264,405,386,0
1299,264,297,0
1213,169,118,0
1054,120,33,0
893,125,72,0
744,202,148,0
673,300,123,0
664,293,106,0
720,251,190,0
779,195,249,0
776,101,284,0
753,30,289,0
800,37,243,0
920,121,204,0
1048,195,180,0
1338,259,104,0
1379,337,101,0
1417,451,142,0
1142,508,234,0
936,398,143,0
973,202,58,0
919,116,55,0
769,185,67,0
651,260,88,0
558,336,113,0
505,387,267,0
388,403,496,0
615,369,632,0
1135,305,618,0
1650,477,429,0
1588,821,380,0
1308,406,238,0
1096,23,297,0
1092,82,260,0
1256,359,181,0
1368,471,78,0
1215,360,97,0
1002,197,119,0
832,180,114,0
765,212,116,0
729,231,122,0
710,153,171,0
650,62,219,0
670,2,236,0
742,-14,236,0
942,-3,249,0
1402,180,197,0
1679,342,352,0
1774,579,419,0
1420,769,272,0
908,248,153,0
822,-121,216,0
765,22,126,0
744,373,106,0
710,571,88,0
597,632,191,0
663,509,322,0
923,465,376,0
1188,509,371,0
1368,524,359,0
1379,387,350,0
1453,242,294,0
1385,133,246,0
1291,113,129,0
1295,205,124,0
1302,233,109,0
1034,221,86,0
836,229,38,0
689,234,29,0
645,220,54,0
642,196,133,0
724,326,296,0
623,563,242,0
477,1049,150,0
489,1612,23,0
219,1412,-56,0
126,1088,-202,0
18,1043,-85,0
35,907,-129,0
89,787,-153,0
18,661,-156,0
-97,618,-201,0
-220,676,-211,0
-314,683,-276,0
-316,646,-325,0
-343,670,-292,0
-373,717,-312,0
-421,857,-373,0
-461,856,-395,0
-407,632,-323,0
-638,1316,-262,0
-377,1075,-121,0
-471,932,-235,0
-409,910,-285,0
-452,914,-309,0
-388,848,-253,0
-342,792,-141,0
-313,690,-70,0
-271,728,-59,0
-383,792,-57,0
-428,861,-121,0
-362,837,-123,0
-386,918,-75,0
-388,923,-113,0
-455,915,-170,0
-489,874,-316,0
-486,982,-417,0
-455,870,-527,0
-268,708,-704,0
-214,800,-681,0
-210,686,-646,0
-225,584,-552,0
-341,446,-549,0
-361,443,-546,0
-335,532,-581,0
-307,629,-647,0
-334,614,-624,0
-400,753,-553,0
-373,776,-514,0
-426,855,-466,0
-468,923,-473,0
-365,871,-502,0
-239,1116,-469,0
-154,1029,-553,0
-171,909,-595,0
-134,721,-623,0
-105,683,-644,0
-34,627,-578,0
19,579,-454,0
1,624,-385,0
-19,754,-356,0
-26,766,-379,0
-21,807,-425,0
-19,788,-489,0
-8,784,-489,0
-6,932,-597,0
50,837,-568,0
109,921,-652,0
181,741,-747,0
247,681,-901,0
181,549,-848,0
213,361,-797,0
308,390,-729,0
311,526,-774,0
208,393,-693,0
140,386,-768,0
157,350,-961,0
112,450,-1006,0
111,359,-976,0
161,360,-1045,0
245,352,-1073,0
304,397,-1111,0
354,344,-1146,0
410,301,-1170,0
369,265,-1099,0
360,241,-1090,0
177,205,-917,0
128,173,-855,0
141,172,-855,0
150,169,-728,0
123,312,-688,0
90,372,-769,0
-13,544,-857,0
-109,406,-897,0
-76,333,-1029,0
-52,186,-1019,0
-84,184,-999,0
-137,313,-1115,0
-139,299,-1203,0
-40,166,-1204,0
-1,84,-1042,0
25,86,-805,0
41,193,-540,0
53,301,-395,0
26,383,-451,0
67,204,-498,0
-26,505,-379,0
92,734,-523,0
-60,746,-386,0
-69,757,-339,0
48,880,-9,0
344,428,166,0
1015,171,290,0
1784,37,366,0
1997,582,421,0
1764,997,488,0
1088,532,225,0
1017,-43,124,0
910,12,31,0
773,310,126,0
709,541,223,0
662,504,247,0
656,364,242,0
659,257,210,0
780,225,170,0
992,210,122,0
1116,185,75,0
1209,255,113,0
1134,374,212,0
1077,482,270,0
926,521,295,0
891,457,245,0
956,357,120,0
907,181,37,0
760,131,88,0
633,186,145,0
557,308,139,0
552,416,152,0
585,428,188,0
727,383,221,0
975,342,237,0
1199,336,238,0
1343,424,235,0
1292,555,298,0
1263,639,275,0
1100,533,145,0
1013,371,45,0
982,274,20,0
824,225,37,0
707,242,40,0
676,313,57,0
691,360,42,0
741,364,44,0
851,309,59,0
1031,203,36,0
1147,94,1,0
1198,111,2,0
1100,255,47,0
1032,433,122,0
908,571,253,0
904,567,349,0
945,427,290,0
909,168,168,0
742,-10,150,0
671,55,173,0
646,230,168,0
683,424,171,0
661,524,252,0
652,514,346,0
897,495,361,0
1128,423,280,0
1405,375,226,0
1325,347,241,0
1232,389,236,0
1040,390,226,0
1065,399,169,0
1070,380,104,0
1050,340,80,0
935,294,92,0
788,257,83,0
655,252,71,0
667,267,91,0
657,255,100,0
687,219,99,0
833,202,113,0
958,182,125,0
1061,208,150,0
1174,270,186,0
1262,336,160,0
1220,434,268,0
1049,450,377,0
940,372,304,0
959,264,166,0
882,193,109,0
789,219,150,0
666,312,145,0
625,420,143,0
631,505,236,0
656,492,268,0
809,460,258,0
1067,496,244,0
1417,617,252,0
1308,644,270,0
1044,477,252,0
1127,407,259,0
1295,437,183,0
1378,406,103,0
1310,322,138,0
1127,248,160,0
892,223,104,0
746,238,89,0
734,242,102,0
643,206,105,0
592,149,128,0
670,128,138,0
757,141,163,0
819,150,175,0
962,165,153,0
1116,234,119,0
1302,394,158,0
1438,622,355,0
1355,683,357,0
1098,610,232,0
912,226,194,0
808,-30,217,0
791,90,172,0
716,335,82,0
613,551,69,0
588,609,165,0
713,649,275,0
1016,676,291,0
1406,748,249,0
1561,672,212,0
1398,407,206,0
1169,294,217,0
1184,269,144,0
1157,271,62,0
1149,315,128,0
1066,256,118,0
866,207,13,0
723,201,-2,0
685,248,18,0
683,233,14,0
663,184,3,0
725,176,24,0
815,194,54,0
904,219,104,0
1065,244,121,0
1293,299,120,0
1362,433,252,0
1240,491,352,0
1147,560,332,0
1080,528,236,0
945,157,186,0
845,75,217,0
717,522,10,0
567,1117,-461,0
544,1471,-675,0
750,1390,-744,0
989,1147,-755,0
985,894,-811,0
1012,741,-1041,0
972,568,-1044,0
976,518,-975,0
853,359,-789,0
721,271,-665,0
413,272,-520,0
268,271,-452,0
92,349,-454,0
-11,353,-523,0
-145,429,-589,0
-193,508,-676,0
-248,545,-778,0
-220,596,-793,0
-252,554,-806,0
-229,545,-961,0
-155,588,-1111,0
-80,577,-950,0
-110,477,-804,0
-58,387,-660,0
8,492,-650,0
-16,521,-693,0
-95,469,-626,0
-155,431,-647,0
-186,481,-722,0
-165,488,-673,0
-114,552,-721,0
-54,596,-840,0
-17,623,-917,0
-36,680,-968,0
113,697,-1055,0
158,703,-1041,0
309,646,-1043,0
306,568,-924,0
228,478,-836,0
276,417,-722,0
225,443,-547,0
167,414,-498,0
105,424,-524,0
132,258,-657,0
135,376,-796,0
245,514,-919,0
289,592,-919,0
333,595,-974,0
400,513,-1158,0
423,401,-1210,0
563,256,-1211,0
545,245,-1070,0
450,233,-837,0
432,253,-717,0
201,185,-770,0
76,160,-653,0
-11,147,-585,0
-42,4,-652,0
-75,91,-769,0
-85,175,-966,0
-124,220,-1020,0
-92,294,-1129,0
-109,323,-1216,0
-63,291,-1260,0
-1,298,-1265,0
103,335,-1132,0
126,226,-1051,0
74,115,-945,0
35,141,-860,0
29,192,-746,0
44,205,-730,0
54,190,-718,0
49,358,-636,0
31,485,-692,0
17,490,-808,0
3,529,-804,0
6,401,-913,0
43,557,-832,0
28,620,-960,0
19,637,-1105,0
67,592,-1161,0
92,566,-1224,0
111,438,-1071,0
129,347,-826,0
94,354,-759,0
-41,396,-582,0
-98,384,-510,0
-191,-18,-846,0
-340,596,-465,0
-122,948,-833,0
-421,74,-550,0
-154,481,-999,0
-54,608,-971,0
-86,435,-1036,0
145,707,-935,0
182,649,-1030,0
254,465,-1212,0
98,464,-1045,0
38,512,-992,0
49,452,-943,0
56,374,-755,0
66,390,-616,0
60,376,-563,0
53,342,-586,0
87,441,-646,0
130,551,-765,0
189,671,-771,0
160,738,-765,0
190,861,-864,0
143,913,-918,0
149,998,-805,0
169,937,-626,0
482,443,-314,0
234,1051,-773,0
87,614,-572,0
-27,326,-488,0
-68,226,-636,0
-105,420,-727,0
-150,593,-728,0
-158,636,-840,0
-133,639,-896,0
-56,681,-905,0
124,570,-1049,0
269,593,-828,0
113,921,-472,0
104,805,-316,0
84,728,-300,0
71,507,-235,0
237,-2,-87,0
580,-125,122,0
962,157,159,0
1322,472,148,0
1530,662,190,0
1479,615,222,0
1398,288,154,0
1273,-7,16,0
1411,177,-124,0
1242,545,-88,0
1385,766,57,0
885,669,270,0
577,418,198,0
673,245,92,0
773,97,-17,0
777,129,-30,0
691,257,75,0
576,407,165,0
604,514,220,0
664,443,274,0
774,190,361,0
981,453,262,0
1175,647,124,0
1468,512,108,0
1277,393,213,0
1134,394,210,0
1084,459,110,0
1105,415,-6,0
1001,330,-9,0
806,231,18,0
654,228,35,0
589,342,36,0
619,414,38,0
692,408,29,0
813,333,19,0
1011,243,12,0
1159,167,15,0
1182,157,11,0
992,263,39,0
994,468,115,0
937,671,309,0
976,695,374,0
1024,499,211,0
942,198,103,0
758,32,163,0
650,132,156,0
599,343,110,0
675,535,146,0
696,583,227,0
726,495,253,0
915,466,284,0
1152,499,255,0
1432,590,215,0
1384,596,223,0
1211,495,236,0
1067,377,184,0
1075,362,100,0
1117,352,46,0
972,339,66,0
777,308,90,0
641,288,48,0
616,323,38,0
667,315,40,0
669,266,35,0
755,214,31,0
897,214,33,0
977,221,40,0
1090,289,29,0
1023,352,73,0
1138,513,156,0
1136,682,350,0
1114,691,377,0
1076,500,203,0
997,194,183,0
813,-20,220,0
714,86,193,0
613,310,150,0
561,562,204,0
591,626,243,0
800,584,279,0
1045,520,275,0
1242,522,253,0
1329,509,237,0
1375,499,221,0
1229,396,166,0
1153,327,99,0
1071,287,60,0
1027,311,83,0
848,348,97,0
718,329,33,0
631,298,11,0
651,309,26,0
688,297,43,0
752,264,55,0
898,246,71,0
1067,226,66,0
1222,217,46,0
997,245,114,0
983,383,203,0
1026,539,341,0
1077,595,376,0
1047,463,248,0
946,274,204,0
834,165,214,0
752,224,163,0
711,358,141,0
698,539,170,0
663,621,254,0
679,555,274,0
925,545,269,0
1115,525,206,0
1208,565,193,0
1206,590,221,0
1361,640,192,0
1218,514,132,0
1165,441,84,0
1111,387,22,0
1028,364,15,0
883,341,20,0
773,315,21,0
785,342,40,0
789,346,70,0
777,299,65,0
794,196,19,0
853,135,31,0
881,135,69,0
951,201,62,0
955,283,64,0
1047,396,99,0
1160,579,246,0
1249,686,374,0
1174,576,223,0
951,336,108,0
811,97,132,0
802,121,137,0
773,282,118,0
734,521,125,0
688,654,191,0
745,666,236,0
960,666,267,0
1086,618,273,0
1270,599,301,0
1239,535,275,0
1293,439,217,0
1235,382,144,0
1273,363,67,0
1356,375,57,0
1182,329,37,0
924,289,-6,0
758,297,-12,0
668,329,-18,0
662,340,-6,0
657,295,8,0
685,222,2,0
746,178,25,0
814,179,81,0
933,221,149,0
955,258,221,0
1093,313,151,0
1254,453,209,0
1383,612,320,0
1315,656,230,0
1122,514,155,0
929,266,122,0
859,281,118,0
769,399,110,0
690,531,90,0
663,623,198,0
669,637,309,0
893,625,293,0
1114,499,163,0
1322,374,140,0
1398,491,238,0
1120,555,236,0
942,528,192,0
941,401,106,0
996,291,17,0
995,238,-28,0
899,255,-29,0
748,282,-34,0
626,293,-28,0
610,344,7,0
647,348,41,0
738,321,74,0
872,269,86,0
941,202,86,0
1018,191,102,0
1157,309,141,0
1228,469,175,0
1156,603,310,0
1086,562,374,0
1038,431,259,0
1074,271,170,0
894,169,157,0
724,252,150,0
640,400,137,0
623,526,126,0
639,587,159,0
628,530,214,0
823,561,251,0
1062,615,229,0
1171,634,220,0
1219,521,213,0
1246,418,196,0
1249,385,169,0
1207,360,100,0
1077,350,29,0
1075,378,36,0
1096,414,90,0
984,338,1,0
794,244,-13,0
719,226,40,0
678,225,44,0
593,208,26,0
556,169,16,0
613,173,14,0
772,236,22,0
958,338,79,0
1248,439,113,0
1482,503,133,0
1760,613,193,0
1352,658,269,0
866,512,224,0
841,315,160,0
954,278,40,0
880,364,18,0
712,442,107,0
581,500,161,0
529,512,190,0
509,495,195,0
646,502,237,0
984,504,236,0
1324,467,167,0
1433,445,178,0
1212,372,212,0
1174,409,215,0
1201,456,186,0
1203,398,88,0
1148,332,52,0
1118,281,62,0
908,235,15,0
725,239,0,0
612,266,19,0
606,292,20,0
652,287,27,0
679,250,27,0
732,205,29,0
832,194,53,0
1044,227,50,0
1217,325,77,0
1237,451,156,0
1250,600,342,0
1230,648,403,0
1167,545,208,0
1100,249,106,0
886,82,131,0
709,187,150,0
577,348,131,0
577,550,160,0
612,554,192,0
710,475,214,0
940,415,210,0
1123,404,189,0
1332,521,218,0
1270,562,240,0
1320,551,236,0
1225,416,104,0
1161,364,-18,0
1117,338,-65,0
927,305,-35,0
750,278,-39,0
643,283,-33,0
623,326,-5,0
690,316,-42,0
749,264,-48,0
818,204,-27,0
910,167,-11,0
990,184,-7,0
1150,323,18,0
1048,441,74,0
1071,549,170,0
1086,588,318,0
1097,580,332,0
1073,414,185,0
895,153,121,0
751,77,160,0
679,140,262,0
693,201,321,0
621,270,23,0
609,449,-77,0
774,643,19,0
1047,797,139,0
1304,818,140,0
1339,744,20,0
1131,546,-40,0
503,-565,-100,0
1201,222,-76,0
1337,538,-56,0
663,461,-121,0
841,76,-144,0
754,142,-101,0
693,111,-4,0
708,204,50,0
775,287,70,0
948,322,48,0
1154,244,7,0
1179,121,-30,0
1237,78,-58,0
1135,216,-62,0
928,465,70,0
863,641,202,0
903,548,155,0
957,346,70,0
822,91,100,0
668,28,167,0
626,180,169,0
630,304,138,0
700,366,175,0
742,324,179,0
896,332,161,0
1147,433,169,0
1289,585,226,0
1264,683,245,0
1109,665,218,0
1127,501,145,0
1177,327,27,0
1141,235,-42,0
1170,194,-25,0
1055,235,34,0
866,300,29,0
781,343,52,0
815,278,31,0
744,246,-7,0
728,196,33,0
797,161,71,0
913,174,71,0
984,193,70,0
1068,234,86,0
1080,290,102,0
1131,357,127,0
1112,434,235,0
1149,469,280,0
1143,427,157,0
1015,334,110,0
786,210,149,0
734,249,144,0
686,361,119,0
691,478,139,0
701,509,181,0
825,478,199,0
1001,500,231,0
1048,515,270,0
1159,511,274,0
1236,511,220,0
1461,447,183,0
1272,341,175,0
1227,293,131,0
1199,294,77,0
1190,327,78,0
991,290,64,0
765,233,39,0
641,226,53,0
671,266,63,0
683,239,45,0
760,185,38,0
859,149,38,0
912,135,42,0
1017,176,62,0
985,255,110,0
1228,341,84,0
1213,447,179,0
1180,464,275,0
1096,415,273,0
989,350,230,0
829,262,163,0
782,259,134,0
760,310,122,0
808,487,138,0
784,582,217,0
767,607,310,0
985,662,341,0
1144,596,246,0
1331,475,204,0
1373,307,155,0
1379,378,185,0
1228,453,208,0
1200,486,146,0
1262,439,45,0
1208,329,-3,0
1049,256,2,0
914,205,-22,0
792,204,-30,0
800,250,5,0
801,217,-16,0
861,180,-49,0
869,137,-61,0
807,105,-65,0
867,145,-46,0
903,248,45,0
1056,374,115,0
1082,434,195,0
1205,438,315,0
1325,384,289,0
1283,276,153,0
1078,185,216,0
927,217,292,0
823,363,248,0
749,524,233,0
727,557,221,0
796,538,259,0
945,558,318,0
1206,636,327,0
1430,628,226,0
1498,412,179,0
1415,257,143,0
1312,262,83,0
1339,295,34,0
1347,324,10,0
1200,306,0,0
963,277,-8,0
800,261,-18,0
715,258,-23,0
720,228,-20,0
786,195,-3,0
843,156,8,0
829,101,12,0
793,82,43,0
871,116,54,0
887,173,8,0
1029,281,17,0
1188,408,99,0
1481,561,240,0
1761,765,397,0
1437,796,290,0
923,387,213,0
884,-77,238,0
832,-8,179,0
790,311,117,0
699,614,127,0
719,770,223,0
891,747,234,0
1100,634,281,0
1381,519,221,0
1256,470,165,0
1395,476,167,0
1517,387,56,0
1577,337,-72,0
1530,310,-62,0
1359,193,-1,0
1034,260,33,0
839,244,20,0
691,239,-38,0
617,176,-49,0
601,121,-15,0
582,95,-21,0
560,105,-28,0
622,194,30,0
740,277,94,0
978,359,163,0
1456,396,188,0
1920,430,268,0
1693,316,283,0
1325,272,209,0
921,105,121,0
897,238,68,0
815,429,37,0
746,611,86,0
694,588,137,0
705,517,173,0
862,480,172,0
1017,479,116,0
1305,564,133,0
1144,574,209,0
1219,537,165,0
1240,432,-23,0
1347,302,-114,0
1364,186,-177,0
1130,158,-114,0
902,222,-101,0
749,259,-92,0
717,307,-31,0
750,271,-34,0
768,179,-71,0
868,96,-57,0
917,83,-26,0
998,149,-33,0
1110,270,18,0
1262,402,90,0
1175,483,244,0
1133,465,310,0
1205,366,187,0
1154,224,37,0
938,117,49,0
837,146,98,0
758,339,72,0
706,540,37,0
657,588,67,0
742,527,111,0
942,505,167,0
1064,497,177,0
1381,634,230,0
1378,699,272,0
1368,532,207,0
1380,334,88,0
1587,239,31,0
1568,102,48,0
1192,122,93,0
1001,184,96,0
867,221,21,0
748,258,-8,0
714,210,-7,0
690,142,-19,0
726,115,-23,0
731,108,-11,0
793,140,-6,0
844,167,-7,0
1094,236,-43,0
1277,382,26,0
1510,598,247,0
1642,767,411,0
1364,629,221,0
983,285,166,0
901,-97,225,0
877,-9,212,0
842,310,198,0
736,622,237,0
708,788,312,0
927,792,339,0
1108,703,364,0
1383,600,344,0
1515,377,222,0
1527,233,129,0
1469,175,86,0
1603,186,20,0
1457,259,-85,0
1202,260,-102,0
915,296,-83,0
710,302,-106,0
592,270,-116,0
528,207,-97,0
495,148,-52,0
512,126,-11,0
647,178,69,0
796,211,135,0
988,166,88,0
1342,152,27,0
1742,283,-8,0
1722,570,215,0
1540,838,418,0
1192,904,323,0
980,462,112,0
916,-32,109,0
874,-73,146,0
720,142,115,0
637,479,129,0
647,688,201,0
744,643,207,0
941,470,159,0
1120,323,112,0
1389,345,150,0
1329,491,221,0
1296,576,225,0
1231,463,138,0
1179,286,9,0
1193,185,-57,0
1023,147,-63,0
815,197,-49,0
710,246,-45,0
618,269,-47,0
626,274,-29,0
712,247,1,0
848,212,37,0
935,144,46,0
1040,114,48,0
1268,143,27,0
1370,279,30,0
1087,441,187,0
888,508,350,0
1012,490,381,0
1125,402,233,0
964,205,123,0
801,150,202,0
742,265,258,0
705,423,225,0
701,541,245,0
783,561,276,0
1028,544,293,0
1118,476,242,0
1358,431,214,0
1419,331,161,0
1392,359,115,0
1285,376,105,0
1326,372,45,0
1262,326,-2,0
1162,260,19,0
991,228,17,0
810,182,-14,0
685,168,-2,0
626,162,19,0
584,156,33,0
663,188,52,0
797,220,75,0
1039,206,37,0
1276,144,-87,0
1324,211,-134,0
1129,414,25,0
1028,609,186,0
1134,656,166,0
1206,543,40,0
1084,349,11,0
932,205,96,0
815,278,125,0
748,420,110,0
720,537,123,0
734,621,206,0
923,650,258,0
1146,650,229,0
1518,582,177,0
1354,379,141,0
1385,394,146,0
1394,441,3,0
1414,289,-313,0
1265,14,-404,0
1136,138,-289,0
952,108,-410,0
748,88,-397,0
531,97,-289,0
478,261,-128,0
556,332,-41,0
667,228,-88,0
785,145,-105,0
978,23,-53,0
1201,67,17,0
1398,345,-33,0
1393,664,-90,0
1403,838,-68,0
1135,836,-16,0
881,623,-17,0
855,471,0,0
913,343,-44,0
820,332,-51,0
722,328,-9,0
657,394,11,0
640,419,-8,0
655,417,0,0
730,389,49,0
860,342,75,0
1029,287,96,0
1146,307,97,0
1189,515,188,0
1177,691,251,0
1217,665,167,0
1048,309,21,0
742,317,-684,0
1427,1107,145,0
544,-106,-305,0
535,339,-168,0
609,242,-51,0
637,218,12,0
735,312,57,0
836,318,3,0
927,286,-42,0
1013,220,-10,0
1150,199,27,0
1158,299,9,0
1120,460,0,0
942,635,163,0
870,617,184,0
900,463,77,0
934,258,38,0
804,139,99,0
687,304,98,0
526,619,33,0
457,955,32,0
505,852,100,0
636,662,178,0
779,590,205,0
914,601,124,0
1413,439,129,0
1405,481,-199,0
1044,663,-188,0
875,207,-127,0
718,435,-220,0
1203,660,-262,0
617,343,-282,0
671,-98,-188,0
613,161,-147,0
647,348,-154,0
716,353,-207,0
786,307,-210,0
957,505,-240,0
990,616,-300,0
951,742,-407,0
752,874,-584,0
729,1047,-770,0
455,1101,-722,0
401,1041,-589,0
521,1114,-497,0
492,766,-398,0
392,500,-260,0
303,417,-84,0
257,188,23,0
207,437,110,0
221,671,107,0
206,800,107,0
320,958,117,0
317,992,-6,0
384,1223,-18,0
421,1081,-98,0
685,572,-62,0
649,937,-74,0
706,1136,91,0
507,788,-155,0
471,1173,-287,0
502,962,-370,0
543,533,-369,0
537,554,-466,0
529,623,-367,0
523,648,-298,0
596,644,-327,0
712,594,-248,0
824,775,-209,0
909,709,-225,0
780,757,-195,0
613,826,-24,0
534,897,152,0
565,947,148,0
620,970,119,0
564,861,90,0
472,764,74,0
422,746,67,0
358,773,55,0
309,609,80,0
274,613,150,0
307,600,313,0
386,746,441,0
522,816,502,0
634,865,571,0
624,967,632,0
585,866,567,0
662,885,602,0
719,897,618,0
697,812,416,0
621,670,176,0
572,615,70,0
544,558,-31,0
582,388,50,0
609,453,58,0
645,451,67,0
768,576,88,0
877,638,131,0
961,639,134,0
784,667,181,0
629,853,257,0
612,958,348,0
594,979,309,0
519,930,188,0
438,853,163,0
383,765,144,0
358,731,73,0
300,899,107,0
266,963,156,0
310,858,136,0
353,855,81,0
382,926,112,0
471,955,115,0
623,1000,164,0
694,1009,236,0
760,947,290,0
821,724,299,0
800,640,262,0
698,544,259,0
598,484,322,0
525,549,373,0
529,567,316,0
592,603,210,0
694,711,199,0
810,761,237,0
833,808,246,0
891,773,197,0
736,758,168,0
566,705,144,0
406,715,171,0
440,727,205,0
600,834,204,0
591,781,141,0
534,656,132,0
463,644,163,0
402,724,126,0
366,797,113,0
347,849,93,0
398,932,83,0
436,1068,64,0
525,1226,114,0
533,1242,227,0
597,1196,356,0
645,1018,423,0
717,832,401,0
757,670,314,0
839,623,250,0
788,510,187,0
692,388,127,0
642,272,111,0
630,270,146,0
694,311,197,0
746,356,235,0
900,489,303,0
901,660,391,0
932,785,431,0
907,902,385,0
831,1049,371,0
619,834,266,0
500,786,256,0
534,723,206,0
615,704,177,0
590,637,166,0
498,601,196,0
459,605,200,0
485,572,164,0
541,614,130,0
637,717,108,0
692,813,98,0
641,949,119,0
754,1138,219,0
722,1071,291,0
697,975,294,0
628,882,304,0
748,791,351,0
839,723,382,0
829,629,327,0
695,551,274,0
593,486,251,0
562,420,242,0
584,355,243,0
631,325,232,0
756,335,224,0
894,388,219,0
943,454,226,0
1026,597,268,0
1068,716,271,0
1071,803,244,0
736,887,325,0
514,920,338,0
543,903,302,0
595,824,383,0
549,748,384,0
450,675,344,0
414,604,264,0
439,602,191,0
441,622,160,0
482,736,179,0
634,808,164,0
776,798,164,0
987,855,218,0
1075,864,239,0
930,778,282,0
952,657,401,0
994,494,428,0
947,530,398,0
811,510,349,0
683,470,356,0
666,465,360,0
649,449,304,0
614,444,237,0
611,452,209,0
683,468,186,0
762,459,165,0
874,452,148,0
1015,476,126,0
1051,481,108,0
887,563,257,0
818,617,428,0
884,628,538,0
856,673,571,0
704,739,478,0
535,767,413,0
404,739,334,0
342,660,242,0
335,703,257,0
350,705,291,0
408,715,309,0
541,739,369,0
661,771,376,0
783,769,356,0
886,817,356,0
967,779,318,0
847,678,311,0
835,564,381,0
879,461,368,0
942,408,331,0
867,403,309,0
743,393,298,0
658,430,274,0
646,450,256,0
648,513,261,0
631,583,276,0
637,669,283,0
661,720,281,0
700,701,288,0
804,676,314,0
796,669,263,0
665,669,205,0
560,721,313,0
645,765,398,0
798,764,379,0
709,828,463,0
581,789,337,0
414,797,215,0
346,812,75,0
340,773,-109,0
258,755,-132,0
237,716,-109,0
305,844,-70,0
357,936,-27,0
483,1001,43,0
573,1056,18,0
526,1094,28,0
450,1054,65,0
600,966,158,0
754,866,176,0
832,713,132,0
722,579,62,0
602,536,17,0
587,487,33,0
599,570,63,0
643,686,116,0
647,749,183,0
657,877,283,0
727,902,287,0
807,855,230,0
729,740,131,0
577,644,67,0
455,603,101,0
505,649,185,0
733,722,223,0
715,807,325,0
533,784,385,0
358,834,430,0
332,1031,447,0
327,835,198,0
239,816,63,0
207,851,-39,0
305,960,-95,0
359,1019,-134,0
444,942,-172,0
534,993,-185,0
637,1100,-98,0
581,1095,61,0
564,953,170,0
630,778,217,0
663,712,248,0
687,628,209,0
668,565,136,0
622,496,100,0
630,557,63,0
665,571,64,0
705,762,124,0
670,906,132,0
748,919,162,0
776,959,229,0
804,899,233,0
698,737,178,0
550,601,129,0
439,602,158,0
511,618,218,0
661,733,295,0
578,694,303,0
450,699,336,0
361,767,388,0
324,749,359,0
298,905,331,0
226,1074,251,0
226,1057,124,0
363,1087,126,0
478,1044,127,0
635,1013,34,0
743,954,-39,0
670,865,-17,0
673,804,96,0
665,686,195,0
701,596,262,0
647,533,313,0
532,490,322,0
513,501,281,0
567,479,236,0
629,477,285,0
640,592,362,0
709,764,377,0
816,869,342,0
884,968,345,0
819,1104,354,0
644,1037,308,0
405,894,311,0
380,788,272,0
490,683,213,0
516,600,156,0
436,527,144,0
368,524,171,0
333,562,206,0
267,615,244,0
218,832,436,0
246,1026,581,0
310,1217,631,0
434,1314,626,0
505,1290,434,0
381,1046,239,0
402,858,264,0
536,800,305,0
657,761,263,0
650,634,180,0
591,516,141,0
551,449,112,0
530,386,151,0
550,384,221,0
578,422,269,0
654,500,290,0
776,614,349,0
891,703,416,0
907,826,440,0
866,939,455,0
872,996,380,0
530,1014,324,0
401,927,251,0
537,864,206,0
673,727,159,0
601,604,147,0
430,604,180,0
349,598,183,0
314,621,163,0
297,629,166,0
354,719,218,0
494,826,265,0
541,870,319,0
663,951,412,0
665,943,489,0
778,1044,564,0
737,999,483,0
645,870,380,0
612,760,290,0
636,692,184,0
624,633,75,0
619,559,-23,0
612,523,-8,0
685,442,-13,0
713,416,50,0
741,432,112,0
806,485,178,0
886,575,238,0
926,614,227,0
948,688,209,0
890,759,240,0
844,778,310,0
798,691,231,0
841,689,243,0
839,695,296,0
715,650,326,0
604,549,287,0
513,535,192,0
490,612,190,0
394,410,165,0
500,342,215,0
624,386,234,0
719,621,112,0
993,649,151,0
1106,648,163,0
1248,763,171,0
1165,728,154,0
988,666,64,0
890,559,-5,0
878,444,-18,0
789,350,-2,0
719,334,15,0
715,359,26,0
728,387,30,0
720,340,-4,0
835,277,-32,0
1071,307,-23,0
1134,321,19,0
902,334,49,0
931,360,47,0
1031,407,70,0
1010,471,167,0
936,539,302,0
919,546,330,0
1045,474,212,0
986,264,110,0
737,77,128,0
637,130,137,0
575,278,127,0
577,472,158,0
654,556,221,0
753,489,227,0
933,430,219,0
1092,349,147,0
1275,359,105,0
1182,478,173,0
1110,596,257,0
1063,602,218,0
987,463,104,0
1054,354,64,0
988,253,72,0
817,266,67,0
685,314,79,0
677,370,103,0
737,377,82,0
822,330,58,0
979,270,39,0
1100,222,5,0
1142,144,-26,0
1110,254,-3,0
977,417,124,0
777,525,248,0
804,502,266,0
916,348,144,0
880,187,46,0
788,144,108,0
730,272,166,0
726,422,128,0
755,544,134,0
798,588,197,0
896,594,237,0
1037,622,252,0
1100,601,213,0
1183,533,187,0
1169,447,172,0
1152,444,143,0
1181,484,93,0
1098,472,19,0
969,322,-77,0
987,306,-42,0
933,402,11,0
935,363,-58,0
924,285,-69,0
860,254,-46,0
862,269,-28,0
831,275,-28,0
815,281,-18,0
831,283,-40,0
818,263,-39,0
844,247,-28,0
863,344,28,0
1030,500,45,0
1029,641,152,0
993,659,216,0
977,629,190,0
996,623,243,0
870,545,259,0
644,553,233,0
497,634,207,0
473,695,161,0
528,726,122,0
637,642,126,0
838,583,116,0
1012,592,106,0
1153,643,111,0
1183,621,116,0
1226,598,129,0
1063,478,102,0
994,416,64,0
948,385,26,0
944,388,6,0
883,368,-5,0
769,326,-15,0
690,310,-3,0
674,311,2,0
717,311,9,0
761,299,20,0
808,266,2,0
851,240,-14,0
916,296,14,0
1047,396,73,0
1106,452,80,0
1266,602,194,0
1114,708,383,0
939,578,288,0
964,467,162,0
968,355,135,0
837,371,144,0
663,447,115,0
529,508,75,0
530,545,92,0
575,520,139,0
752,521,174,0
997,544,189,0
1244,530,163,0
1302,488,168,0
1235,475,193,0
1088,460,161,0
982,421,116,0
949,390,80,0
995,398,69,0
950,372,30,0
846,314,-9,0
771,294,6,0
778,299,6,0
795,298,-6,0
862,303,1,0
895,286,-8,0
853,257,-9,0
841,258,0,0
943,277,0,0
1099,336,-31,0
983,475,114,0
869,578,326,0
862,598,386,0
968,526,265,0
1011,260,149,0
938,79,194,0
869,230,227,0
793,428,203,0
715,588,249,0
681,599,299,0
749,513,298,0
919,424,224,0
1048,366,167,0
961,372,180,0
1048,465,215,0
1141,536,199,0
1186,491,122,0
1231,428,123,0
1089,362,113,0
971,374,57,0
1013,380,15,0
1111,354,-27,0
999,322,-34,0
835,360,-44,0
725,440,-93,0
610,681,-115,0
513,898,-93,0
430,784,5,0
378,533,38,0
433,410,50,0
502,411,133,0
550,410,183,0
705,374,179,0
857,299,157,0
1141,352,178,0
1432,457,250,0
1586,600,222,0
1368,645,78,0
1005,408,95,0
813,212,113,0
764,305,61,0
678,471,31,0
615,549,34,0
540,535,76,0
669,495,114,0
897,513,108,0
1143,621,88,0
1320,748,142,0
1283,741,185,0
1115,575,134,0
1107,447,17,0
1150,331,-98,0
1154,259,-145,0
1015,281,-69,0
858,340,-93,0
727,331,-115,0
659,315,-61,0
636,256,-25,0
612,146,-10,0
603,127,50,0
726,181,44,0
937,282,1,0
1220,379,-35,0
1336,458,-42,0
1422,630,88,0
1213,782,301,0
1022,766,249,0
933,554,110,0
965,271,48,0
885,105,71,0
746,172,91,0
614,353,75,0
546,511,81,0
486,546,112,0
549,503,160,0
749,470,144,0
989,482,134,0
1281,547,145,0
1413,559,86,0
1270,469,7,0
1095,329,-13,0
1094,275,-69,0
998,252,-133,0
963,211,-75,0
794,170,-123,0
702,220,-92,0
771,257,21,0
778,173,33,0
798,116,46,0
894,134,80,0
998,171,36,0
1099,261,-42,0
1095,327,-62,0
1087,384,-56,0
1087,469,-30,0
1066,565,-6,0
1000,753,201,0
923,741,218,0
875,526,53,0
975,206,-54,0
898,52,-38,0
728,134,11,0
657,347,69,0
614,514,140,0
569,502,170,0
581,433,232,0
731,345,272,0
997,286,247,0
1184,268,165,0
1296,370,116,0
1323,506,104,0
1208,607,102,0
927,516,22,0
951,403,-113,0
988,255,-184,0
948,180,-120,0
818,103,-162,0
713,138,-155,0
695,201,-115,0
744,201,-100,0
836,171,-79,0
865,211,-18,0
942,297,39,0
1101,329,13,0
1123,319,18,0
1005,312,107,0
1014,360,123,0
1041,395,106,0
1197,461,66,0
918,431,99,0
784,423,105,0
879,360,-81,0
877,160,-53,0
677,168,20,0
580,301,53,0
561,439,85,0
649,506,140,0
808,517,196,0
1006,377,139,0
1210,218,51,0
1122,172,66,0
1271,363,132,0
1174,551,127,0
1155,629,107,0
1106,489,48,0
1112,317,-16,0
1183,225,-38,0
1039,179,-42,0
849,246,-29,0
713,291,6,0
626,317,37,0
671,321,40,0
730,283,55,0
838,253,74,0
923,184,52,0
960,118,5,0
1008,178,26,0
1081,327,33,0
1204,478,33,0
1251,641,132,0
1110,635,202,0
989,520,182,0
950,291,108,0
795,207,66,0
731,274,74,0
667,361,63,0
642,457,70,0
577,478,139,0
654,489,230,0
935,572,277,0
1197,658,276,0
1407,677,218,0
1312,547,229,0
1309,418,227,0
1297,322,158,0
1262,284,16,0
1366,294,3,0
1194,278,47,0
915,289,31,0
798,316,-11,0
666,307,-51,0
644,296,-44,0
619,222,-20,0
658,183,6,0
753,172,18,0
856,187,35,0
966,201,43,0
1065,248,7,0
1362,396,-36,0
1531,664,136,0
1554,910,323,0
1200,861,225,0
951,466,155,0
821,16,151,0
820,48,99,0
763,271,22,0
637,536,0,0
546,670,119,0
617,686,255,0
922,652,265,0
1080,564,158,0
1191,508,165,0
1305,478,218,0
1353,476,166,0
1283,422,155,0
1304,301,79,0
1249,263,5,0
1096,247,-19,0
879,276,-3,0
707,332,-9,0
599,348,-22,0
628,329,-42,0
613,266,-41,0
653,218,-21,0
794,235,16,0
881,297,32,0
903,369,76,0
984,560,115,0
1004,871,85,0
942,1201,154,0
788,1250,319,0
708,1064,406,0
703,919,393,0
641,841,392,0
400,477,505,0
245,488,379,0
146,840,83,0
133,870,-18,0
167,868,34,0
206,918,-2,0
272,1038,-36,0
344,1111,-33,0
444,1150,-8,0
488,1059,-22,0
587,1158,32,0
727,1273,45,0
680,873,-3,0
591,673,155,0
488,697,212,0
528,501,242,0
682,185,482,0
379,685,358,0
51,1168,109,0
-8,883,201,0
38,885,443,0
140,1224,346,0
202,988,150,0
307,823,253,0
463,859,447,0
539,728,653,0
383,1063,531,0
266,1306,178,0
229,885,230,0
92,752,337,0
-53,748,144,0
-122,500,41,0
-2,527,-70,0
189,545,153,0
360,498,404,0
538,202,678,0
253,1689,749,0
208,1594,636,0
175,1235,387,0
275,1386,252,0
382,1210,90,0
412,1159,188,0
329,961,122,0
276,814,123,0
256,673,107,0
320,536,225,0
348,501,358,0
251,397,425,0
248,357,507,0
293,664,542,0
303,965,478,0
291,1032,259,0
408,1051,126,0
454,1018,186,0
332,1225,153,0
263,1499,326,0
330,1148,453,0
453,851,335,0
438,696,-24,0
524,592,29,0
511,550,332,0
309,556,316,0
199,694,311,0
138,789,353,0
28,924,370,0
25,1001,383,0
45,1115,399,0
119,1176,247,0
535,973,272,0
721,1021,520,0
496,1111,488,0
221,1059,264,0
162,896,168,0
217,815,199,0
249,907,199,0
219,968,203,0
220,779,223,0
164,593,283,0
190,594,382,0
180,642,363,0
183,793,295,0
335,1004,261,0
421,981,415,0
362,799,423,0
159,989,241,0
211,1333,262,0
369,1457,543,0
444,897,468,0
556,482,374,0
485,446,273,0
377,481,206,0
192,657,201,0
66,679,210,0
-4,739,223,0
-3,929,249,0
35,1005,371,0
231,970,602,0
265,992,618,0
206,1184,492,0
221,1437,350,0
285,1421,71,0
358,1154,65,0
404,877,160,0
337,704,188,0
330,777,235,0
372,809,270,0
371,710,305,0
311,569,330,0
238,562,378,0
153,584,364,0
148,791,378,0
205,940,395,0
297,879,314,0
393,827,348,0
413,1022,416,0
314,1171,283,0
167,1444,278,0
228,1350,357,0
354,905,322,0
422,584,187,0
370,539,72,0
275,545,116,0
173,621,223,0
21,772,228,0
-36,826,227,0
-13,891,315,0
48,959,354,0
105,1201,415,0
299,1087,521,0
425,1147,553,0
384,1458,235,0
267,1337,29,0
323,1000,115,0
341,838,203,0
260,826,172,0
261,786,168,0
293,724,174,0
275,606,204,0
217,623,253,0
144,738,261,0
107,891,269,0
171,874,312,0
322,788,386,0
495,978,415,0
552,677,523,0
491,972,461,0
341,892,474,0
208,1280,335,0
178,1311,343,0
327,900,396,0
567,404,754,0
114,871,262,0
99,547,68,0
78,538,263,0
131,620,447,0
-50,572,357,0
-228,748,233,0
-182,1174,300,0
61,1498,609,0
199,1514,677,0
447,1098,454,0
746,908,621,0
442,520,345,0
293,992,258,0
358,921,479,0
149,729,364,0
129,671,299,0
149,544,323,0
182,556,313,0
168,719,267,0
59,927,148,0
223,974,267,0
465,774,643,0
536,641,787,0
206,1171,512,0
56,1512,431,0
185,1350,543,0
314,840,406,0
506,530,290,0
638,303,279,0
524,331,321,0
216,688,293,0
139,759,409,0
-11,715,440,0
-200,890,296,0
-203,999,253,0
284,995,851,0
299,910,801,0
231,1147,297,0
228,1064,67,0
339,1447,336,0
488,1193,518,0
463,910,569,0
346,690,364,0
318,648,292,0
331,592,284,0
368,553,373,0
305,512,425,0
298,664,431,0
245,994,258,0
356,907,333,0
267,710,358,0
199,1086,314,0
182,1447,491,0
234,1348,721,0
427,755,729,0
543,482,472,0
585,502,253,0
544,662,274,0
405,575,344,0
218,600,312,0
140,702,412,0
87,720,444,0
12,901,422,0
-80,1157,297,0
35,962,384,0
147,1260,667,0
346,1303,716,0
241,1278,278,0
450,1189,421,0
452,802,286,0
281,821,29,0
214,957,15,0
219,770,110,0
171,662,144,0
131,601,193,0
255,573,468,0
437,631,713,0
469,620,747,0
411,718,539,0
415,875,355,0
461,826,398,0
214,1185,374,0
-35,1630,393,0
46,1152,443,0
157,713,334,0
211,669,125,0
328,851,244,0
508,349,404,0
511,244,559,0
301,432,561,0
129,666,511,0
29,815,415,0
-123,1063,206,0
-71,1176,214,0
-23,1308,447,0
315,1488,663,0
465,1315,571,0
546,1110,428,0
433,1019,333,0
420,977,188,0
182,1116,-111,0
72,1029,-254,0
22,899,-239,0
9,767,-160,0
-23,677,-26,0
-122,688,67,0
-210,601,128,0
-302,751,217,0
-307,776,355,0
-306,922,408,0
-278,796,501,0
-254,868,556,0
-357,1093,563,0
-234,1092,530,0
-166,952,508,0
-149,848,474,0
-158,740,417,0
-185,606,391,0
-227,612,443,0
-288,593,449,0
-352,633,468,0
-345,621,520,0
-367,611,545,0
-400,776,603,0
-401,844,626,0
-436,955,620,0
-374,972,574,0
-366,1024,532,0
-311,1092,517,0
-237,949,434,0
-223,819,350,0
-262,858,320,0
-225,784,289,0
-183,656,303,0
-186,665,357,0
-211,698,396,0
-239,749,437,0
-245,774,460,0
-267,776,471,0
-310,870,497,0
-270,889,505,0
-272,963,524,0
-220,1041,510,0
-186,1087,487,0
-71,1138,475,0
36,902,390,0
42,810,307,0
-23,846,327,0
-66,878,381,0
-128,828,413,0
-207,790,446,0
-279,809,405,0
-303,739,378,0
-350,689,403,0
-380,676,465,0
-406,690,487,0
-428,804,514,0
-487,934,597,0
-384,1077,610,0
-332,1292,583,0
-159,995,551,0
-89,758,574,0
-62,756,623,0
-55,703,577,0
-50,519,509,0
-59,412,471,0
-126,533,448,0
-195,624,401,0
-350,743,410,0
-490,861,421,0
-560,865,442,0
-576,888,451,0
-607,980,491,0
-570,1059,458,0
-533,1070,344,0
-452,1071,310,0
-315,1025,310,0
-203,941,313,0
-201,877,337,0
-221,811,324,0
-202,710,316,0
-288,651,320,0
-390,685,278,0
-444,807,238,0
-656,999,-166,0
-356,906,240,0
-316,756,620,0
-495,1067,602,0
-370,947,171,0
-408,919,170,0
-460,756,140,0
-543,786,120,0
-465,764,120,0
-432,767,162,0
-432,701,215,0
-426,706,247,0
-438,755,293,0
-464,726,312,0
-504,760,315,0
-595,803,271,0
-589,862,272,0
-487,893,350,0
-456,1026,436,0
-356,1052,358,0
-333,1168,233,0
-242,1088,163,0
-233,928,196,0
-280,817,175,0
-300,694,163,0
-310,697,239,0
-345,692,263,0
-351,724,231,0
-361,700,242,0
-354,705,287,0
-483,911,298,0
-479,1016,370,0
-452,1012,505,0
-485,1138,544,0
-458,1218,400,0
-438,1270,332,0
-280,982,292,0
-264,766,332,0
-266,737,357,0
-263,678,434,0
-253,589,466,0
-253,577,482,0
-261,535,500,0
-280,519,517,0
-323,578,558,0
-343,698,603,0
-377,821,670,0
-320,866,708,0
-328,980,754,0
-297,888,683,0
-246,963,692,0
-161,853,664,0
-99,756,623,0
-67,743,593,0
-65,541,476,0
-129,512,429,0
-210,524,423,0
-270,486,439,0
-381,656,466,0
-471,641,503,0
-606,712,564,0
-675,822,613,0
-735,919,614,0
-651,1211,676,0
-471,1202,582,0
-412,1023,460,0
-368,853,400,0
-311,757,367,0
-352,805,373,0
-297,768,390,0
-273,666,378,0
-253,569,368,0
-255,545,395,0
-308,554,427,0
-344,600,503,0
-411,729,592,0
-358,778,628,0
-442,918,672,0
-420,865,655,0
-433,979,672,0
-352,916,639,0
-304,831,590,0
-303,714,557,0
-254,584,545,0
-237,554,522,0
-311,552,488,0
-371,531,484,0
-389,549,525,0
-392,526,566,0
-485,611,581,0
-550,756,655,0
-490,767,680,0
-499,748,618,0
-571,882,635,0
-546,846,580,0
-498,927,568,0
-460,921,525,0
-388,790,439,0
-416,775,362,0
-412,715,380,0
-354,603,417,0
-366,576,440,0
-394,568,455,0
-418,615,494,0
-404,622,524,0
-445,615,537,0
-519,643,557,0
-560,693,609,0
-540,684,668,0
-536,776,742,0
-543,867,733,0
-394,832,677,0
-288,803,591,0
-250,741,526,0
-209,678,536,0
-217,582,538,0
-260,572,529,0
-298,526,514,0
-357,459,463,0
-430,473,465,0
-467,541,503,0
-581,690,464,0
-659,867,468,0
-679,942,320,0
-755,1103,200,0
-673,1166,50,0
-594,1247,-91,0
-424,1001,-87,0
-369,851,-143,0
-419,805,-221,0
-401,821,-228,0
-326,707,-145,0
-280,716,-56,0
-285,774,-7,0
-324,701,-2,0
-364,766,-38,0
-390,877,-61,0
-401,949,-83,0
-421,951,-98,0
-457,1085,-153,0
-493,1196,-215,0
-342,1179,-191,0
-286,1042,-144,0
-300,929,-122,0
-264,832,-115,0
-240,645,-51,0
-268,737,13,0
-342,697,-61,0
-406,701,-68,0
-448,758,-47,0
-494,754,19,0
-564,874,-62,0
-580,951,-74,0
-598,1155,-173,0
-556,1075,-239,0
-428,1097,-241,0
-433,1103,-259,0
-410,846,-296,0
-414,803,-259,0
-387,737,-168,0
-326,557,-72,0
-332,686,24,0
-370,693,-8,0
-442,762,-72,0
-497,795,-39,0
-509,874,-15,0
-522,879,-52,0
-531,976,50,0
-543,1103,19,0
-597,1001,-131,0
-499,1061,-79,0
-393,985,-64,0
-342,928,-85,0
-350,781,-76,0
-357,656,-96,0
-416,694,-110,0
-491,708,-134,0
-517,687,-103,0
-507,749,-51,0
-517,784,-30,0
-531,825,-20,0
-527,855,-72,0
-661,993,-152,0
-643,1046,-210,0
-587,1090,-262,0
-501,902,-188,0
-450,873,-203,0
-508,831,-357,0
-489,729,-285,0
-393,751,-185,0
-357,668,-153,0
-316,639,20,0
-338,778,-85,0
-447,760,-71,0
-473,829,-98,0
-577,904,-117,0
-556,883,-98,0
-590,948,-76,0
-595,1061,-39,0
-579,1053,-60,0
-440,1014,-58,0
-327,926,-45,0
-280,878,-71,0
-315,852,-53,0
-290,706,15,0
-329,726,59,0
-412,729,29,0
-452,740,11,0
-459,798,50,0
-427,775,134,0
-459,869,124,0
-524,1008,61,0
-602,1049,4,0
-615,1118,-96,0
-597,1121,-152,0
-460,1128,-190,0
-358,1019,-177,0
-349,801,-303,0
-336,866,-391,0
-291,906,-307,0
-291,727,-192,0
-280,711,15,0
-305,702,51,0
-385,713,34,0
-395,723,75,0
-395,885,7,0
-398,852,-155,0
-417,900,-88,0
-465,961,-127,0
-504,1060,-132,0
-523,1061,-224,0
-485,1140,-286,0
-326,1102,-255,0
-231,958,-230,0
-255,800,-214,0
-281,639,-164,0
-348,674,-118,0
-433,652,-152,0
-505,654,-183,0
-504,729,-154,0
-527,764,-117,0
-570,871,-151,0
-576,959,-215,0
-582,948,-199,0
-584,976,-263,0
-670,991,-337,0
-570,1026,-363,0
-491,925,-379,0
-452,783,-410,0
-436,713,-414,0
-387,671,-337,0
-373,634,-243,0
-393,659,-177,0
-400,684,-139,0
-434,700,-127,0
-470,738,-128,0
-501,781,-120,0
-544,776,-169,0
-540,801,-167,0
-559,908,-163,0
-576,1088,-255,0
-567,987,-296,0
-487,1043,-331,0
-435,1016,-341,0
-339,923,-338,0
-299,758,-322,0
-290,670,-278,0
-339,709,-200,0
-387,616,-176,0
-435,583,-200,0
-477,652,-195,0
-504,724,-162,0
-575,819,-217,0
-629,919,-305,0
-650,948,-361,0
-670,1015,-432,0
-588,977,-465,0
-465,996,-450,0
-406,938,-434,0
-369,798,-411,0
-386,750,-463,0
-372,735,-434,0
-336,700,-274,0
-365,640,-199,0
-392,596,-193,0
-423,663,-171,0
-400,775,-160,0
-399,794,-157,0
-388,769,-169,0
-327,729,-120,0
-161,855,24,0
-12,744,59,0
146,555,-27,0
360,608,-62,0
629,631,25,0
1056,529,19,0
1628,577,-112,0
1932,714,-156,0
1597,904,-68,0
1051,913,-51,0
823,713,-17,0
857,512,19,0
846,468,88,0
882,561,154,0
934,676,158,0
974,754,211,0
1152,810,281,0
1107,727,282,0
1232,676,280,0
1261,550,202,0
1249,454,91,0
1279,406,58,0
1241,358,34,0
1006,316,9,0
876,318,24,0
772,319,25,0
708,307,26,0
692,277,31,0
716,242,43,0
807,227,59,0
817,199,72,0
911,184,78,0
895,222,101,0
1002,368,129,0
1080,518,231,0
1173,586,345,0
1280,517,285,0
1222,384,134,0
1062,297,129,0
945,327,202,0
830,466,166,0
729,651,137,0
625,727,181,0
763,905,232,0
948,957,189,0
1056,1011,182,0
1162,1068,160,0
1146,994,94,0
1189,1034,86,0
1376,1082,-28,0
1579,1115,-177,0
1610,1544,-298,0
1613,1529,-217,0
1213,863,-76,0
791,737,24,0
542,651,179,0
210,522,323,0
30,472,391,0
-128,218,480,0
-189,164,606,0
-283,139,618,0
-452,109,577,0
-744,286,473,0
-899,495,434,0
-957,536,202,0
-877,531,167,0
-798,273,206,0
-798,99,264,0
-792,68,229,0
-762,-103,200,0
-767,-91,178,0
-725,13,272,0
-701,27,297,0
-729,-66,139,0
-825,-217,161,0
-889,-367,38,0
-1296,-504,-99,0
-1360,-133,-262,0
-1517,207,-342,0
-1300,197,-250,0
-1132,111,-282,0
-1030,119,-342,0
-906,211,-272,0
-766,101,-209,0
-704,3,-193,0
-649,-13,-202,0
-582,-44,-162,0
-520,227,-226,0
-550,520,-189,0
-465,376,-159,0
-193,656,-88,0
-95,923,-81,0
91,1221,114,0
373,823,388,0
795,142,350,0
1505,49,378,0
1949,358,289,0
1889,862,214,0
1346,987,194,0
740,844,278,0
745,623,305,0
755,544,308,0
697,564,311,0
831,718,279,0
965,816,238,0
1158,893,238,0
1246,875,241,0
1245,769,208,0
1187,645,154,0
1298,567,85,0
1456,428,9,0
1185,247,-22,0
952,259,22,0
826,344,55,0
705,400,45,0
653,397,42,0
668,336,58,0
676,246,52,0
775,193,105,0
782,164,184,0
929,193,211,0
922,247,195,0
995,370,224,0
1088,501,322,0
1208,632,443,0
1332,714,530,0
1136,609,452,0
919,412,438,0
830,259,417,0
754,333,350,0
718,491,311,0
678,617,315,0
751,731,324,0
916,759,304,0
1018,667,288,0
1265,613,253,0
1217,502,218,0
1304,510,194,0
1234,496,202,0
1316,462,111,0
1220,398,54,0
1175,370,90,0
962,316,102,0
761,298,103,0
641,291,119,0
627,295,144,0
579,249,158,0
584,198,187,0
680,167,224,0
799,170,272,0
1012,160,236,0
1168,215,177,0
1435,400,187,0
1617,705,395,0
977,655,272,0
903,290,203,0
825,108,201,0
794,194,171,0
687,363,121,0
566,545,110,0
549,575,128,0
688,567,130,0
918,637,215,0
1009,789,350,0
1182,928,374,0
1142,758,268,0
1174,461,248,0
1357,290,271,0
1434,316,210,0
1365,342,118,0
1321,349,145,0
1182,331,158,0
929,301,77,0
769,311,49,0
738,343,46,0
710,324,55,0
693,283,90,0
713,214,128,0
736,145,155,0
877,97,147,0
912,89,111,0
990,238,90,0
1249,484,189,0
1481,680,293,0
1506,694,289,0
1249,546,193,0
980,424,252,0
907,303,231,0
897,333,173,0
864,452,94,0
747,591,114,0
602,738,210,0
714,876,299,0
912,976,307,0
1194,1059,270,0
1379,740,223,0
1552,494,272,0
1572,389,244,0
1609,424,118,0
1650,464,17,0
1613,431,23,0
1290,317,-8,0
986,270,-43,0
780,267,-55,0
686,299,-55,0
648,289,-30,0
618,237,8,0
609,181,49,0
600,142,104,0
671,134,168,0
812,150,142,0
989,220,148,0
1328,398,166,0
1721,626,289,0
1970,825,398,0
1715,916,290,0
1156,679,223,0
945,113,292,0
921,105,232,0
803,460,149,0
666,731,126,0
593,808,149,0
716,801,196,0
954,701,233,0
1156,615,267,0
1390,480,183,0
1383,494,70,0
1457,512,-95,0
1565,464,-202,0
1446,486,-230,0
1374,597,-321,0
1236,663,-322,0
1068,737,-282,0
876,648,-217,0
529,669,-278,0
192,976,-359,0
104,937,-321,0
7,1010,-243,0
-148,964,-251,0
-242,1106,-199,0
-417,897,-96,0
-577,827,-28,0
-637,653,50,0
-467,671,153,0
-273,338,180,0
-240,332,192,0
-283,385,178,0
-500,387,90,0
-800,360,-36,0
-928,345,-78,0
-845,201,0,0
-888,107,68,0
-915,-31,172,0
-1028,-184,223,0
-1069,-177,267,0
-1104,-167,193,0
-1250,-270,128,0
-1244,-20,164,0
-1234,-79,-1,0
-1136,-152,-50,0
-1003,-83,-39,0
-1041,-82,-66,0
-948,-23,-8,0
-893,12,85,0
-826,-82,105,0
-798,3,142,0
-822,-45,122,0
-885,79,116,0
-966,208,139,0
-998,135,191,0
-1080,81,256,0
-1270,50,247,0
-1369,6,200,0
-1270,184,211,0
-1100,374,236,0
-931,543,308,0
-993,493,317,0
-1113,168,250,0
-1304,-370,246,0
-1307,60,149,0
-1098,-118,18,0
-981,-249,-124,0
-795,-289,-26,0
-629,-243,140,0
-496,-230,281,0
-548,-407,479,0
-499,-456,697,0
-614,-576,786,0
-658,-590,699,0
-1096,-939,632,0
-909,-559,554,0
-822,-505,431,0
-712,-378,358,0
-654,-306,401,0
-556,-239,395,0
-436,-236,476,0
-342,-281,463,0
-379,-430,411,0
-527,-284,434,0
-565,-281,472,0
-554,-534,435,0
-619,-694,432,0
-613,-707,398,0
-611,-1078,184,0
-656,-1016,410,0
-625,-883,513,0
-672,-885,541,0
-491,-804,786,0
-562,-612,680,0
-586,-650,527,0
-593,-665,336,0
-754,-545,265,0
-694,-454,419,0
-757,-504,487,0
-664,-647,576,0
-802,-544,520,0
-793,-627,454,0
-784,-667,449,0
-895,-658,454,0
-874,-606,454,0
-987,-512,379,0
-1086,-376,340,0
-998,-382,326,0
-941,-394,297,0
-909,-364,322,0
-808,-350,345,0
-722,-323,326,0
-733,-314,276,0
-747,-262,266,0
-807,-229,285,0
-869,-186,381,0
-841,-246,457,0
-840,-364,471,0
-918,-435,419,0
-1024,-442,465,0
-1018,-448,424,0
-1164,-358,449,0
-1116,-21,489,0
-1007,37,424,0
-825,-51,412,0
-751,-71,470,0
-757,-69,446,0
-780,-106,368,0
-751,-152,346,0
-754,-115,332,0
-918,-60,510,0
-1066,-142,446,0
-1039,-304,365,0
-1021,-260,370,0
-1110,-198,231,0
-1256,-156,130,0
-1011,-209,188,0
-976,-109,-1,0
-780,-189,-39,0
-550,-170,-157,0
-594,-43,-417,0
-644,35,-472,0
-580,111,-663,0
-924,144,-744,0
-893,168,-444,0
-712,124,-584,0
-725,125,-817,0
-593,149,-615,0
-531,261,-919,0
-499,91,-1108,0
-510,194,-991,0
-509,336,-962,0
-409,218,-1304,0
-244,288,-1202,0
-226,264,-1367,0
-244,134,-1341,0
-313,113,-983,0
-360,6,-679,0
-334,-36,-399,0
-293,-49,-426,0
-307,0,-877,0
-416,53,-986,0
-640,259,-1059,0
-761,311,-1060,0
-811,381,-959,0
-754,317,-985,0
-611,302,-896,0
-549,258,-839,0
-487,289,-869,0
-455,198,-724,0
-463,218,-688,0
-422,318,-701,0
-441,371,-599,0
-422,409,-500,0
-477,395,-488,0
-495,442,-512,0
-510,467,-521,0
-523,507,-564,0
-595,531,-592,0
-650,586,-633,0
-688,613,-713,0
-757,557,-747,0
-618,468,-849,0
-535,554,-791,0
-375,524,-685,0
-358,480,-642,0
-436,465,-537,0
-506,473,-470,0
-564,440,-510,0
-600,403,-541,0
-615,409,-562,0
-639,417,-552,0
-690,401,-604,0
-720,429,-650,0
-767,452,-669,0
-765,438,-754,0
-765,516,-787,0
-706,501,-805,0
-639,477,-747,0
-622,373,-709,0
-603,340,-682,0
-590,375,-581,0
-556,406,-484,0
-525,442,-399,0
-530,426,-366,0
-544,421,-405,0
-585,441,-485,0
-602,495,-551,0
-645,541,-587,0
-658,509,-697,0
-742,471,-816,0
-722,569,-962,0
-628,672,-858,0
-531,582,-707,0
-485,466,-602,0
-576,406,-517,0
-638,394,-464,0
-636,341,-441,0
-651,260,-454,0
-703,213,-491,0
-756,286,-552,0
-788,337,-641,0
-889,342,-778,0
-823,464,-841,0
-745,529,-916,0
-696,547,-879,0
-599,504,-733,0
-484,335,-632,0
-431,242,-579,0
-418,314,-471,0
-471,372,-482,0
-553,396,-503,0
-585,417,-595,0
-603,470,-664,0
-639,450,-704,0
-706,441,-692,0
-762,439,-712,0
-774,415,-732,0
-672,323,-813,0
-641,377,-818,0
-546,439,-733,0
-470,421,-678,0
-481,363,-635,0
-580,343,-590,0
-586,322,-590,0
-596,281,-623,0
-580,249,-621,0
-637,198,-646,0
-753,269,-680,0
-745,298,-703,0
-755,243,-751,0
-762,254,-756,0
-788,428,-724,0
-778,329,-858,0
-762,129,-756,0
-799,305,-644,0
-624,265,-637,0
-623,372,-601,0
-525,360,-616,0
-453,403,-514,0
-574,21,-617,0
-763,74,-503,0
-660,890,-764,0
-631,20,-730,0
-684,145,-833,0
-696,88,-900,0
-752,87,-878,0
-739,99,-765,0
-702,-39,-767,0
-721,16,-859,0
-586,120,-844,0
-538,-97,-794,0
-567,-80,-679,0
-596,-20,-651,0
-690,105,-754,0
-739,141,-704,0
-707,103,-673,0
-654,-27,-620,0
-688,-68,-588,0
-708,-31,-617,0
-680,10,-660,0
-700,75,-767,0
-750,140,-731,0
-679,13,-693,0
-602,-10,-847,0
-711,-133,-858,0
-818,-502,-1006,0
-672,-231,-703,0
-597,115,-894,0
-734,-22,-813,0
-506,-127,-657,0
-619,-154,-624,0
-709,-87,-658,0
-694,-33,-695,0
-667,-57,-675,0
-668,-103,-612,0
-709,-140,-616,0
-745,-161,-648,0
-725,-193,-644,0
-718,-249,-631,0
-717,-276,-645,0
-707,-304,-712,0
-617,-299,-775,0
-577,-294,-782,0
-623,-272,-738,0
-738,-253,-735,0
-739,-224,-836,0
-722,-254,-753,0
-693,-250,-615,0
-699,-168,-573,0
-693,-153,-643,0
-720,-126,-667,0
-712,-124,-652,0
-655,-76,-671,0
-634,-125,-698,0
-654,-200,-739,0
-645,-228,-730,0
-488,-280,-730,0
-675,-165,-761,0
-489,-141,-761,0
-436,-114,-857,0
-649,48,-889,0
-605,70,-812,0
-331,65,-914,0
-977,-32,-601,0
-514,227,-725,0
-567,140,-527,0
-620,175,-506,0
-370,628,-483,0
-585,849,-446,0
-370,948,-28,0
-411,1279,217,0
-361,1063,444,0
-307,861,686,0
-115,566,1014,0
46,489,1170,0
27,556,1086,0
-140,354,966,0
-227,289,848,0
-278,313,734,0
-301,317,706,0
-339,249,717,0
-623,177,782,0
-564,657,718,0
-171,161,838,0
-264,112,933,0
-364,510,978,0
-320,568,1012,0
-251,450,1088,0
-224,311,948,0
-256,456,840,0
-251,373,896,0
-223,226,921,0
-164,210,887,0
-104,188,854,0
-105,86,858,0
-5,-184,755,0
-124,603,1048,0
-237,-7,1021,0
-220,30,966,0
-193,71,1060,0
-211,200,1091,0
111,-728,1091,0
141,-395,1218,0
274,-131,1132,0
534,-40,997,0
239,-150,947,0
31,14,883,0
-63,-19,861,0
-101,-102,868,0
-107,-147,868,0
-101,-157,912,0
-104,-224,992,0
-47,-277,927,0
8,-95,778,0
33,469,599,0
-55,911,618,0
-41,955,637,0
-118,978,534,0
14,826,673,0
33,733,836,0
143,764,862,0
161,506,930,0
211,380,862,0
215,277,826,0
108,308,872,0
24,437,895,0
75,548,974,0
221,472,1081,0
429,439,1078,0
513,503,994,0
424,627,907,0
331,879,894,0
271,871,789,0
283,692,712,0
316,581,665,0
310,464,621,0
223,443,502,0
143,409,475,0
142,566,507,0
248,513,712,0
309,511,936,0
284,489,954,0
279,618,912,0
278,696,825,0
306,651,847,0
360,789,859,0
358,921,873,0
362,836,729,0
295,709,646,0
177,641,579,0
136,881,548,0
165,916,520,0
242,673,475,0
250,599,454,0
278,454,519,0
223,659,435,0
276,639,397,0
334,858,252,0
282,906,217,0
210,961,404,0
200,1175,399,0
300,1270,386,0
388,1046,448,0
533,845,644,0
542,739,456,0
566,781,273,0
406,693,334,0
220,703,374,0
43,688,317,0
-53,687,296,0
-41,691,298,0
-31,787,265,0
-5,935,306,0
163,975,395,0
199,1084,534,0
238,1150,712,0
267,957,213,0
502,1096,162,0
307,1603,47,0
189,1042,-68,0
249,730,-83,0
199,922,-88,0
179,768,-115,0
148,637,-151,0
87,671,-87,0
16,686,-128,0
-41,662,-291,0
80,684,-117,0
227,1125,14,0
111,1209,38,0
97,1292,76,0
241,1462,1,0
348,1349,-64,0
413,935,-129,0
434,704,-42,0
540,827,44,0
189,411,-225,0
201,702,-96,0
154,637,-114,0
54,825,-53,0
41,944,97,0
-116,1045,263,0
-110,1133,149,0
-8,1191,5,0
-31,1187,-56,0
90,1303,-184,0
221,1365,-254,0
309,1371,-37,0
298,1041,-97,0
184,850,-174,0
172,870,-227,0
121,839,-159,0
145,780,-27,0
113,692,22,0
90,682,68,0
37,691,4,0
90,828,-102,0
196,897,-55,0
300,959,38,0
299,1105,163,0
166,1141,92,0
101,1282,63,0
93,1467,88,0
283,1309,122,0
331,929,169,0
358,631,15,0
241,635,-110,0
134,541,-121,0
26,453,-158,0
0,673,-206,0
75,778,-133,0
4,907,240,0
58,1425,406,0
86,1431,305,0
235,1229,162,0
247,1328,-294,0
383,1320,-484,0
331,1070,-328,0
246,809,-226,0
239,762,-189,0
329,851,-103,0
380,711,45,0
231,509,327,0
74,798,141,0
96,960,-47,0
291,1052,27,0
367,855,157,0
267,967,-199,0
246,819,-185,0
191,1209,0,0
74,1487,166,0
182,1324,294,0
438,880,341,0
519,659,80,0
373,662,-49,0
355,566,26,0
244,449,20,0
203,574,117,0
55,865,224,0
-88,1247,55,0
0,1062,-25,0
-35,1199,8,0
299,1309,175,0
341,1121,-79,0
537,1336,-505,0
491,1366,-410,0
488,1018,-359,0
425,998,-31,0
371,602,239,0
240,651,223,0
222,315,288,0
144,233,464,0
71,279,623,0
141,499,834,0
401,243,837,0
590,603,719,0
755,911,766,0
553,908,977,0
380,921,870,0
330,1025,811,0
432,772,1096,0
489,745,538,0
591,87,304,0
449,332,548,0
159,589,521,0
194,577,427,0
249,274,437,0
358,177,601,0
488,277,1026,0
451,300,1362,0
554,199,916,0
637,800,988,0
826,545,946,0
852,904,785,0
620,715,542,0
585,555,479,0
499,702,569,0
453,487,635,0
386,525,530,0
328,576,577,0
305,450,600,0
262,528,627,0
289,557,593,0
299,516,513,0
385,473,549,0
476,326,820,0
473,297,1092,0
551,449,1154,0
557,651,1391,0
549,553,1094,0
715,507,624,0
572,442,254,0
363,423,313,0
269,582,390,0
215,475,485,0
347,321,596,0
407,248,720,0
317,244,862,0
259,463,835,0
219,311,765,0
449,594,1257,0
618,513,1378,0
623,855,1182,0
421,845,880,0
413,637,507,0
475,616,488,0
492,417,696,0
483,259,737,0
508,43,535,0
264,650,539,0
180,612,599,0
188,606,641,0
271,676,583,0
362,738,587,0
573,651,707,0
568,357,836,0
408,509,1008,0
663,403,1121,0
769,265,808,0
823,349,404,0
736,231,410,0
645,225,413,0
582,281,473,0
366,211,856,0
347,285,852,0
414,303,775,0
537,157,1026,0
520,187,947,0
652,291,1034,0
835,467,1057,0
822,696,827,0
747,429,565,0
638,374,311,0
659,397,502,0
724,363,599,0
591,205,592,0
370,340,564,0
308,606,755,0
166,479,713,0
394,356,568,0
286,577,635,0
669,607,532,0
575,479,938,0
617,239,1354,0
843,208,1026,0
615,764,831,0
569,357,696,0
569,279,661,0
397,376,524,0
429,599,30,0
689,164,459,0
696,225,957,0
372,525,615,0
402,694,551,0
360,674,726,0
498,584,922,0
513,491,803,0
598,472,1001,0
649,824,858,0
497,1203,120,0
643,971,208,0
601,508,266,0
447,660,503,0
570,503,517,0
513,454,646,0
324,450,485,0
466,441,390,0
408,636,598,0
591,773,625,0
538,525,563,0
558,550,456,0
501,929,477,0
567,1263,595,0
538,1157,847,0
418,857,707,0
583,146,729,0
338,175,660,0
411,275,569,0
346,117,487,0
341,410,349,0
375,621,451,0
589,687,744,0
369,274,889,0
339,206,988,0
419,115,1019,0
551,437,1152,0
772,506,1152,0
678,439,978,0
611,503,595,0
488,586,483,0
507,316,796,0
445,322,886,0
181,471,653,0
219,417,663,0
297,419,560,0
355,538,505,0
549,534,628,0
794,372,740,0
747,267,804,0
720,491,739,0
726,624,814,0
650,607,898,0
619,391,898,0
571,206,764,0
552,425,542,0
835,617,368,0
134,224,479,0
387,349,404,0
354,162,539,0
348,358,674,0
307,488,770,0
377,349,884,0
380,263,1044,0
388,183,1107,0
344,460,1010,0
626,304,900,0
803,497,1106,0
839,297,743,0
814,361,743,0
710,194,478,0
525,174,529,0
517,211,831,0
437,401,1032,0
243,416,913,0
156,135,492,0
248,358,752,0
208,414,703,0
346,477,745,0
479,414,655,0
665,267,823,0
784,69,948,0
814,185,1063,0
658,451,1146,0
640,340,1029,0
716,249,982,0
613,408,771,0
453,459,477,0
482,333,439,0
436,107,477,0
347,323,461,0
519,-30,564,0
540,213,559,0
693,190,987,0
616,216,1258,0
657,410,927,0
658,1072,722,0
736,586,1048,0
521,597,973,0
512,597,534,0
649,286,766,0
526,224,935,0
294,650,657,0
229,642,416,0
223,459,390,0
289,313,418,0
424,303,539,0
499,396,640,0
801,364,758,0
405,229,901,0
528,418,915,0
420,851,969,0
420,615,1190,0
380,428,1080,0
529,285,783,0
564,515,439,0
556,453,418,0
561,249,537,0
430,216,580,0
314,345,669,0
216,517,709,0
181,739,702,0
244,675,931,0
428,174,1120,0
521,472,927,0
720,721,957,0
682,552,989,0
466,102,1036,0
401,195,803,0
337,291,621,0
398,290,576,0
389,65,609,0
461,390,559,0
408,429,553,0
434,566,692,0
399,519,709,0
567,394,763,0
539,397,913,0
499,554,1042,0
534,723,1138,0
476,490,1165,0
492,542,825,0
589,404,559,0
573,593,420,0
571,676,336,0
479,398,368,0
373,441,488,0
319,401,617,0
355,341,690,0
338,362,691,0
364,576,779,0
360,541,863,0
474,542,841,0
654,577,949,0
689,808,814,0
735,905,531,0
661,768,449,0
650,625,569,0
774,447,876,0
613,122,946,0
424,-19,628,0
283,638,214,0
191,769,253,0
152,616,485,0
262,622,654,0
358,407,627,0
388,713,673,0
528,521,887,0
660,233,1168,0
614,307,1409,0
554,560,971,0
563,614,603,0
533,552,464,0
424,552,417,0
476,99,642,0
398,81,796,0
292,300,784,0
262,226,685,0
264,164,728,0
292,347,918,0
302,348,1201,0
361,415,987,0
494,421,1018,0
581,672,895,0
638,484,886,0
475,461,859,0
524,541,975,0
427,295,883,0
270,190,687,0
85,506,554,0
147,235,570,0
127,253,556,0
169,463,578,0
236,550,567,0
363,617,703,0
545,239,918,0
386,197,1053,0
277,626,1161,0
294,627,1364,0
497,168,1373,0
591,-44,1124,0
543,224,819,0
594,363,797,0
557,459,599,0
510,114,439,0
382,127,246,0
357,351,550,0
343,396,782,0
143,483,776,0
60,552,891,0
161,465,1102,0
184,452,1134,0
338,432,1137,0
635,608,1087,0
668,637,1012,0
629,509,813,0
513,516,664,0
499,285,770,0
478,44,786,0
333,71,728,0
253,294,730,0
198,444,710,0
232,583,683,0
244,555,627,0
272,603,612,0
400,445,659,0
521,515,753,0
644,470,988,0
627,293,1318,0
432,419,1393,0
232,499,1005,0
-194,235,835,0
547,181,449,0
483,404,386,0
379,496,771,0
319,456,772,0
262,23,497,0
342,170,465,0
474,603,785,0
395,296,1364,0
396,65,1482,0
386,449,1170,0
500,1059,801,0
725,767,650,0
776,462,572,0
602,348,564,0
542,277,624,0
602,130,599,0
535,-57,698,0
259,-12,873,0
121,241,904,0
150,198,954,0
274,295,944,0
489,283,868,0
933,211,656,0
854,-34,780,0
641,472,867,0
649,256,1139,0
545,255,1225,0
644,65,940,0
713,-157,653,0
601,404,509,0
594,527,385,0
574,261,457,0
464,91,791,0
278,180,754,0
330,0,780,0
350,260,965,0
380,294,940,0
499,353,1105,0
521,247,1020,0
802,216,903,0
725,323,889,0
623,872,613,0
745,569,518,0
767,355,665,0
720,404,615,0
653,281,601,0
644,436,436,0
450,438,392,0
305,231,482,0
294,480,777,0
291,476,910,0
456,418,677,0
639,579,689,0
642,386,859,0
628,448,798,0
629,674,840,0
685,693,709,0
797,649,557,0
668,256,581,0
788,-200,720,0
861,191,751,0
579,338,897,0
357,409,542,0
279,399,144,0
485,390,413,0
628,169,638,0
598,132,734,0
535,155,825,0
455,-143,1123,0
567,200,1236,0
750,218,1108,0
670,810,952,0
878,744,552,0
619,749,394,0
501,435,472,0
593,376,534,0
729,166,657,0
678,-117,677,0
491,138,441,0
445,315,645,0
462,295,818,0
520,388,745,0
770,484,603,0
771,276,757,0
692,421,694,0
763,107,579,0
983,480,724,0
926,537,626,0
902,461,511,0
884,517,402,0
779,460,286,0
677,406,217,0
535,353,149,0
426,380,96,0
457,446,125,0
539,527,232,0
709,560,317,0
1009,550,400,0
1402,526,443,0
531,757,312,0
1097,467,447,0
1349,643,520,0
1038,470,295,0
1122,222,256,0
1101,239,366,0
954,280,389,0
825,314,256,0
740,391,213,0
801,341,153,0
779,279,129,0
853,234,174,0
909,193,152,0
917,171,139,0
952,217,137,0
841,255,165,0
901,378,205,0
883,472,360,0
992,472,445,0
1104,371,373,0
1032,269,294,0
895,206,313,0
813,266,344,0
767,368,332,0
759,491,334,0
743,591,387,0
901,718,467,0
1082,803,553,0
1131,737,554,0
1328,603,510,0
1249,425,462,0
1308,399,420,0
1261,434,337,0
1288,441,257,0
1401,436,226,0
1265,310,202,0
1038,238,120,0
897,237,89,0
804,273,84,0
740,304,102,0
718,248,111,0
651,164,134,0
618,141,172,0
607,135,258,0
645,131,337,0
658,137,287,0
932,352,346,0
1251,606,471,0
1506,653,468,0
1568,862,288,0
1194,794,285,0
919,499,466,0
759,364,411,0
598,579,376,0
515,761,393,0
564,808,435,0
764,799,529,0
1015,796,608,0
1233,717,618,0
1428,590,532,0
1486,444,409,0
1348,331,314,0
1321,277,205,0
1280,326,177,0
1150,344,155,0
925,330,98,0
708,314,41,0
584,336,37,0
634,379,85,0
700,354,134,0
697,289,149,0
705,146,152,0
702,88,224,0
743,127,260,0
779,210,232,0
955,301,197,0
1242,422,275,0
1579,636,438,0
1701,861,357,0
1211,840,244,0
841,549,392,0
811,181,476,0
770,268,439,0
655,476,352,0
588,660,354,0
655,805,437,0
950,883,520,0
1164,906,535,0
1401,842,439,0
1401,557,282,0
1533,356,185,0
1591,299,125,0
1494,336,100,0
1254,356,109,0
960,315,43,0
741,354,-8,0
664,406,-27,0
679,403,-17,0
691,331,0,0
698,247,45,0
703,175,113,0
707,124,186,0
803,89,159,0
978,150,117,0
1168,320,208,0
1478,541,342,0
1783,590,305,0
1725,617,165,0
1176,645,420,0
960,422,380,0
920,371,256,0
883,453,182,0
762,609,193,0
741,831,247,0
888,1068,329,0
923,1193,395,0
1207,992,330,0
1370,622,288,0
1603,500,276,0
1810,475,239,0
1853,448,119,0
1591,421,113,0
1323,357,83,0
970,357,24,0
787,353,2,0
767,408,-5,0
741,331,-13,0
760,254,8,0
762,185,29,0
774,152,42,0
668,136,100,0
607,180,152,0
607,230,120,0
1006,393,86,0
1393,847,171,0
1556,1042,301,0
1684,935,211,0
1320,865,194,0
1008,632,328,0
912,449,357,0
635,748,345,0
580,795,421,0
868,840,547,0
1177,720,456,0
1316,577,277,0
1266,538,106,0
1165,650,-16,0
1071,712,-85,0
1232,705,-95,0
1141,667,-93,0
1075,574,-151,0
1034,462,-173,0
941,331,-123,0
819,222,-30,0
756,215,49,0
738,277,88,0
786,363,116,0
884,370,133,0
881,274,142,0
884,183,120,0
930,228,159,0
990,451,269,0
1168,669,294,0
1286,701,157,0
1155,729,130,0
916,540,182,0
821,417,208,0
744,442,201,0
698,518,195,0
638,579,225,0
729,643,278,0
1013,805,445,0
1139,818,576,0
1236,697,491,0
410,-166,-1078,0
1152,1225,-965,0
-724,1330,-115,0
1637,-950,-653,0
831,777,172,0
1055,-51,-217,0
777,493,-434,0
926,934,-515,0
965,913,-497,0
979,796,-529,0
860,581,-373,0
713,475,-257,0
537,509,-230,0
366,595,-149,0
244,615,-73,0
169,586,273,0
194,783,563,0
365,982,969,0
546,684,1129,0
609,398,1215,0
373,251,1257,0
216,199,1078,0
169,235,869,0
144,239,711,0
117,72,663,0
77,16,671,0
382,-84,543,0
-291,112,891,0
-168,114,1018,0
10,143,1018,0
40,193,1093,0
31,251,1184,0
-50,269,1109,0
-81,235,979,0
-58,193,947,0
33,143,861,0
404,77,682,0
191,103,727,0
201,84,654,0
220,-19,633,0
347,-45,568,0
475,68,556,0
624,99,533,0
860,310,598,0
1107,410,699,0
1266,576,741,0
1169,721,709,0
1029,644,665,0
1084,571,656,0
1053,228,536,0
862,553,440,0
673,682,462,0
558,420,465,0
517,330,461,0
504,361,424,0
657,400,490,0
821,403,537,0
1086,526,604,0
1356,569,695,0
1472,591,575,0
1181,534,350,0
1056,418,198,0
1056,387,144,0
1053,392,205,0
897,314,194,0
776,293,136,0
716,311,115,0
674,356,121,0
645,359,125,0
695,324,143,0
867,300,163,0
904,225,134,0
931,200,106,0
917,275,151,0
960,388,168,0
966,507,227,0
983,572,312,0
1014,584,350,0
1025,544,308,0
914,453,321,0
817,284,343,0
741,264,346,0
685,401,364,0
640,672,435,0
670,252,449,0
825,590,465,0
1012,641,431,0
1250,706,411,0
1571,680,403,0
1348,483,312,0
1034,321,246,0
1024,307,164,0
1084,395,141,0
1117,477,171,0
973,403,131,0
827,294,48,0
695,274,23,0
635,320,31,0
636,356,49,0
655,342,57,0
701,310,62,0
763,278,90,0
871,271,132,0
994,285,261,0
1094,285,305,0
1303,362,164,0
1326,573,294,0
1181,878,533,0
890,921,594,0
848,477,394,0
806,196,283,0
730,196,252,0
633,336,205,0
577,536,218,0
546,632,326,0
652,659,370,0
984,627,297,0
1170,573,216,0
1228,517,185,0
1147,477,225,0
1168,573,255,0
1076,560,258,0
1082,502,189,0
1091,439,132,0
1201,428,181,0
1103,403,238,0
984,446,249,0
988,731,417,0
1204,932,615,0
1667,1425,744,0
1063,491,277,0
252,371,358,0
-2,328,465,0
-121,160,267,0
-426,-97,-21,0
-611,-99,-313,0
-694,42,-491,0
-787,389,-701,0
-731,325,-608,0
-676,113,-606,0
-682,194,-560,0
-738,385,-441,0
-881,431,-395,0
-913,279,-468,0
-886,319,-422,0
-855,185,-445,0
-758,89,-480,0
-650,302,-446,0
-654,700,-327,0
-659,1010,-317,0
-1092,1152,-296,0
-747,590,-701,0
-746,250,-805,0
-731,68,-894,0
-801,-92,-979,0
-881,-344,-1006,0
-803,-298,-1007,0
-637,7,-830,0
-526,409,-545,0
-457,545,-377,0
-393,559,-257,0
-372,662,-180,0
-346,669,-214,0
-340,641,-227,0
-350,634,-314,0
-257,668,-524,0
-274,684,-656,0
-303,964,-862,0
-378,1287,-1217,0
-557,1350,-1049,0
-307,929,-760,0
-204,638,-741,0
-218,551,-818,0
-225,566,-613,0
-217,588,-545,0
-223,581,-611,0
-247,590,-636,0
-274,672,-628,0
-253,778,-717,0
-203,790,-746,0
-233,815,-803,0
-183,864,-849,0
-151,913,-747,0
-48,861,-683,0
-9,855,-444,0
-11,729,-294,0
-15,627,-161,0
119,515,-81,0
315,368,7,0
551,288,96,0
833,337,213,0
1093,523,307,0
1241,526,206,0
1195,327,0,0
1276,173,-55,0
1339,172,38,0
1397,409,54,0
1064,908,340,0
893,1016,354,0
701,837,289,0
835,556,260,0
1053,107,300,0
932,-14,343,0
708,207,309,0
568,423,244,0
530,546,225,0
566,474,211,0
569,337,203,0
725,338,214,0
882,418,205,0
1062,555,181,0
1111,699,260,0
1140,817,292,0
1030,749,205,0
1017,527,78,0
997,432,97,0
979,429,165,0
810,465,187,0
711,484,177,0
731,459,174,0
760,399,149,0
809,357,154,0
874,292,129,0
949,241,87,0
946,223,67,0
959,279,62,0
905,381,142,0
853,534,214,0
744,658,362,0
593,1197,426,0
1124,166,199,0
891,178,260,0
945,268,234,0
711,373,283,0
602,435,248,0
561,498,202,0
630,479,209,0
721,473,201,0
860,543,198,0
969,645,228,0
1186,787,288,0
1242,764,276,0
1243,655,242,0
1074,478,249,0
1028,471,223,0
1048,481,142,0
1042,489,91,0
974,438,77,0
881,341,43,0
777,307,34,0
725,343,32,0
682,348,10,0
656,291,-17,0
726,263,-27,0
765,265,-13,0
786,309,16,0
929,508,167,0
1083,765,234,0
817,1342,602,0
906,871,251,0
960,524,265,0
903,569,351,0
726,488,273,0
490,615,197,0
466,620,129,0
528,572,76,0
559,555,37,0
603,604,50,0
738,703,51,0
889,751,4,0
1094,845,16,0
1097,806,71,0
1129,822,125,0
926,728,78,0
844,600,41,0
812,525,26,0
779,496,18,0
691,446,-3,0
634,415,8,0
606,387,28,0
655,423,74,0
715,439,117,0
755,389,137,0
934,337,131,0
1138,289,114,0
1238,276,75,0
1105,324,80,0
924,468,160,0
836,647,323,0
753,684,408,0
786,582,376,0
894,371,309,0
831,137,281,0
718,136,261,0
622,247,214,0
568,407,192,0
553,512,208,0
562,514,245,0
718,545,272,0
965,604,254,0
1152,698,257,0
1211,739,292,0
1183,759,329,0
1056,683,348,0
997,516,285,0
1004,425,182,0
1069,387,85,0
1146,359,65,0
1029,348,68,0
894,357,58,0
844,405,31,0
848,464,-12,0
851,444,-46,0
868,343,-43,0
874,300,15,0
872,310,95,0
864,331,174,0
884,338,251,0
927,293,215,0
812,296,278,0
759,361,383,0
850,412,319,0
1093,466,200,0
1330,551,146,0
1182,595,189,0
981,665,230,0
838,714,215,0
754,710,221,0
723,628,258,0
709,586,301,0
818,608,311,0
946,631,282,0
977,589,246,0
1002,566,227,0
1182,601,203,0
1335,630,172,0
1102,528,132,0
932,458,86,0
948,443,33,0
1031,433,-27,0
1129,429,-43,0
1058,375,-48,0
917,331,-54,0
864,355,-42,0
843,372,-50,0
828,348,-65,0
794,329,-40,0
798,334,-7,0
814,380,84,0
770,380,180,0
753,341,220,0
871,294,216,0
1036,288,216,0
1299,411,261,0
1326,576,349,0
1193,747,383,0
981,892,402,0
857,743,268,0
985,457,211,0
1014,413,234,0
958,506,214,0
829,629,198,0
761,669,184,0
772,608,161,0
852,524,141,0
980,473,142,0
1084,476,161,0
1040,443,140,0
960,406,112,0
919,394,92,0
951,387,75,0
944,358,54,0
927,355,55,0
902,367,52,0
820,361,27,0
733,353,20,0
697,361,38,0
796,398,56,0
944,454,96,0
900,435,151,0
838,406,190,0
833,368,198,0
878,315,400,0
1001,94,1133,0
1157,968,346,0
645,905,14,0
775,560,170,0
866,434,204,0
867,276,158,0
911,336,105,0
931,457,52,0
883,485,22,0
920,482,6,0
896,298,14,0
807,15,-11,0
853,106,0,0
871,277,-23,0
946,214,-3,0
1081,122,75,0
1066,112,85,0
1046,301,86,0
978,391,128,0
904,635,32,0
889,807,164,0
927,413,176,0
940,332,95,0
965,433,84,0
1005,253,92,0
947,170,84,0
910,327,96,0
932,345,-34,0
959,143,-104,0
945,111,-39,0
916,219,26,0
905,327,78,0
912,327,133,0
933,304,188,0
917,351,198,0
930,355,184,0
946,319,129,0
977,254,114,0
928,261,93,0
929,280,23,0
918,282,-5,0
919,252,-68,0
931,298,-22,0
962,287,10,0
983,304,62,0
990,239,57,0
980,227,218,0
924,452,252,0
908,453,220,0
879,464,180,0
880,455,155,0
892,415,139,0
904,373,133,0
908,344,140,0
914,344,150,0
887,345,152,0
861,354,143,0
845,367,155,0
829,364,180,0
824,355,183,0
862,354,187,0
882,355,187,0
921,383,204,0
883,544,315,0
783,414,315,0
773,462,310,0
786,514,274,0
786,515,214,0
787,497,207,0
857,519,239,0
1024,605,269,0
998,590,215,0
856,498,156,0
831,464,151,0
901,498,156,0
915,536,156,0
879,532,149,0
898,509,135,0
995,486,116,0
1087,444,111,0
1011,333,106,0
915,257,111,0
869,281,127,0
832,339,126,0
806,358,126,0
785,318,122,0
797,287,109,0
917,330,111,0
869,394,176,0
748,413,205,0
785,424,199,0
906,435,167,0
1008,463,181,0
991,475,244,0
842,514,269,0
884,592,244,0
1024,580,175,0
945,482,185,0
803,429,245,0
772,467,256,0
812,523,224,0
877,466,182,0
955,387,189,0
1037,342,285,0
1080,189,321,0
942,186,312,0
870,349,312,0
808,437,251,0
762,394,193,0
733,322,175,0
718,334,189,0
739,393,196,0
790,442,214,0
844,482,248,0
904,531,273,0
1140,580,306,0
1043,507,276,0
813,433,213,0
869,405,211,0
859,403,174,0
845,438,170,0
923,458,198,0
1030,515,193,0
944,474,139,0
787,370,111,0
733,336,100,0
815,379,87,0
891,409,76,0
933,437,81,0
931,409,65,0
846,397,63,0
788,404,84,0
793,421,109,0
827,440,139,0
862,448,160,0
895,438,179,0
945,414,173,0
985,375,127,0
958,372,107,0
819,410,131,0
746,502,178,0
728,564,206,0
755,534,215,0
889,468,241,0
1176,165,450,0
998,345,437,0
822,367,280,0
791,463,254,0
832,470,222,0
889,386,165,0
900,350,149,0
898,382,165,0
828,408,167,0
781,441,168,0
772,427,180,0
817,392,249,0
868,414,397,0
857,462,393,0
837,466,260,0
859,498,221,0
868,447,186,0
872,391,176,0
885,421,216,0
909,489,263,0
796,725,124,0
631,1528,-46,0
660,1703,-128,0
433,1605,-268,0
302,1718,-408,0
192,1742,-355,0
154,1491,-286,0
46,1114,-161,0
-74,628,-60,0
-192,523,-27,0
-137,305,-198,0
-115,72,-189,0
-20,-152,-189,0
21,-713,-26,0
-190,-991,383,0
-600,-765,802,0
-928,-448,399,0
-1203,-113,17,0
-1181,491,-156,0
-1307,530,-242,0
-1298,570,-33,0
-1138,393,51,0
-907,199,48,0
-810,123,-54,0
-875,132,-105,0
-900,229,-91,0
-1020,317,42,0
-1123,175,14,0
-1022,56,-94,0
-981,140,-160,0
-985,200,-199,0
-955,250,-161,0
-902,416,-109,0
-931,426,-176,0
-879,274,-161,0
-955,189,-186,0
-1001,165,-207,0
-993,79,-211,0
-1067,158,-124,0
-1056,293,-68,0
-1019,201,-111,0
-1117,-4,-239,0
-1096,33,-357,0
-1007,131,-389,0
-956,252,-250,0
-926,228,-28,0
-1023,269,18,0
-1033,81,-33,0
-952,-15,37,0
-867,4,134,0
-816,-7,134,0
-867,81,49,0
-888,40,63,0
-967,29,101,0
-1029,72,59,0
-1054,61,5,0
-1058,-4,-44,0
-1110,47,-118,0
-1117,164,-206,0
-1063,231,-233,0
-1002,285,-211,0
-929,297,-178,0
-910,292,-190,0
-917,311,-184,0
-959,285,-192,0
-985,214,-182,0
-1000,172,-192,0
-969,65,-204,0
-934,93,-182,0
-901,53,-207,0
-898,144,-364,0
-994,102,-358,0
-1119,119,-466,0
-1162,162,-406,0
-1165,243,-395,0
-1196,288,-402,0
-1013,315,-333,0
-1072,527,-401,0
-968,581,-125,0
-927,505,145,0
-881,339,307,0
-838,418,268,0
-874,252,-104,0
-645,-28,-100,0
-394,-408,-114,0
-148,-726,-18,0
-132,-1449,620,0
-103,-1532,833,0
-351,-294,221,0
-1124,133,315,0
-1272,-51,397,0
-995,-44,296,0
-1132,42,235,0
-1040,252,296,0
-1124,397,170,0
-1068,518,62,0
-1055,426,-43,0
-1031,443,-122,0
-933,409,-109,0
-914,333,-109,0
-915,331,-62,0
-933,308,-34,0
-1016,269,-99,0
-1027,245,-125,0
-1023,240,-119,0
-1005,209,-104,0
-1064,151,-143,0
-1000,169,-176,0
-947,315,-182,0
-929,270,-128,0
-1043,227,-123,0
-1019,276,-80,0
-915,118,89,0
-852,70,186,0
-856,31,209,0
-880,-26,181,0
-909,-55,172,0
-982,-62,147,0
-1039,-38,84,0
-1102,-44,-4,0
-1123,-26,-72,0
-1116,21,-143,0
-1130,132,-180,0
-1105,236,-177,0
-982,447,-252,0
-838,360,-145,0
-795,215,-126,0
-890,136,-204,0
-943,63,-205,0
-1027,88,-204,0
-1028,193,-207,0
-965,138,-169,0
-908,19,-136,0
-884,-27,-134,0
-838,-9,-202,0
-864,161,-274,0
-795,197,-313,0
-756,347,-423,0
-801,534,-472,0
-732,416,-543,0
-741,362,-621,0
-683,195,-566,0
-618,228,-540,0
-593,244,-496,0
-525,169,-368,0
-364,265,-556,0
-264,333,-785,0
-66,316,-791,0
86,518,-1027,0
110,721,-487,0
357,582,-139,0
1166,778,-274,0
1737,844,-490,0
1965,928,-636,0
1193,902,-537,0
842,672,-183,0
972,772,-14,0
887,826,-142,0
694,764,-123,0
535,558,-22,0
592,448,150,0
705,548,355,0
1119,165,867,0
1141,343,381,0
888,673,207,0
996,478,217,0
850,410,163,0
775,399,64,0
854,471,56,0
892,541,69,0
856,511,89,0
874,482,101,0
878,500,123,0
835,483,138,0
837,461,154,0
864,415,167,0
883,356,168,0
866,296,183,0
813,269,200,0
757,321,244,0
778,393,295,0
789,472,269,0
802,485,179,0
895,472,145,0
995,504,181,0
935,557,206,0
832,609,204,0
790,597,176,0
834,534,141,0
884,487,133,0
892,512,152,0
853,549,147,0
814,560,125,0
819,545,117,0
862,517,115,0
893,507,123,0
914,501,128,0
925,490,135,0
932,459,137,0
925,418,134,0
915,389,132,0
886,378,136,0
843,384,132,0
800,392,134,0
790,409,162,0
806,422,182,0
835,432,200,0
