AccX [mg],AccY,AccZ,Ground Truth
730,418,197,0
772,411,210,0
854,417,223,0
887,391,152,0
825,384,96,0
920,469,132,0
1012,527,93,0
1128,511,-4,0
1090,524,-3,0
823,488,36,0
719,462,64,0
891,521,22,0
1038,540,-20,0
983,440,0,0
823,498,4,0
823,498,4,0
823,498,4,0
815,506,8,0
772,514,11,0
761,501,22,0
762,491,7,0
753,476,40,0
873,491,25,0
958,547,43,0
892,546,164,0
896,569,292,0
866,411,155,0
794,292,93,0
856,384,144,0
959,491,154,0
866,436,129,0
780,381,132,0
782,382,107,0
787,384,115,0
746,401,135,0
687,437,191,0
687,437,191,0
726,449,235,0
808,441,242,0
898,396,141,0
1253,523,125,0
1255,574,88,0
1027,472,82,0
786,490,130,0
730,503,79,0
906,503,43,0
996,512,39,0
921,501,6,0
878,480,17,0
903,473,23,0
909,531,12,0
882,606,18,0
839,577,42,0
764,557,46,0
692,552,32,0
715,517,129,0
715,517,129,0
821,518,133,0
868,521,171,0
812,487,266,0
800,459,258,0
868,386,180,0
870,361,147,0
905,406,149,0
974,459,159,0
917,451,125,0
814,408,125,0
790,387,119,0
774,402,114,0
762,433,134,0
734,468,168,0
706,474,215,0
737,501,286,0
806,462,288,0
915,436,130,0
915,436,130,0
1064,539,122,0
1241,610,30,0
1230,574,-30,0
899,492,55,0
777,467,98,0
883,523,50,0
964,524,-12,0
945,456,22,0
904,437,58,0
877,556,21,0
875,657,12,0
839,668,37,0
741,687,49,0
639,673,40,0
592,609,20,0
567,612,53,0
511,597,135,0
604,555,152,0
726,540,178,0
726,540,178,0
679,469,243,0
819,451,239,0
908,423,187,0
974,373,142,0
1038,417,155,0
957,435,158,0
862,431,140,0
846,431,135,0
822,438,121,0
803,468,159,0
759,495,190,0
745,515,241,0
776,511,293,0
836,483,299,0
900,450,206,0
839,439,176,0
1010,494,168,0
1281,620,104,0
879,451,123,0
879,451,123,0
750,528,119,0
762,515,18,0
978,579,-9,0
1058,571,-14,0
970,458,-22,0
912,413,-16,0
913,527,16,0
927,618,5,0
861,669,53,0
767,703,100,0
650,687,121,0
511,613,172,0
400,584,211,0
319,590,245,0
419,565,195,0
584,568,189,0
636,547,229,0
632,469,239,0
992,445,195,0
992,445,195,0
1118,401,120,0
1191,428,106,0
1056,449,135,0
906,400,114,0
860,397,57,0
870,426,28,0
819,444,36,0
753,472,70,0
725,508,114,0
771,530,167,0
852,525,253,0
908,465,291,0
962,352,220,0
873,305,161,0
1064,439,192,0
1284,644,182,0
1134,563,110,0
855,403,123,0
949,487,12,0
949,487,12,0
949,487,12,0
1064,503,-13,0
999,492,-59,0
943,502,-59,0
935,621,-37,0
945,660,-59,0
949,608,-39,0
878,543,31,0
780,497,152,0
636,456,207,0
543,424,251,0
471,360,345,0
518,305,379,0
665,369,392,0
751,399,353,0
721,344,318,0
862,404,343,0
1151,554,280,0
1230,552,126,0
1135,486,99,0
978,400,113,0
885,376,76,0
871,426,43,0
848,447,11,0
766,422,22,0
698,418,58,0
669,458,93,0
694,479,163,0
802,516,243,0
930,468,220,0
907,362,119,0
1041,468,155,0
1306,651,153,0
1161,587,65,0
900,450,79,0
703,458,100,0
730,467,30,0
984,518,7,0
1096,532,-45,0
975,413,-72,0
902,376,-56,0
909,454,-46,0
931,476,-70,0
906,503,-74,0
838,550,-49,0
715,581,-57,0
592,563,-67,0
578,541,-44,0
573,553,38,0
687,548,129,0
871,531,83,0
891,526,85,0
753,450,210,0
798,446,245,0
965,452,155,0
1043,446,74,0
1031,498,128,0
976,486,123,0
878,421,79,0
816,388,50,0
788,386,55,0
757,409,103,0
728,405,110,0
667,471,153,0
751,506,227,0
899,531,232,0
845,431,132,0
942,437,119,0
1325,606,101,0
1370,639,5,0
1024,452,3,0
732,427,81,0
785,490,56,0
974,688,71,0
1069,698,5,0
965,376,3,0
950,141,217,0
936,388,336,0
930,578,342,0
869,589,333,0
790,471,374,0
711,400,454,0
634,433,479,0
569,257,547,0
547,119,587,0
671,186,500,0
660,305,517,0
453,220,430,0
531,192,308,0
826,359,236,0
1008,432,107,0
1102,499,111,0
1080,565,142,0
982,481,132,0
921,364,196,0
905,469,377,0
926,570,443,0
817,597,459,0
705,564,371,0
747,649,232,0
841,675,121,0
833,544,88,0
1066,531,51,0
1329,665,0,0
1245,608,-57,0
1008,509,-34,0
716,480,-29,0
809,459,-67,0
945,506,-79,0
935,537,-55,0
855,457,-10,0
802,477,-41,0
782,621,-7,0
760,653,52,0
711,670,65,0
666,673,61,0
621,596,81,0
565,531,144,0
494,534,241,0
583,492,319,0
847,526,186,0
847,524,176,0
752,482,357,0
949,519,308,0
1162,473,-21,0
946,393,117,0
891,484,147,0
851,498,55,0
807,432,-13,0
748,422,20,0
701,450,36,0
667,476,64,0
694,490,84,0
814,576,82,0
912,667,126,0
1068,510,116,0
1165,698,204,0
1147,648,156,0
1000,568,175,0
792,537,158,0
895,516,64,0
1012,477,-17,0
997,431,-41,0
917,401,-77,0
899,432,-62,0
919,411,-76,0
928,382,-87,0
921,361,-95,0
905,351,-117,0
814,352,-123,0
740,378,-96,0
741,411,-62,0
933,447,-45,0
1041,490,-10,0
930,481,190,0
960,432,393,0
943,321,555,0
853,638,1332,0
1039,478,556,0
1038,594,189,0
862,531,185,0
736,462,68,0
738,421,-148,0
723,345,-421,0
518,279,-630,0
424,155,-737,0
555,94,-784,0
805,243,-775,0
938,423,-706,0
1034,668,-665,0
978,807,-545,0
1008,1577,-332,0
1161,949,-703,0
1247,335,-754,0
1049,323,-824,0
600,-568,1142,0
657,343,-57,0
621,279,-1125,0
564,211,-1350,0
520,20,-898,0
437,208,-439,0
504,194,-485,0
538,340,-613,0
546,579,-648,0
555,763,-619,0
613,820,-559,0
681,643,-716,0
734,499,-614,0
817,243,-559,0
948,229,-567,0
1271,208,-617,0
1365,58,-796,0
1072,66,-662,0
827,118,-511,0
819,88,-476,0
835,91,-403,0
865,241,-386,0
784,362,-336,0
732,487,-257,0
704,593,-260,0
720,692,-265,0
697,819,-214,0
640,889,-163,0
665,838,-166,0
716,732,-235,0
730,659,-231,0
829,564,-190,0
1155,569,-147,0
1340,603,-230,0
1057,488,-293,0
871,383,-195,0
797,399,-141,0
905,440,-151,0
966,461,-155,0
881,373,-104,0
751,300,-42,0
720,360,67,0
835,403,98,0
888,388,79,0
927,324,85,0
977,255,82,0
1130,285,13,0
1147,445,36,0
956,590,310,0
800,488,403,0
768,282,190,0
886,207,31,0
889,335,50,0
760,423,108,0
676,414,117,0
683,400,91,0
712,419,56,0
692,451,66,0
680,467,95,0
759,460,161,0
859,460,172,0
959,457,186,0
920,379,114,0
1073,420,157,0
1477,584,144,0
1252,697,101,0
787,499,209,0
673,438,237,0
876,523,111,0
1028,506,63,0
988,444,43,0
903,413,44,0
891,419,31,0
924,412,2,0
922,380,-28,0
930,406,-24,0
915,443,-12,0
906,486,-41,0
928,446,-65,0
826,414,-26,0
825,408,20,0
894,474,70,0
828,465,106,0
703,366,114,0
687,370,181,0
780,470,250,0
925,529,312,0
970,443,255,0
891,342,232,0
824,354,186,0
841,430,164,0
853,493,194,0
775,513,242,0
700,467,264,0
759,449,267,0
835,440,265,0
972,413,219,0
915,355,125,0
952,362,110,0
1203,513,95,0
1098,591,42,0
779,443,47,0
674,427,87,0
791,502,5,0
984,552,-33,0
1024,518,-25,0
913,429,-32,0
837,343,-32,0
845,349,-21,0
897,367,-22,0
918,381,-44,0
939,381,-23,0
951,333,11,0
1021,270,-36,0
942,364,-184,0
945,501,-163,0
860,649,-4,0
729,700,211,0
715,593,188,0
731,421,-92,0
770,444,-102,0
870,393,-142,0
795,374,-411,0
764,415,-594,0
648,1730,-323,0
815,281,132,0
855,122,-569,0
753,570,-619,0
835,94,-643,0
944,55,-802,0
980,123,-851,0
1360,-264,-60,0
578,1216,191,0
845,-221,-661,0
763,170,-521,0
696,3,-1070,0
655,-22,-1229,0
638,93,-1471,0
579,100,-1608,0
582,-41,-1774,0
72,613,-1672,0
157,560,-996,0
85,213,-571,0
91,89,-391,0
18,-168,0,0
-108,180,-284,0
-195,76,-798,0
-439,696,-362,0
-600,611,-343,0
-664,250,-124,0
-778,351,16,0
-864,412,-21,0
-847,528,-524,0
-855,587,-758,0
-742,353,-794,0
-604,85,-680,0
-583,51,-680,0
-637,200,-891,0
-607,327,-854,0
-532,400,-713,0
-535,656,-515,0
-597,733,-599,0
-390,635,-636,0
-286,793,-603,0
-351,765,-564,0
-463,973,-174,0
-548,869,-318,0
-599,807,-136,0
-582,710,46,0
-545,718,341,0
-498,710,722,0
-445,733,343,0
-549,775,365,0
-590,728,660,0
-568,593,743,0
-504,498,512,0
-274,339,507,0
-63,-104,827,0
95,344,1498,0
25,251,1211,0
-47,114,1286,0
-233,6,1098,0
-249,-85,980,0
-172,-81,987,0
-91,-110,1025,0
-71,-170,991,0
-102,-229,930,0
-132,-228,878,0
-131,-240,864,0
-122,-230,864,0
-114,-223,865,0
-97,-233,853,0
-100,-285,727,0
-98,-370,555,0
19,-301,525,0
234,-107,499,0
631,109,497,0
1100,260,493,0
1398,336,350,0
1413,241,446,0
1469,300,545,0
1470,137,326,0
1418,114,85,0
1340,375,52,0
1225,665,35,0
1034,760,38,0
858,643,85,0
810,537,127,0
777,537,197,0
777,544,224,0
753,552,279,0
734,459,322,0
882,302,317,0
1026,-65,-39,0
1049,-120,-118,0
1341,32,-143,0
1212,-220,-309,0
1174,-226,-204,0
1131,15,-115,0
1118,42,-40,0
1043,13,34,0
996,-23,24,0
975,-23,0,0
1045,45,-63,0
1039,175,-90,0
1056,260,-104,0
1005,301,-129,0
934,314,-159,0
856,349,-152,0
824,367,-124,0
862,377,-152,0
800,433,-181,0
687,483,-125,0
719,593,53,0
787,634,135,0
806,649,154,0
862,659,225,0
908,611,251,0
891,457,240,0
923,475,216,0
936,523,215,0
905,534,246,0
842,478,256,0
818,461,226,0
821,456,181,0
820,434,138,0
850,424,111,0
859,405,108,0
850,380,104,0
819,408,107,0
814,435,134,0
835,446,172,0
842,467,211,0
858,458,231,0
870,424,198,0
870,389,170,0
852,403,148,0
824,377,117,0
757,362,79,0
744,362,41,0
1009,426,-9,0
890,466,-42,0
799,437,-64,0
984,482,-105,0
1064,562,-119,0
947,515,-89,0
919,520,-68,0
959,487,-75,0
962,441,-56,0
942,435,-40,0
932,511,-33,0
948,493,-35,0
942,436,0,0
912,410,39,0
873,420,11,0
831,430,12,0
765,423,71,0
740,392,92,0
974,372,-2,0
1010,410,-9,0
738,457,170,0
750,531,338,0
971,542,270,0
1055,430,88,0
896,362,224,0
775,389,294,0
779,450,189,0
805,488,195,0
807,465,172,0
803,445,154,0
808,425,143,0
797,406,96,0
873,432,99,0
846,439,81,0
824,452,115,0
832,438,114,0
1058,488,88,0
1052,482,40,0
1045,414,-58,0
1008,404,-122,0
936,345,-185,0
897,334,-202,0
893,364,-245,0
865,365,-303,0
805,368,-294,0
758,406,-259,0
791,445,-220,0
861,501,-197,0
898,530,-174,0
902,519,-139,0
901,526,-105,0
889,525,-68,0
877,521,-37,0
825,496,-25,0
791,475,10,0
772,498,26,0
725,499,45,0
704,473,45,0
726,511,96,0
848,549,366,0
1146,726,297,0
984,648,-55,0
869,564,-43,0
846,476,50,0
810,389,53,0
789,388,-21,0
779,476,-104,0
817,504,-81,0
846,449,-18,0
757,401,31,0
704,413,147,0
722,530,517,0
737,442,626,0
793,300,199,0
930,476,99,0
874,716,216,0
886,349,82,0
1112,375,-10,0
1036,528,-97,0
858,501,-45,0
796,446,38,0
796,430,27,0
856,394,-11,0
909,381,-32,0
882,400,-39,0
844,415,-31,0
838,434,-11,0
838,401,-8,0
855,407,-20,0
871,456,-1,0
876,449,17,0
931,435,0,0
1119,467,-71,0
1078,461,-52,0
948,546,45,0
894,604,114,0
780,523,118,0
757,429,155,0
832,461,179,0
914,521,197,0
958,493,218,0
891,412,189,0
832,321,143,0
791,300,99,0
744,269,45,0
661,327,-6,0
648,535,-89,0
730,564,-162,0
793,512,-100,0
809,445,-63,0
794,446,-31,0
822,461,-9,0
997,513,-52,0
1008,460,-82,0
1099,673,-80,0
886,832,-77,0
658,624,-3,0
719,496,-65,0
981,234,-75,0
1127,143,-83,0
1019,126,-227,0
843,409,-330,0
796,581,-397,0
815,681,-354,0
787,561,-334,0
774,421,-278,0
778,368,-276,0
786,437,-308,0
770,534,-379,0
770,420,-521,0
983,264,-598,0
1164,238,-467,0
1085,286,-289,0
909,354,-101,0
727,408,-61,0
691,350,-82,0
810,445,25,0
1308,848,511,0
1198,-531,1310,0
756,412,513,0
790,579,131,0
835,195,-234,0
772,330,-107,0
648,318,-46,0
596,385,36,0
610,456,68,0
683,483,74,0
864,501,50,0
1462,390,279,0
1113,291,704,0
778,301,210,0
1066,538,105,0
1120,574,-63,0
1036,493,-46,0
952,369,77,0
892,257,80,0
923,265,24,0
966,311,-6,0
925,373,-21,0
832,396,-4,0
769,375,26,0
754,345,25,0
793,351,17,0
847,382,3,0
887,406,-4,0
1030,460,-31,0
1081,509,-82,0
987,539,-70,0
892,537,16,0
896,503,46,0
919,479,36,0
913,443,10,0
903,434,2,0
871,447,25,0
809,456,54,0
766,464,93,0
839,306,242,0
891,355,437,0
907,654,422,0
873,660,286,0
817,494,149,0
872,435,115,0
950,367,65,0
992,319,62,0
970,366,61,0
955,406,60,0
938,396,54,0
954,398,79,0
941,398,97,0
900,380,99,0
827,332,116,0
758,271,126,0
717,261,133,0
718,309,136,0
814,345,126,0
926,361,80,0
1010,392,52,0
1004,430,38,0
956,495,81,0
922,529,100,0
922,488,75,0
921,421,75,0
911,401,92,0
898,401,92,0
898,412,90,0
914,402,88,0
914,389,86,0
925,411,93,0
918,296,110,0
906,361,91,0
892,356,98,0
884,340,88,0
876,350,81,0
865,367,77,0
859,374,79,0
869,378,77,0
876,390,79,0
882,399,76,0
887,411,75,0
882,409,78,0
892,414,85,0
885,408,89,0
876,419,90,0
878,425,93,0
885,416,76,0
887,419,65,0
902,430,61,0
885,437,75,0
874,416,102,0
870,393,101,0
876,409,81,0
875,416,58,0
886,397,45,0
899,396,45,0
889,388,51,0
875,375,56,0
870,380,59,0
871,392,62,0
891,414,69,0
891,435,73,0
912,449,91,0
904,435,97,0
933,488,57,0
921,394,40,0
906,305,-18,0
876,411,-102,0
860,479,-144,0
815,589,-126,0
805,584,-203,0
816,572,-240,0
817,545,-260,0
734,492,-288,0
708,453,-336,0
715,378,-325,0
728,435,-366,0
731,560,-481,0
701,665,-568,0
669,702,-593,0
630,644,-597,0
592,529,-570,0
558,442,-595,0
560,350,-661,0
570,242,-677,0
581,174,-659,0
582,146,-642,0
562,182,-587,0
556,266,-435,0
605,316,-437,0
715,375,-485,0
839,427,-466,0
940,625,-304,0
996,712,-255,0
1038,567,-225,0
1025,218,404,0
1275,302,1221,0
1071,101,109,0
904,482,-29,0
764,485,81,0
667,463,74,0
705,342,35,0
815,367,1,0
905,433,-33,0
942,449,-58,0
928,451,-62,0
887,448,-15,0
888,420,9,0
890,414,-6,0
878,408,6,0
845,445,48,0
819,415,33,0
859,377,53,0
908,384,72,0
927,423,293,0
956,438,400,0
918,472,170,0
928,420,74,0
902,356,62,0
894,311,18,0
883,359,6,0
832,441,17,0
823,465,49,0
836,511,76,0
874,433,5,0
936,295,-32,0
897,598,60,0
864,498,29,0
869,412,50,0
899,330,29,0
904,338,39,0
885,375,46,0
861,403,54,0
855,399,65,0
868,408,84,0
874,380,107,0
898,394,170,0
893,443,173,0
877,443,124,0
870,438,93,0
869,403,78,0
875,387,69,0
881,400,62,0
879,405,53,0
876,409,56,0
875,417,71,0
875,439,87,0
872,449,109,0
866,449,118,0
876,438,108,0
879,423,93,0
875,412,80,0
879,409,70,0
877,407,71,0
876,406,77,0
883,408,80,0
884,407,82,0
884,406,88,0
880,403,81,0
881,404,73,0
884,401,69,0
890,404,68,0
889,405,70,0
892,397,76,0
889,392,77,0
889,392,75,0
884,396,72,0
884,401,70,0
885,403,68,0
882,398,70,0
878,395,68,0
881,412,67,0
883,407,69,0
884,414,66,0
886,416,60,0
888,422,57,0
886,428,54,0
879,425,58,0
878,432,63,0
884,427,57,0
891,416,63,0
901,401,61,0
904,397,67,0
901,380,82,0
897,371,87,0
910,372,112,0
917,361,118,0
905,391,138,0
898,380,163,0
870,381,157,0
874,361,168,0
931,447,205,0
863,511,223,0
717,425,191,0
652,392,149,0
676,391,126,0
795,425,140,0
928,464,138,0
870,437,100,0
824,414,63,0
898,438,36,0
985,415,-14,0
966,401,-36,0
910,411,-55,0
895,423,-67,0
912,425,-68,0
968,419,-76,0
972,423,-70,0
966,425,-65,0
966,435,-49,0
935,455,-50,0
885,450,-41,0
881,477,-21,0
864,462,-27,0
847,441,-38,0
833,458,-36,0
825,505,-59,0
811,512,-87,0
801,496,-74,0
915,497,-59,0
1040,460,-114,0
957,421,-103,0
720,456,-29,0
580,514,55,0
656,588,137,0
786,567,65,0
892,436,49,0
970,317,125,0
984,306,168,0
946,368,196,0
864,395,170,0
826,396,152,0
812,417,188,0
784,406,202,0
757,388,203,0
749,371,205,0
769,362,209,0
795,355,220,0
806,328,207,0
841,402,153,0
1037,429,119,0
1049,471,107,0
932,385,20,0
996,436,12,0
936,531,39,0
787,474,42,0
831,452,41,0
976,448,2,0
990,367,-38,0
919,361,-27,0
884,453,-17,0
882,471,-41,0
899,465,-31,0
890,482,-24,0
879,465,-15,0
865,472,-15,0
844,513,-9,0
808,514,11,0
768,476,42,0
800,469,62,0
953,480,33,0
960,498,54,0
767,454,132,0
765,528,215,0
806,476,171,0
804,361,89,0
854,428,137,0
937,502,174,0
914,423,153,0
853,367,130,0
844,402,89,0
842,382,78,0
815,396,97,0
790,418,120,0
750,430,140,0
795,397,135,0
826,394,128,0
790,433,173,0
753,378,175,0
788,258,84,0
1093,371,81,0
1154,402,121,0
1128,382,-47,0
1186,572,-24,0
894,556,14,0
726,442,106,0
870,463,113,0
983,519,11,0
967,442,23,0
926,377,77,0
899,453,70,0
882,500,78,0
866,472,90,0
818,456,84,0
745,426,75,0
695,426,68,0
677,443,83,0
670,435,100,0
672,407,66,0
892,402,-17,0
1145,456,-90,0
1082,582,52,0
1125,493,23,0
1102,538,69,0
840,525,134,0
728,559,303,0
849,555,250,0
891,493,203,0
809,404,168,0
726,414,98,0
710,463,89,0
670,474,97,0
612,406,68,0
636,330,144,0
734,237,220,0
920,219,127,0
952,331,-137,0
717,842,-1199,0
850,1878,-1183,0
939,1153,-1047,0
606,193,-671,0
480,103,-685,0
517,259,-710,0
599,119,-698,0
698,124,-743,0
717,181,-778,0
632,105,-676,0
548,170,-514,0
499,240,-410,0
485,200,-349,0
524,218,-313,0
569,217,-271,0
665,399,-261,0
795,659,-233,0
973,1325,114,0
1108,1441,78,0
1126,574,-482,0
1584,140,-319,0
1445,6,-24,0
1031,175,263,0
858,632,172,0
758,782,-25,0
672,553,-115,0
720,471,-119,0
787,440,-84,0
776,443,-50,0
744,426,-24,0
783,439,-52,0
835,433,-76,0
862,418,-55,0
798,411,-19,0
898,626,51,0
1185,-235,636,0
1023,383,409,0
1083,393,60,0
1026,292,-58,0
991,338,-112,0
1016,579,-74,0
937,391,-56,0
787,296,-18,0
699,340,-16,0
671,683,-119,0
724,650,-245,0
809,332,-70,0
903,288,134,0
991,343,250,0
1012,193,180,0
1074,93,-10,0
1265,283,-81,0
985,621,57,0
745,596,584,0
847,351,841,0
965,266,128,0
770,573,37,0
698,728,115,0
672,627,-63,0
684,405,-150,0
732,198,-97,0
760,454,-169,0
748,592,-118,0
745,624,-42,0
777,502,13,0
890,147,161,0
1058,463,530,0
887,1016,60,0
893,490,-45,0
800,139,-90,0
979,573,-75,0
1002,806,-59,0
918,748,-164,0
884,837,-242,0
1005,571,-397,0
1043,207,-299,0
971,10,-107,0
902,83,32,0
839,224,6,0
788,344,-58,0
773,411,-89,0
794,462,-71,0
832,421,-38,0
868,400,4,0
951,373,15,0
1304,337,-99,0
1029,342,-36,0
865,446,176,0
888,515,201,0
911,447,96,0
879,340,273,0
946,419,470,0
966,270,311,0
954,104,224,0
887,155,106,0
795,266,16,0
764,419,27,0
750,492,32,0
732,463,60,0
724,377,85,0
753,342,101,0
823,348,140,0
861,297,113,0
1037,755,222,0
858,699,78,0
748,633,8,0
872,583,-49,0
966,525,-132,0
918,441,-126,0
917,432,-63,0
1016,347,-66,0
993,158,-78,0
939,73,-153,0
734,450,-444,0
733,672,-294,0
794,522,-275,0
835,417,-283,0
865,391,-280,0
853,394,-310,0
827,408,-301,0
1063,467,-326,0
1050,471,-384,0
887,439,-231,0
840,625,-121,0
719,463,-210,0
699,303,-138,0
784,274,39,0
907,285,108,0
926,360,112,0
848,389,163,0
845,387,190,0
837,414,230,0
782,371,261,0
709,305,194,0
725,340,138,0
759,365,113,0
785,449,138,0
1149,558,113,0
965,624,78,0
811,495,20,0
913,476,-31,0
940,428,-158,0
873,409,-170,0
939,473,-62,0
964,456,-95,0
894,394,-99,0
863,372,-27,0
885,359,-29,0
909,376,-35,0
932,377,10,0
981,388,39,0
1097,343,-49,0
953,338,-18,0
816,416,156,0
821,491,214,0
843,391,116,0
897,260,48,0
909,290,68,0
879,307,42,0
823,405,104,0
766,464,149,0
751,449,130,0
779,452,159,0
784,446,162,0
756,466,185,0
755,469,203,0
806,452,183,0
1214,533,185,0
1221,540,85,0
868,404,24,0
808,394,96,0
853,449,41,0
985,451,-20,0
1060,396,-50,0
930,366,-52,0
851,407,-21,0
845,450,-24,0
854,472,-16,0
842,479,20,0
823,482,29,0
817,471,29,0
796,470,45,0
745,489,73,0
727,465,128,0
903,423,93,0
1134,466,10,0
1018,496,42,0
872,532,191,0
898,520,171,0
883,394,27,0
845,348,72,0
892,428,135,0
864,465,114,0
802,414,134,0
781,381,156,0
764,383,163,0
756,389,184,0
750,406,219,0
709,413,236,0
732,421,275,0
854,417,266,0
928,360,183,0
869,328,107,0
1101,428,128,0
1221,594,117,0
930,461,58,0
800,397,147,0
756,472,135,0
807,428,65,0
1001,456,47,0
1048,461,7,0
870,395,-12,0
771,395,53,0
818,430,50,0
895,407,15,0
915,358,13,0
904,363,27,0
920,384,16,0
915,383,14,0
842,383,16,0
887,391,-96,0
982,414,-183,0
989,511,-118,0
993,641,48,0
851,636,61,0
723,487,156,0
945,496,333,0
1143,-163,479,0
1006,-124,275,0
814,277,125,0
731,334,75,0
717,444,112,0
748,458,116,0
781,446,191,0
713,402,180,0
661,49,301,0
749,20,465,0
867,166,346,0
1038,782,309,0
1226,832,118,0
1152,597,103,0
1039,502,0,0
845,435,-35,0
726,402,-2,0
743,402,-8,0
896,411,-45,0
971,439,-73,0
860,357,-78,0
796,342,-31,0
845,400,-5,0
885,432,-30,0
950,357,-11,0
938,348,-16,0
935,263,12,0
909,307,-29,0
880,454,33,0
826,453,73,0
880,440,85,0
1079,470,27,0
1061,577,86,0
963,594,303,0
1026,587,318,0
922,366,144,0
801,272,163,0
788,341,144,0
797,434,111,0
815,442,101,0
778,443,134,0
797,418,134,0
771,378,149,0
773,330,212,0
774,326,248,0
770,339,271,0
760,341,296,0
746,326,316,0
763,314,328,0
763,309,323,0
771,333,281,0
866,323,235,0
1125,399,216,0
1083,425,166,0
1020,356,99,0
1060,398,54,0
920,414,50,0
825,383,56,0
902,476,68,0
1008,478,0,0
1005,405,-21,0
982,320,-49,0
943,273,-74,0
894,340,41,0
857,429,36,0
820,452,-3,0
810,454,16,0
789,502,15,0
771,490,68,0
760,506,81,0
760,557,120,0
763,547,133,0
772,546,143,0
880,562,99,0
958,541,74,0
875,534,122,0
885,606,156,0
900,561,105,0
844,447,72,0
836,462,82,0
838,500,64,0
855,529,81,0
878,492,110,0
837,460,135,0
775,429,154,0
785,419,136,0
802,416,143,0
790,400,139,0
784,392,120,0
776,395,125,0
765,364,219,0
745,335,235,0
781,358,201,0
954,401,143,0
1134,493,115,0
962,437,78,0
926,429,58,0
1041,496,1,0
1007,480,-32,0
928,464,15,0
911,454,21,0
870,406,4,0
855,394,8,0
871,405,0,0
864,424,-24,0
860,440,-27,0
837,432,-37,0
836,453,-10,0
850,442,1,0
812,414,27,0
794,429,60,0
803,443,96,0
796,398,90,0
834,441,82,0
1023,430,-28,0
1128,448,-77,0
972,459,-22,0
977,628,118,0
1032,577,127,0
940,341,35,0
822,373,79,0
813,461,85,0
807,446,88,0
806,404,135,0
783,425,160,0
784,444,230,0
826,438,255,0
859,433,282,0
850,383,271,0
810,373,253,0
776,404,224,0
773,414,206,0
789,413,178,0
815,411,141,0
815,428,130,0
815,440,124,0
826,445,114,0
954,438,83,0
1275,503,50,0
1043,404,-8,0
1041,395,81,0
1078,461,61,0
910,445,41,0
808,418,61,0
871,418,47,0
1021,431,43,0
1092,375,21,0
1037,323,16,0
935,357,17,0
870,389,20,0
850,394,35,0
814,366,72,0
759,353,117,0
698,333,165,0
680,323,202,0
689,425,230,0
704,510,240,0
762,533,198,0
998,564,85,0
1074,571,58,0
1116,673,137,0
1186,737,163,0
967,537,45,0
757,420,69,0
727,470,84,0
817,487,48,0
887,502,76,0
819,452,122,0
758,447,185,0
795,439,151,0
878,413,155,0
878,377,184,0
817,375,243,0
777,361,288,0
777,306,288,0
803,291,270,0
827,322,235,0
841,325,207,0
1118,412,180,0
1220,416,96,0
982,351,47,0
815,467,124,0
739,492,91,0
784,414,52,0
957,402,28,0
1059,394,-37,0
947,384,-58,0
877,439,16,0
878,411,4,0
881,360,-14,0
879,353,-3,0
901,361,-4,0
926,384,4,0
907,390,39,0
887,404,82,0
935,383,50,0
1097,428,-11,0
1042,463,-11,0
827,508,139,0
807,486,183,0
844,359,111,0
825,376,177,0
791,416,205,0
802,424,210,0
843,402,232,0
844,373,246,0
802,369,268,0
765,365,289,0
785,382,302,0
814,405,331,0
858,431,337,0
861,412,326,0
837,410,305,0
815,410,261,0
789,389,220,0
771,393,190,0
801,424,187,0
804,446,170,0
808,469,182,0
824,472,192,0
812,443,191,0
876,432,183,0
1003,449,150,0
981,406,87,0
954,384,46,0
1070,416,13,0
1075,442,5,0
858,412,24,0
747,407,0,0
752,486,-15,0
773,584,76,0
779,638,-142,0
808,685,-144,0
851,547,-137,0
873,536,-4,0
851,514,-6,0
811,606,48,0
745,612,38,0
681,620,49,0
599,745,76,0
516,825,71,0
465,860,22,0
545,955,-16,0
1052,934,-57,0
1121,761,83,0
1083,540,203,0
1058,106,219,0
942,-765,277,0
918,-466,88,0
685,1037,51,0
763,695,443,0
827,-15,88,0
850,88,211,0
772,102,142,0
789,272,58,0
824,340,83,0
831,356,61,0
936,449,112,0
918,389,110,0
1042,376,115,0
1063,485,160,0
1073,467,-80,0
1132,585,-62,0
952,685,90,0
795,611,133,0
651,595,140,0
666,677,109,0
781,696,30,0
898,548,-21,0
985,471,-20,0
1078,448,-15,0
1060,411,-9,0
953,436,-42,0
881,516,-39,0
858,497,-25,0
818,454,-15,0
892,401,-2,0
1030,363,-77,0
761,394,10,0
626,480,239,0
838,512,253,0
1005,339,-16,0
934,288,69,0
835,419,238,0
744,390,226,0
737,423,172,0
733,505,179,0
720,464,188,0
721,439,217,0
747,455,229,0
807,468,245,0
909,487,234,0
935,392,129,0
1370,488,125,0
1329,595,83,0
867,438,73,0
721,405,121,0
742,452,46,0
919,456,10,0
1010,470,29,0
933,407,-9,0
875,429,-10,0
892,470,18,0
911,466,9,0
870,453,-12,0
799,458,8,0
799,444,14,0
838,429,-3,0
833,430,24,0
746,398,104,0
804,338,148,0
1056,441,127,0
1153,407,107,0
950,440,269,0
894,514,449,0
918,357,260,0
970,269,148,0
940,345,155,0
836,392,135,0
753,391,139,0
725,398,124,0
684,424,87,0
665,433,88,0
708,410,109,0
710,390,142,0
779,410,260,0
959,385,228,0
983,291,137,0
1163,441,225,0
1273,545,233,0
987,425,147,0
761,374,153,0
795,460,137,0
944,550,106,0
1009,513,96,0
961,444,97,0
888,375,87,0
880,361,60,0
911,424,21,0
888,463,3,0
886,441,-20,0
874,481,-31,0
827,503,-52,0
733,489,-25,0
672,495,34,0
692,491,69,0
748,469,70,0
1009,473,12,0
1093,526,14,0
756,455,113,0
742,571,298,0
893,625,283,0
1000,461,152,0
1037,406,279,0
959,372,288,0
862,377,234,0
809,383,176,0
799,400,140,0
742,411,129,0
681,410,142,0
641,420,151,0
689,409,143,0
852,404,161,0
918,355,133,0
831,297,74,0
962,369,81,0
1314,525,69,0
1243,443,-4,0
969,397,57,0
704,447,146,0
732,427,131,0
885,414,73,0
921,493,64,0
865,577,61,0
847,412,93,0
870,376,124,0
889,373,107,0
891,428,132,0
870,461,128,0
833,475,144,0
757,447,151,0
713,423,148,0
721,419,167,0
803,394,158,0
1074,386,73,0
1215,480,26,0
964,504,108,0
861,572,267,0
874,598,219,0
866,452,125,0
933,347,170,0
954,344,154,0
855,357,114,0
810,404,121,0
864,397,157,0
843,440,58,0
796,523,6,0
721,353,91,0
651,21,129,0
733,-199,280,0
853,97,370,0
852,419,93,0
1008,589,-66,0
1176,631,8,0
1182,441,-107,0
1076,315,-95,0
895,476,74,0
895,425,168,0
866,393,123,0
875,291,96,0
899,333,27,0
889,337,-24,0
927,376,-42,0
919,360,-53,0
901,350,-57,0
871,348,-33,0
829,347,-25,0
813,390,-5,0
835,442,0,0
851,458,7,0
908,469,6,0
928,456,-43,0
1031,470,-84,0
1009,534,-170,0
884,645,-125,0
773,714,31,0
754,651,60,0
803,542,25,0
859,476,13,0
883,473,83,0
883,468,121,0
908,424,130,0
913,349,114,0
892,286,102,0
877,243,120,0
911,257,130,0
885,283,136,0
866,304,161,0
847,310,166,0
832,303,168,0
785,319,186,0
771,352,203,0
782,384,219,0
890,406,244,0
907,365,186,0
871,317,110,0
953,360,77,0
961,418,30,0
911,425,20,0
919,450,34,0
926,460,14,0
917,409,23,0
907,400,49,0
904,404,55,0
900,406,78,0
912,405,95,0
898,393,99,0
893,377,97,0
870,368,87,0
878,371,68,0
870,376,45,0
856,380,34,0
870,387,14,0
883,399,10,0
898,402,-1,0
906,410,-9,0
920,421,-9,0
923,415,-14,0
931,409,-14,0
927,402,-17,0
918,392,-16,0
914,381,-18,0
914,377,-24,0
921,371,-23,0
909,370,-23,0
897,373,-22,0
889,368,-19,0
852,368,-12,0
861,367,-11,0
879,367,-18,0
892,383,-19,0
909,391,-17,0
882,397,-15,0
904,401,-11,0
920,403,-15,0
899,416,-3,0
894,415,19,0
893,423,33,0
869,424,45,0
870,424,51,0
876,428,51,0
885,428,51,0
882,429,47,0
887,428,41,0
896,421,37,0
899,416,39,0
891,406,43,0
891,403,48,0
896,398,50,0
891,394,53,0
892,392,55,0
880,392,60,0
877,392,65,0
880,391,71,0
872,387,74,0
880,391,76,0
881,398,73,0
888,406,74,0
884,407,76,0
876,404,80,0
881,402,86,0
870,399,90,0
874,403,88,0
880,408,86,0
883,409,85,0
876,409,92,0
870,407,94,0
874,407,90,0
873,409,88,0
878,411,85,0
884,413,85,0
882,410,86,0
881,411,94,0
881,409,94,0
877,409,98,0
879,412,98,0
888,415,94,0
886,416,95,0
883,414,95,0
883,408,93,0
884,401,88,0
880,399,82,0
885,395,78,0
882,390,74,0
885,391,73,0
885,393,79,0
887,393,83,0
885,400,90,0
885,399,91,0
885,404,92,0
888,404,93,0
889,405,86,0
887,405,85,0
884,399,81,0
884,396,79,0
880,393,78,0
884,395,78,0
877,391,72,0
871,393,67,0
870,401,64,0
877,401,56,0
887,407,61,0
890,433,75,0
891,427,78,0
887,429,72,0
891,430,63,0
899,421,55,0
896,413,53,0
897,405,55,0
896,401,63,0
896,395,68,0
893,388,74,0
895,383,75,0
894,381,78,0
889,381,78,0
887,379,84,0
886,382,87,0
894,389,86,0
894,394,89,0
894,398,88,0
901,392,90,0
891,386,92,0
868,366,108,0
864,364,128,0
912,394,168,0
912,392,171,0
834,403,178,0
793,408,164,0
781,405,145,0
769,416,134,0
783,429,131,0
805,449,139,0
877,437,123,0
1016,436,95,0
903,404,43,0
870,385,21,0
990,423,-4,0
1018,394,-50,0
991,397,-62,0
975,383,-59,0
945,342,-50,0
951,312,-35,0
938,305,-27,0
906,300,-18,0
891,301,-14,0
871,313,-15,0
870,329,-19,0
870,347,-23,0
904,357,-31,0
919,372,-46,0
937,387,-51,0
931,396,-61,0
911,403,-52,0
905,401,-45,0
911,394,-53,0
984,391,-91,0
1113,391,-131,0
881,392,-70,0
767,420,60,0
917,374,104,0
974,149,59,0
939,116,71,0
941,210,92,0
962,221,95,0
947,160,111,0
940,168,124,0
930,183,138,0
930,182,140,0
938,186,137,0
973,197,120,0
996,209,109,0
985,205,110,0
955,181,118,0
931,169,112,0
931,157,99,0
942,154,95,0
967,158,99,0
972,149,103,0
975,143,111,0
965,136,120,0
956,137,126,0
955,144,132,0
948,154,140,0
949,175,137,0
953,198,136,0
954,209,133,0
933,215,132,0
927,225,129,0
929,240,122,0
949,258,110,0
958,262,108,0
974,268,110,0
964,305,102,0
952,374,143,0
927,350,173,0
931,209,266,0
921,208,299,0
906,272,252,0
897,325,223,0
897,293,186,0
902,267,173,0
882,272,167,0
889,263,164,0
914,273,183,0
919,239,173,0
908,228,163,0
896,231,166,0
893,236,187,0
909,261,195,0
909,305,204,0
903,338,225,0
861,354,223,0
826,385,217,0
808,394,224,0
781,410,239,0
785,424,257,0
786,429,242,0
796,431,232,0
788,427,207,0
807,412,186,0
951,441,159,0
872,381,96,0
877,340,43,0
1037,433,33,0
1028,450,-13,0
982,544,-25,0
925,555,0,0
910,490,24,0
921,425,47,0
947,437,74,0
928,465,83,0
870,373,116,0
868,423,184,0
940,458,215,0
938,340,243,0
912,302,284,0
907,212,321,0
924,88,350,0
979,59,343,0
1082,53,306,0
941,91,266,0
827,188,262,0
801,296,281,0
821,353,172,0
840,460,110,0
851,574,138,0
800,465,-8,0
777,452,-2,0
813,403,-2,0
826,343,0,0
828,334,59,0
842,365,107,0
838,371,237,0
837,502,418,0
836,348,527,0
893,354,409,0
1070,436,263,0
1092,498,132,0
1205,526,32,0
999,510,-3,0
723,460,20,0
712,446,32,0
884,463,-39,0
959,500,-106,0
899,488,-111,0
871,442,-12,0
907,473,-11,0
946,490,-3,0
965,498,62,0
960,389,152,0
901,427,273,0
825,498,237,0
772,494,311,0
685,506,367,0
617,463,421,0
653,489,447,0
714,492,462,0
612,414,447,0
653,334,483,0
937,-15,579,0
1010,3,539,0
902,69,544,0
902,358,641,0
845,418,568,0
769,402,433,0
718,354,323,0
741,341,121,0
803,426,-65,0
815,556,-173,0
825,521,-168,0
801,367,-109,0
741,299,32,0
802,298,27,0
1000,467,6,0
1183,531,-26,0
1227,569,45,0
1100,542,116,0
731,515,250,0
692,513,336,0
896,341,345,0
995,511,188,0
941,459,120,0
917,446,31,0
955,459,-26,0
979,424,-36,0
965,390,-15,0
957,376,-9,0
1003,390,-11,0
1014,347,-82,0
987,351,-97,0
994,355,-101,0
1050,377,-165,0
898,419,-97,0
641,439,171,0
623,454,371,0
746,444,326,0
800,307,331,0
836,201,472,0
903,215,509,0
861,217,355,0
862,270,270,0
902,402,227,0
858,480,199,0
811,459,186,0
757,449,166,0
768,446,153,0
835,462,163,0
896,457,194,0
848,397,168,0
777,369,142,0
998,431,171,0
1383,566,170,0
1300,508,136,0
916,435,144,0
725,461,154,0
773,446,47,0
930,494,-155,0
890,1003,-367,0
802,605,-170,0
722,462,141,0
792,722,259,0
920,782,169,0
947,327,206,0
858,214,283,0
757,200,241,0
705,173,226,0
572,257,297,0
296,355,530,0
567,424,546,0
1115,319,366,0
1578,302,494,0
1400,159,431,0
1139,59,219,0
1013,224,65,0
1022,388,-9,0
953,493,-25,0
810,507,-4,0
697,411,-8,0
637,369,0,0
619,340,43,0
605,333,64,0
628,411,122,0
688,447,177,0
805,476,217,0
935,507,273,0
975,440,283,0
949,407,281,0
1089,526,293,0
1229,667,207,0
1108,639,111,0
680,538,133,0
646,557,177,0
989,645,98,0
1155,634,-4,0
1016,487,38,0
917,461,77,0
898,466,88,0
925,442,87,0
951,445,65,0
898,425,65,0
812,392,43,0
765,391,48,0
764,363,52,0
743,328,63,0
843,364,93,0
1021,411,108,0
1043,371,116,0
961,486,306,0
1056,556,453,0
1100,451,388,0
1021,293,341,0
929,313,267,0
822,391,132,0
757,422,45,0
756,419,2,0
720,374,2,0
679,397,66,0
643,381,75,0
687,421,142,0
770,461,243,0
886,469,271,0
1030,385,197,0
1197,513,216,0
1318,569,222,0
915,463,143,0
737,440,177,0
710,470,157,0
826,478,66,0
1025,529,87,0
1043,455,30,0
916,389,47,0
872,409,63,0
879,423,20,0
919,382,6,0
933,381,18,0
949,406,38,0
974,387,40,0
931,339,52,0
1028,341,16,0
986,406,63,0
810,434,223,0
670,378,269,0
654,345,223,0
725,396,240,0
881,460,222,0
945,464,237,0
836,436,256,0
775,438,230,0
817,422,226,0
820,462,198,0
803,470,197,0
741,461,227,0
748,461,275,0
838,410,235,0
839,355,78,0
1080,408,-13,0
1002,477,-29,0
1132,466,-98,0
1295,552,-101,0
1186,537,-100,0
843,648,56,0
619,612,260,0
742,498,94,0
872,421,114,0
944,289,156,0
966,318,32,0
852,359,37,0
727,449,0,0
597,548,23,0
570,574,21,0
583,615,27,0
676,646,2,0
921,750,-51,0
754,783,13,0
702,817,241,0
687,784,340,0
640,559,372,0
701,472,411,0
743,477,403,0
731,481,378,0
692,427,349,0
714,402,317,0
747,419,290,0
768,431,286,0
772,446,284,0
791,472,286,0
813,475,263,0
819,484,258,0
823,497,255,0
834,510,236,0
829,529,228,0
826,497,196,0
809,564,134,0
906,512,160,0
1002,500,161,0
1063,514,68,0
1233,505,23,0
1078,460,29,0
804,423,46,0
835,444,40,0
994,465,8,0
1009,431,-26,0
920,383,-10,0
885,476,-1,0
868,503,28,0
808,462,69,0
760,473,95,0
723,519,136,0
698,538,187,0
662,561,213,0
598,560,246,0
572,551,260,0
589,563,244,0
618,572,209,0
835,544,134,0
1101,576,113,0
1051,563,214,0
983,517,283,0
989,405,132,0
1027,343,32,0
954,349,85,0
848,379,114,0
751,412,104,0
718,388,101,0
691,389,106,0
693,411,157,0
705,466,195,0
711,523,257,0
788,560,323,0
817,480,270,0
895,429,162,0
1255,594,133,0
1004,562,-1,0
1102,606,-7,0
1052,663,-36,0
891,526,-25,0
964,512,2,0
1040,444,-36,0
991,338,-32,0
934,324,-10,0
920,402,-14,0
930,424,-46,0
914,422,-47,0
876,397,-27,0
834,344,-40,0
832,339,-26,0
783,353,34,0
820,335,49,0
1042,330,6,0
1071,383,64,0
829,410,262,0
767,467,430,0
812,444,445,0
923,279,350,0
1032,318,456,0
938,339,415,0
848,377,322,0
818,445,247,0
776,455,183,0
727,453,157,0
693,525,170,0
721,469,193,0
758,341,298,0
860,350,273,0
853,329,261,0
832,321,264,0
906,365,241,0
1232,536,273,0
1198,531,170,0
800,371,150,0
765,427,238,0
928,520,135,0
1048,441,101,0
1019,421,116,0
912,432,123,0
858,424,145,0
887,414,123,0
886,412,86,0
867,381,67,0
861,375,57,0
862,394,86,0
833,378,102,0
775,372,158,0
859,356,133,0
1026,438,114,0
980,448,188,0
873,447,250,0
786,415,276,0
738,371,248,0
831,414,224,0
950,451,223,0
885,444,205,0
808,423,218,0
811,389,197,0
838,382,175,0
825,394,188,0
779,418,212,0
740,421,244,0
735,410,281,0
755,382,307,0
857,356,266,0
941,340,143,0
1046,407,124,0
1195,511,134,0
1139,497,70,0
918,459,94,0
728,464,148,0
783,436,117,0
950,434,81,0
1011,431,30,0
937,406,24,0
860,398,41,0
862,449,20,0
868,479,4,0
852,494,-16,0
814,596,61,0
790,637,115,0
782,608,131,0
764,584,145,0
703,569,161,0
673,551,181,0
767,550,141,0
888,533,88,0
873,501,76,0
812,522,137,0
778,523,191,0
750,433,177,0
810,362,141,0
915,416,180,0
944,419,206,0
849,353,190,0
789,341,186,0
807,353,181,0
790,374,192,0
729,399,218,0
725,415,255,0
763,413,297,0
817,408,320,0
850,382,312,0
859,351,259,0
857,355,170,0
1079,384,68,0
1423,642,76,0
1007,506,33,0
708,439,169,0
731,496,133,0
915,494,34,0
1054,455,30,0
1025,498,5,0
928,500,-20,0
905,483,6,0
944,479,8,0
958,427,30,0
894,438,22,0
832,455,-17,0
750,455,-14,0
665,445,-14,0
688,503,16,0
717,545,105,0
782,541,114,0
854,549,142,0
945,596,231,0
964,586,262,0
858,498,264,0
810,465,221,0
808,469,180,0
895,482,181,0
939,481,165,0
823,452,162,0
755,429,170,0
763,404,156,0
766,392,153,0
753,419,187,0
795,424,218,0
821,490,285,0
743,484,350,0
744,428,391,0
820,322,298,0
950,391,242,0
1008,432,156,0
1139,449,15,0
993,493,-11,0
778,503,-10,0
796,607,35,0
913,561,-58,0
954,440,-90,0
923,443,-32,0
925,473,-61,0
901,594,-54,0
908,592,-21,0
850,629,17,0
805,549,154,0
730,567,164,0
671,608,193,0
595,572,197,0
572,594,230,0
640,609,221,0
830,639,189,0
910,618,166,0
743,578,182,0
704,647,293,0
786,599,310,0
863,502,224,0
904,473,195,0
893,524,140,0
797,526,100,0
714,498,79,0
708,451,71,0
711,415,39,0
683,444,58,0
667,473,109,0
712,436,142,0
835,451,316,0
991,329,545,0
976,67,363,0
820,159,480,0
752,383,388,0
989,442,225,0
1251,529,92,0
1264,472,4,0
1041,480,0,0
732,618,23,0
767,467,35,0
960,452,-2,0
1032,407,-11,0
910,366,29,0
869,366,60,0
873,343,177,0
855,174,103,0
741,420,188,0
698,542,216,0
749,533,113,0
801,544,134,0
851,546,168,0
892,494,137,0
1110,518,104,0
1224,529,77,0
1096,547,266,0
935,395,310,0
826,219,281,0
730,351,325,0
813,413,280,0
827,389,189,0
729,317,156,0
691,309,135,0
732,307,91,0
776,342,64,0
793,377,45,0
803,414,90,0
768,464,172,0
745,480,289,0
787,481,357,0
897,401,296,0
972,373,246,0
1145,485,258,0
1330,611,176,0
1151,550,85,0
834,451,158,0
666,444,178,0
766,434,103,0
1156,437,-50,0
1194,400,-210,0
917,402,-184,0
884,336,-224,0
872,265,-333,0
805,368,-330,0
720,412,-348,0
660,466,-334,0
684,466,-322,0
766,646,147,0
727,337,174,0
692,996,-155,0
829,978,-341,0
704,1084,-164,0
667,884,-45,0
642,522,-82,0
742,219,-204,0
814,150,-324,0
747,338,-181,0
715,755,-91,0
648,925,-182,0
641,824,-157,0
607,741,-246,0
492,525,-238,0
571,459,-146,0
639,550,132,0
785,690,321,0
751,806,236,0
721,681,-95,0
596,712,-76,0
635,660,-142,0
638,718,-388,0
605,809,-317,0
720,926,4,0
788,912,-48,0
597,697,-223,0
430,616,-136,0
487,599,-103,0
645,645,-143,0
725,791,-105,0
711,812,7,0
685,771,57,0
624,802,-12,0
561,844,-17,0
536,822,22,0
536,842,58,0
544,836,44,0
530,811,39,0
495,789,37,0
463,765,46,0
462,754,78,0
570,702,86,0
740,664,49,0
757,671,19,0
672,648,86,0
725,618,221,0
812,541,221,0
915,410,95,0
1017,354,54,0
1040,396,92,0
937,427,131,0
827,424,149,0
799,404,119,0
805,425,113,0
785,435,164,0
753,447,210,0
770,454,263,0
798,460,301,0
825,436,311,0
844,381,283,0
876,326,220,0
958,349,171,0
1161,444,171,0
1183,459,122,0
1074,385,68,0
955,374,101,0
806,431,105,0
768,419,58,0
855,449,33,0
968,472,35,0
935,349,14,0
849,362,61,0
836,446,86,0
864,462,50,0
849,411,46,0
833,386,78,0
838,409,96,0
869,424,119,0
950,402,116,0
1075,410,65,0
926,433,117,0
951,508,258,0
876,473,172,0
775,278,143,0
859,405,164,0
834,452,178,0
806,426,237,0
820,394,202,0
849,384,182,0
845,398,194,0
814,414,212,0
779,403,228,0
773,385,241,0
786,372,240,0
767,345,200,0
1021,403,168,0
1144,500,177,0
927,372,63,0
971,382,79,0
892,475,86,0
902,422,50,0
1000,401,30,0
1016,372,8,0
967,335,-8,0
925,339,-20,0
886,346,-18,0
873,333,-24,0
857,334,-5,0
855,349,18,0
882,375,31,0
869,384,60,0
924,371,51,0
980,414,53,0
911,454,130,0
889,490,190,0
918,469,224,0
902,391,219,0
847,316,192,0
832,343,178,0
836,384,173,0
859,387,187,0
879,366,200,0
847,384,202,0
803,371,223,0
807,361,214,0
812,384,211,0
793,368,215,0
776,385,223,0
790,381,229,0
816,366,204,0
909,384,173,0
1010,433,159,0
897,402,121,0
921,396,89,0
1056,466,25,0
1034,481,-10,0
927,454,10,0
921,446,14,0
872,406,14,0
849,380,32,0
884,413,38,0
898,428,30,0
891,425,24,0
886,436,29,0
854,440,31,0
827,461,53,0
803,475,98,0
771,451,138,0
887,391,99,0
1183,443,0,0
993,501,41,0
707,458,165,0
745,489,224,0
864,419,123,0
903,347,97,0
920,408,177,0
855,437,161,0
799,386,145,0
801,354,139,0
795,366,127,0
