Sensors' Acquisition [Hz]: Acc@26.0 
hh:mm:ss.ms, Annotation , AccX [mg], AccY, AccZ
00:33:26.636,,762,408,150
00:33:26.673,,722,416,182
00:33:26.696,>Walk,,,
00:33:26.710,,730,418,197
00:33:26.747,,772,411,210
00:33:26.784,,854,417,223
00:33:26.821,,887,391,152
00:33:26.858,,825,384,96
00:33:26.895,,920,469,132
00:33:26.932,,1012,527,93
00:33:26.969,,1128,511,-4
00:33:27.006,,1090,524,-3
00:33:27.043,,823,488,36
00:33:27.081,,719,462,64
00:33:27.118,,891,521,22
00:33:27.155,,1038,540,-20
00:33:27.192,,983,440,0
00:33:27.316,,823,498,4
00:33:27.316,,823,498,4
00:33:27.317,,823,498,4
00:33:27.340,,815,506,8
00:33:27.377,,772,514,11
00:33:27.414,,761,501,22
00:33:27.451,,762,491,7
00:33:27.488,,753,476,40
00:33:27.525,,873,491,25
00:33:27.562,,958,547,43
00:33:27.600,,892,546,164
00:33:27.637,,896,569,292
00:33:27.674,,866,411,155
00:33:27.711,,794,292,93
00:33:27.748,,856,384,144
00:33:27.785,,959,491,154
00:33:27.822,,866,436,129
00:33:27.859,,780,381,132
00:33:27.896,,782,382,107
00:33:27.933,,787,384,115
00:33:27.970,,746,401,135
00:33:28.057,,687,437,191
00:33:28.057,,687,437,191
00:33:28.081,,726,449,235
00:33:28.118,,808,441,242
00:33:28.156,,898,396,141
00:33:28.193,,1253,523,125
00:33:28.230,,1255,574,88
00:33:28.267,,1027,472,82
00:33:28.304,,786,490,130
00:33:28.341,,730,503,79
00:33:28.378,,906,503,43
00:33:28.415,,996,512,39
00:33:28.452,,921,501,6
00:33:28.489,,878,480,17
00:33:28.526,,903,473,23
00:33:28.563,,909,531,12
00:33:28.600,,882,606,18
00:33:28.637,,839,577,42
00:33:28.675,,764,557,46
00:33:28.712,,692,552,32
00:33:28.803,,715,517,129
00:33:28.803,,715,517,129
00:33:28.823,,821,518,133
00:33:28.860,,868,521,171
00:33:28.897,,812,487,266
00:33:28.934,,800,459,258
00:33:28.971,,868,386,180
00:33:29.008,,870,361,147
00:33:29.045,,905,406,149
00:33:29.082,,974,459,159
00:33:29.119,,917,451,125
00:33:29.156,,814,408,125
00:33:29.193,,790,387,119
00:33:29.231,,774,402,114
00:33:29.268,,762,433,134
00:33:29.305,,734,468,168
00:33:29.342,,706,474,215
00:33:29.379,,737,501,286
00:33:29.416,,806,462,288
00:33:29.503,,915,436,130
00:33:29.503,,915,436,130
00:33:29.527,,1064,539,122
00:33:29.564,,1241,610,30
00:33:29.601,,1230,574,-30
00:33:29.638,,899,492,55
00:33:29.675,,777,467,98
00:33:29.713,,883,523,50
00:33:29.750,,964,524,-12
00:33:29.787,,945,456,22
00:33:29.824,,904,437,58
00:33:29.861,,877,556,21
00:33:29.898,,875,657,12
00:33:29.935,,839,668,37
00:33:29.972,,741,687,49
00:33:30.009,,639,673,40
00:33:30.046,,592,609,20
00:33:30.083,,567,612,53
00:33:30.120,,511,597,135
00:33:30.157,,604,555,152
00:33:30.246,,726,540,178
00:33:30.247,,726,540,178
00:33:30.269,,679,469,243
00:33:30.306,,819,451,239
00:33:30.343,,908,423,187
00:33:30.380,,974,373,142
00:33:30.417,,1038,417,155
00:33:30.454,,957,435,158
00:33:30.491,,862,431,140
00:33:30.528,,846,431,135
00:33:30.565,,822,438,121
00:33:30.602,,803,468,159
00:33:30.639,,759,495,190
00:33:30.676,,745,515,241
00:33:30.713,,776,511,293
00:33:30.750,,836,483,299
00:33:30.787,,900,450,206
00:33:30.825,,839,439,176
00:33:30.862,,1010,494,168
00:33:30.899,,1281,620,104
00:33:30.988,,879,451,123
00:33:30.988,,879,451,123
00:33:31.010,,750,528,119
00:33:31.047,,762,515,18
00:33:31.084,,978,579,-9
00:33:31.121,,1058,571,-14
00:33:31.158,,970,458,-22
00:33:31.195,,912,413,-16
00:33:31.232,,913,527,16
00:33:31.269,,927,618,5
00:33:31.306,,861,669,53
00:33:31.343,,767,703,100
00:33:31.381,,650,687,121
00:33:31.418,,511,613,172
00:33:31.455,,400,584,211
00:33:31.492,,319,590,245
00:33:31.529,,419,565,195
00:33:31.566,,584,568,189
00:33:31.603,,636,547,229
00:33:31.640,,632,469,239
00:33:31.727,,992,445,195
00:33:31.727,,992,445,195
00:33:31.751,,1118,401,120
00:33:31.788,,1191,428,106
00:33:31.825,,1056,449,135
00:33:31.863,,906,400,114
00:33:31.900,,860,397,57
00:33:31.937,,870,426,28
00:33:31.974,,819,444,36
00:33:32.011,,753,472,70
00:33:32.048,,725,508,114
00:33:32.085,,771,530,167
00:33:32.122,,852,525,253
00:33:32.159,,908,465,291
00:33:32.196,,962,352,220
00:33:32.233,,873,305,161
00:33:32.270,,1064,439,192
00:33:32.307,,1284,644,182
00:33:32.344,,1134,563,110
00:33:32.382,,855,403,123
00:33:32.473,,949,487,12
00:33:32.474,,949,487,12
00:33:32.493,,949,487,12
00:33:32.530,,1064,503,-13
00:33:32.567,,999,492,-59
00:33:32.604,,943,502,-59
00:33:32.641,,935,621,-37
00:33:32.678,,945,660,-59
00:33:32.715,,949,608,-39
00:33:32.752,,878,543,31
00:33:32.789,,780,497,152
00:33:32.826,,636,456,207
00:33:32.864,,543,424,251
00:33:32.901,,471,360,345
00:33:32.938,,518,305,379
00:33:32.975,,665,369,392
00:33:33.012,,751,399,353
00:33:33.049,,721,344,318
00:33:33.086,,862,404,343
00:33:33.123,,1151,554,280
00:33:33.160,,1230,552,126
00:33:33.197,,1135,486,99
00:33:33.234,,978,400,113
00:33:33.271,,885,376,76
00:33:33.308,,871,426,43
00:33:33.345,,848,447,11
00:33:33.383,,766,422,22
00:33:33.420,,698,418,58
00:33:33.457,,669,458,93
00:33:33.494,,694,479,163
00:33:33.531,,802,516,243
00:33:33.568,,930,468,220
00:33:33.605,,907,362,119
00:33:33.642,,1041,468,155
00:33:33.679,,1306,651,153
00:33:33.716,,1161,587,65
00:33:33.753,,900,450,79
00:33:33.790,,703,458,100
00:33:33.827,,730,467,30
00:33:33.864,,984,518,7
00:33:33.902,,1096,532,-45
00:33:33.939,,975,413,-72
00:33:33.976,,902,376,-56
00:33:34.013,,909,454,-46
00:33:34.050,,931,476,-70
00:33:34.087,,906,503,-74
00:33:34.124,,838,550,-49
00:33:34.161,,715,581,-57
00:33:34.198,,592,563,-67
00:33:34.235,,578,541,-44
00:33:34.272,,573,553,38
00:33:34.309,,687,548,129
00:33:34.346,,871,531,83
00:33:34.383,,891,526,85
00:33:34.420,,753,450,210
00:33:34.458,,798,446,245
00:33:34.495,,965,452,155
00:33:34.532,,1043,446,74
00:33:34.569,,1031,498,128
00:33:34.606,,976,486,123
00:33:34.643,,878,421,79
00:33:34.680,,816,388,50
00:33:34.717,,788,386,55
00:33:34.754,,757,409,103
00:33:34.791,,728,405,110
00:33:34.828,,667,471,153
00:33:34.865,,751,506,227
00:33:34.902,,899,531,232
00:33:34.940,,845,431,132
00:33:34.977,,942,437,119
00:33:35.014,,1325,606,101
00:33:35.051,,1370,639,5
00:33:35.088,,1024,452,3
00:33:35.125,,732,427,81
00:33:35.162,,785,490,56
00:33:35.199,,974,688,71
00:33:35.236,,1069,698,5
00:33:35.273,,965,376,3
00:33:35.310,,950,141,217
00:33:35.347,,936,388,336
00:33:35.384,,930,578,342
00:33:35.421,,869,589,333
00:33:35.458,,790,471,374
00:33:35.496,,711,400,454
00:33:35.533,,634,433,479
00:33:35.570,,569,257,547
00:33:35.607,,547,119,587
00:33:35.644,,671,186,500
00:33:35.681,,660,305,517
00:33:35.718,,453,220,430
00:33:35.755,,531,192,308
00:33:35.792,,826,359,236
00:33:35.829,,1008,432,107
00:33:35.866,,1102,499,111
00:33:35.903,,1080,565,142
00:33:35.940,,982,481,132
00:33:35.977,,921,364,196
00:33:36.015,,905,469,377
00:33:36.052,,926,570,443
00:33:36.089,,817,597,459
00:33:36.126,,705,564,371
00:33:36.163,,747,649,232
00:33:36.200,,841,675,121
00:33:36.237,,833,544,88
00:33:36.274,,1066,531,51
00:33:36.311,,1329,665,0
00:33:36.348,,1245,608,-57
00:33:36.385,,1008,509,-34
00:33:36.422,,716,480,-29
00:33:36.459,,809,459,-67
00:33:36.497,,945,506,-79
00:33:36.534,,935,537,-55
00:33:36.571,,855,457,-10
00:33:36.608,,802,477,-41
00:33:36.645,,782,621,-7
00:33:36.682,,760,653,52
00:33:36.719,,711,670,65
00:33:36.756,,666,673,61
00:33:36.793,,621,596,81
00:33:36.830,,565,531,144
00:33:36.867,,494,534,241
00:33:36.904,,583,492,319
00:33:36.941,,847,526,186
00:33:36.979,,847,524,176
00:33:37.016,,752,482,357
00:33:37.053,,949,519,308
00:33:37.090,,1162,473,-21
00:33:37.127,,946,393,117
00:33:37.164,,891,484,147
00:33:37.201,,851,498,55
00:33:37.238,,807,432,-13
00:33:37.275,,748,422,20
00:33:37.312,,701,450,36
00:33:37.349,,667,476,64
00:33:37.386,,694,490,84
00:33:37.423,,814,576,82
00:33:37.460,,912,667,126
00:33:37.498,,1068,510,116
00:33:37.535,,1165,698,204
00:33:37.572,,1147,648,156
00:33:37.609,,1000,568,175
00:33:37.646,,792,537,158
00:33:37.683,,895,516,64
00:33:37.720,,1012,477,-17
00:33:37.757,,997,431,-41
00:33:37.794,,917,401,-77
00:33:37.831,,899,432,-62
00:33:37.868,,919,411,-76
00:33:37.905,,928,382,-87
00:33:37.942,,921,361,-95
00:33:37.979,,905,351,-117
00:33:38.016,,814,352,-123
00:33:38.054,,740,378,-96
00:33:38.091,,741,411,-62
00:33:38.128,,933,447,-45
00:33:38.165,,1041,490,-10
00:33:38.202,,930,481,190
00:33:38.239,,960,432,393
00:33:38.276,,943,321,555
00:33:38.313,,853,638,1332
00:33:38.350,,1039,478,556
00:33:38.387,,1038,594,189
00:33:38.424,,862,531,185
00:33:38.461,,736,462,68
00:33:38.498,,738,421,-148
00:33:38.535,,723,345,-421
00:33:38.573,,518,279,-630
00:33:38.610,,424,155,-737
00:33:38.647,,555,94,-784
00:33:38.684,,805,243,-775
00:33:38.721,,938,423,-706
00:33:38.758,,1034,668,-665
00:33:38.795,,978,807,-545
00:33:38.832,,1008,1577,-332
00:33:38.869,,1161,949,-703
00:33:38.906,,1247,335,-754
00:33:38.943,,1049,323,-824
00:33:38.980,,600,-568,1142
00:33:39.017,,657,343,-57
00:33:39.054,,621,279,-1125
00:33:39.092,,564,211,-1350
00:33:39.129,,520,20,-898
00:33:39.166,,437,208,-439
00:33:39.203,,504,194,-485
00:33:39.240,,538,340,-613
00:33:39.277,,546,579,-648
00:33:39.314,,555,763,-619
00:33:39.351,,613,820,-559
00:33:39.388,,681,643,-716
00:33:39.425,,734,499,-614
00:33:39.462,,817,243,-559
00:33:39.499,,948,229,-567
00:33:39.536,,1271,208,-617
00:33:39.573,,1365,58,-796
00:33:39.610,,1072,66,-662
00:33:39.648,,827,118,-511
00:33:39.685,,819,88,-476
00:33:39.722,,835,91,-403
00:33:39.759,,865,241,-386
00:33:39.796,,784,362,-336
00:33:39.833,,732,487,-257
00:33:39.870,,704,593,-260
00:33:39.907,,720,692,-265
00:33:39.944,,697,819,-214
00:33:39.981,,640,889,-163
00:33:40.018,,665,838,-166
00:33:40.055,,716,732,-235
00:33:40.092,,730,659,-231
00:33:40.129,,829,564,-190
00:33:40.166,,1155,569,-147
00:33:40.204,,1340,603,-230
00:33:40.241,,1057,488,-293
00:33:40.278,,871,383,-195
00:33:40.315,,797,399,-141
00:33:40.352,,905,440,-151
00:33:40.389,,966,461,-155
00:33:40.426,,881,373,-104
00:33:40.463,,751,300,-42
00:33:40.500,,720,360,67
00:33:40.537,,835,403,98
00:33:40.574,,888,388,79
00:33:40.611,,927,324,85
00:33:40.648,,977,255,82
00:33:40.685,,1130,285,13
00:33:40.723,,1147,445,36
00:33:40.760,,956,590,310
00:33:40.797,,800,488,403
00:33:40.834,,768,282,190
00:33:40.871,,886,207,31
00:33:40.908,,889,335,50
00:33:40.945,,760,423,108
00:33:40.982,,676,414,117
00:33:41.019,,683,400,91
00:33:41.056,,712,419,56
00:33:41.093,,692,451,66
00:33:41.130,,680,467,95
00:33:41.167,,759,460,161
00:33:41.204,,859,460,172
00:33:41.242,,959,457,186
00:33:41.279,,920,379,114
00:33:41.316,,1073,420,157
00:33:41.353,,1477,584,144
00:33:41.390,,1252,697,101
00:33:41.427,,787,499,209
00:33:41.464,,673,438,237
00:33:41.501,,876,523,111
00:33:41.538,,1028,506,63
00:33:41.575,,988,444,43
00:33:41.612,,903,413,44
00:33:41.649,,891,419,31
00:33:41.686,,924,412,2
00:33:41.723,,922,380,-28
00:33:41.761,,930,406,-24
00:33:41.798,,915,443,-12
00:33:41.835,,906,486,-41
00:33:41.872,,928,446,-65
00:33:41.909,,826,414,-26
00:33:41.946,,825,408,20
00:33:41.983,,894,474,70
00:33:42.020,,828,465,106
00:33:42.057,,703,366,114
00:33:42.094,,687,370,181
00:33:42.131,,780,470,250
00:33:42.168,,925,529,312
00:33:42.205,,970,443,255
00:33:42.242,,891,342,232
00:33:42.279,,824,354,186
00:33:42.317,,841,430,164
00:33:42.354,,853,493,194
00:33:42.391,,775,513,242
00:33:42.428,,700,467,264
00:33:42.465,,759,449,267
00:33:42.502,,835,440,265
00:33:42.539,,972,413,219
00:33:42.576,,915,355,125
00:33:42.613,,952,362,110
00:33:42.650,,1203,513,95
00:33:42.687,,1098,591,42
00:33:42.724,,779,443,47
00:33:42.761,,674,427,87
00:33:42.798,,791,502,5
00:33:42.835,,984,552,-33
00:33:42.873,,1024,518,-25
00:33:42.910,,913,429,-32
00:33:42.947,,837,343,-32
00:33:42.984,,845,349,-21
00:33:43.021,,897,367,-22
00:33:43.058,,918,381,-44
00:33:43.095,,939,381,-23
00:33:43.132,,951,333,11
00:33:43.169,,1021,270,-36
00:33:43.206,,942,364,-184
00:33:43.243,,945,501,-163
00:33:43.280,,860,649,-4
00:33:43.317,,729,700,211
00:33:43.354,,715,593,188
00:33:43.392,,731,421,-92
00:33:43.429,,770,444,-102
00:33:43.466,,870,393,-142
00:33:43.503,,795,374,-411
00:33:43.540,,764,415,-594
00:33:43.577,,648,1730,-323
00:33:43.614,,815,281,132
00:33:43.651,,855,122,-569
00:33:43.688,,753,570,-619
00:33:43.725,,835,94,-643
00:33:43.762,,944,55,-802
00:33:43.799,,980,123,-851
00:33:43.836,,1360,-264,-60
00:33:43.874,,578,1216,191
00:33:43.911,,845,-221,-661
00:33:43.948,,763,170,-521
00:33:43.985,,696,3,-1070
00:33:44.022,,655,-22,-1229
00:33:44.059,,638,93,-1471
00:33:44.096,,579,100,-1608
00:33:44.133,,582,-41,-1774
00:33:44.170,,72,613,-1672
00:33:44.207,,157,560,-996
00:33:44.244,,85,213,-571
00:33:44.281,,91,89,-391
00:33:44.318,,18,-168,0
00:33:44.355,,-108,180,-284
00:33:44.393,,-195,76,-798
00:33:44.430,,-439,696,-362
00:33:44.467,,-600,611,-343
00:33:44.504,,-664,250,-124
00:33:44.541,,-778,351,16
00:33:44.578,,-864,412,-21
00:33:44.615,,-847,528,-524
00:33:44.652,,-855,587,-758
00:33:44.689,,-742,353,-794
00:33:44.726,,-604,85,-680
00:33:44.763,,-583,51,-680
00:33:44.800,,-637,200,-891
00:33:44.837,,-607,327,-854
00:33:44.874,,-532,400,-713
00:33:44.912,,-535,656,-515
00:33:44.949,,-597,733,-599
00:33:44.986,,-390,635,-636
00:33:45.023,,-286,793,-603
00:33:45.060,,-351,765,-564
00:33:45.097,,-463,973,-174
00:33:45.134,,-548,869,-318
00:33:45.171,,-599,807,-136
00:33:45.208,,-582,710,46
00:33:45.245,,-545,718,341
00:33:45.282,,-498,710,722
00:33:45.319,,-445,733,343
00:33:45.356,,-549,775,365
00:33:45.393,,-590,728,660
00:33:45.431,,-568,593,743
00:33:45.468,,-504,498,512
00:33:45.505,,-274,339,507
00:33:45.542,,-63,-104,827
00:33:45.579,,95,344,1498
00:33:45.616,,25,251,1211
00:33:45.653,,-47,114,1286
00:33:45.690,,-233,6,1098
00:33:45.727,,-249,-85,980
00:33:45.764,,-172,-81,987
00:33:45.801,,-91,-110,1025
00:33:45.838,,-71,-170,991
00:33:45.875,,-102,-229,930
00:33:45.912,,-132,-228,878
00:33:45.949,,-131,-240,864
00:33:45.987,,-122,-230,864
00:33:46.024,,-114,-223,865
00:33:46.061,,-97,-233,853
00:33:46.098,,-100,-285,727
00:33:46.135,,-98,-370,555
00:33:46.172,,19,-301,525
00:33:46.209,,234,-107,499
00:33:46.246,,631,109,497
00:33:46.283,,1100,260,493
00:33:46.320,,1398,336,350
00:33:46.357,,1413,241,446
00:33:46.394,,1469,300,545
00:33:46.431,,1470,137,326
00:33:46.468,,1418,114,85
00:33:46.505,,1340,375,52
00:33:46.543,,1225,665,35
00:33:46.580,,1034,760,38
00:33:46.617,,858,643,85
00:33:46.654,,810,537,127
00:33:46.691,,777,537,197
00:33:46.728,,777,544,224
00:33:46.765,,753,552,279
00:33:46.802,,734,459,322
00:33:46.839,,882,302,317
00:33:46.876,,1026,-65,-39
00:33:46.913,,1049,-120,-118
00:33:46.950,,1341,32,-143
00:33:46.987,,1212,-220,-309
00:33:47.024,,1174,-226,-204
00:33:47.061,,1131,15,-115
00:33:47.099,,1118,42,-40
00:33:47.136,,1043,13,34
00:33:47.173,,996,-23,24
00:33:47.210,,975,-23,0
00:33:47.247,,1045,45,-63
00:33:47.284,,1039,175,-90
00:33:47.321,,1056,260,-104
00:33:47.358,,1005,301,-129
00:33:47.395,,934,314,-159
00:33:47.432,,856,349,-152
00:33:47.469,,824,367,-124
00:33:47.506,,862,377,-152
00:33:47.543,,800,433,-181
00:33:47.580,,687,483,-125
00:33:47.617,,719,593,53
00:33:47.654,,787,634,135
00:33:47.692,,806,649,154
00:33:47.729,,862,659,225
00:33:47.766,,908,611,251
00:33:47.803,,891,457,240
00:33:47.840,,923,475,216
00:33:47.877,,936,523,215
00:33:47.914,,905,534,246
00:33:47.951,,842,478,256
00:33:47.988,,818,461,226
00:33:48.025,,821,456,181
00:33:48.062,,820,434,138
00:33:48.099,,850,424,111
00:33:48.136,,859,405,108
00:33:48.173,,850,380,104
00:33:48.210,,819,408,107
00:33:48.247,,814,435,134
00:33:48.285,,835,446,172
00:33:48.322,,842,467,211
00:33:48.359,,858,458,231
00:33:48.396,,870,424,198
00:33:48.433,,870,389,170
00:33:48.470,,852,403,148
00:33:48.507,,824,377,117
00:33:48.544,,757,362,79
00:33:48.581,,744,362,41
00:33:48.618,,1009,426,-9
00:33:48.655,,890,466,-42
00:33:48.692,,799,437,-64
00:33:48.729,,984,482,-105
00:33:48.766,,1064,562,-119
00:33:48.803,,947,515,-89
00:33:48.840,,919,520,-68
00:33:48.877,,959,487,-75
00:33:48.915,,962,441,-56
00:33:48.952,,942,435,-40
00:33:48.989,,932,511,-33
00:33:49.026,,948,493,-35
00:33:49.063,,942,436,0
00:33:49.100,,912,410,39
00:33:49.137,,873,420,11
00:33:49.174,,831,430,12
00:33:49.211,,765,423,71
00:33:49.248,,740,392,92
00:33:49.285,,974,372,-2
00:33:49.322,,1010,410,-9
00:33:49.359,,738,457,170
00:33:49.396,,750,531,338
00:33:49.433,,971,542,270
00:33:49.470,,1055,430,88
00:33:49.508,,896,362,224
00:33:49.545,,775,389,294
00:33:49.582,,779,450,189
00:33:49.619,,805,488,195
00:33:49.656,,807,465,172
00:33:49.693,,803,445,154
00:33:49.730,,808,425,143
00:33:49.767,,797,406,96
00:33:49.804,,873,432,99
00:33:49.841,,846,439,81
00:33:49.878,,824,452,115
00:33:49.915,,832,438,114
00:33:49.952,,1058,488,88
00:33:49.989,,1052,482,40
00:33:50.026,,1045,414,-58
00:33:50.063,,1008,404,-122
00:33:50.100,,936,345,-185
00:33:50.138,,897,334,-202
00:33:50.175,,893,364,-245
00:33:50.212,,865,365,-303
00:33:50.249,,805,368,-294
00:33:50.286,,758,406,-259
00:33:50.323,,791,445,-220
00:33:50.360,,861,501,-197
00:33:50.397,,898,530,-174
00:33:50.434,,902,519,-139
00:33:50.471,,901,526,-105
00:33:50.508,,889,525,-68
00:33:50.545,,877,521,-37
00:33:50.582,,825,496,-25
00:33:50.619,,791,475,10
00:33:50.656,,772,498,26
00:33:50.693,,725,499,45
00:33:50.731,,704,473,45
00:33:50.768,,726,511,96
00:33:50.805,,848,549,366
00:33:50.842,,1146,726,297
00:33:50.879,,984,648,-55
00:33:50.916,,869,564,-43
00:33:50.953,,846,476,50
00:33:50.990,,810,389,53
00:33:51.027,,789,388,-21
00:33:51.064,,779,476,-104
00:33:51.101,,817,504,-81
00:33:51.138,,846,449,-18
00:33:51.175,,757,401,31
00:33:51.212,,704,413,147
00:33:51.249,,722,530,517
00:33:51.286,,737,442,626
00:33:51.324,,793,300,199
00:33:51.361,,930,476,99
00:33:51.398,,874,716,216
00:33:51.435,,886,349,82
00:33:51.472,,1112,375,-10
00:33:51.509,,1036,528,-97
00:33:51.546,,858,501,-45
00:33:51.583,,796,446,38
00:33:51.620,,796,430,27
00:33:51.657,,856,394,-11
00:33:51.694,,909,381,-32
00:33:51.731,,882,400,-39
00:33:51.768,,844,415,-31
00:33:51.805,,838,434,-11
00:33:51.842,,838,401,-8
00:33:51.879,,855,407,-20
00:33:51.917,,871,456,-1
00:33:51.954,,876,449,17
00:33:51.991,,931,435,0
00:33:52.028,,1119,467,-71
00:33:52.065,,1078,461,-52
00:33:52.102,,948,546,45
00:33:52.139,,894,604,114
00:33:52.176,,780,523,118
00:33:52.213,,757,429,155
00:33:52.250,,832,461,179
00:33:52.287,,914,521,197
00:33:52.324,,958,493,218
00:33:52.361,,891,412,189
00:33:52.398,,832,321,143
00:33:52.435,,791,300,99
00:33:52.473,,744,269,45
00:33:52.510,,661,327,-6
00:33:52.547,,648,535,-89
00:33:52.584,,730,564,-162
00:33:52.621,,793,512,-100
00:33:52.658,,809,445,-63
00:33:52.695,,794,446,-31
00:33:52.732,,822,461,-9
00:33:52.769,,997,513,-52
00:33:52.806,,1008,460,-82
00:33:52.843,,1099,673,-80
00:33:52.880,,886,832,-77
00:33:52.917,,658,624,-3
00:33:52.954,,719,496,-65
00:33:52.991,,981,234,-75
00:33:53.028,,1127,143,-83
00:33:53.065,,1019,126,-227
00:33:53.103,,843,409,-330
00:33:53.140,,796,581,-397
00:33:53.177,,815,681,-354
00:33:53.214,,787,561,-334
00:33:53.251,,774,421,-278
00:33:53.288,,778,368,-276
00:33:53.325,,786,437,-308
00:33:53.362,,770,534,-379
00:33:53.399,,770,420,-521
00:33:53.436,,983,264,-598
00:33:53.473,,1164,238,-467
00:33:53.510,,1085,286,-289
00:33:53.547,,909,354,-101
00:33:53.584,,727,408,-61
00:33:53.621,,691,350,-82
00:33:53.658,,810,445,25
00:33:53.696,,1308,848,511
00:33:53.733,,1198,-531,1310
00:33:53.770,,756,412,513
00:33:53.807,,790,579,131
00:33:53.844,,835,195,-234
00:33:53.881,,772,330,-107
00:33:53.918,,648,318,-46
00:33:53.955,,596,385,36
00:33:53.992,,610,456,68
00:33:54.029,,683,483,74
00:33:54.066,,864,501,50
00:33:54.103,,1462,390,279
00:33:54.140,,1113,291,704
00:33:54.177,,778,301,210
00:33:54.214,,1066,538,105
00:33:54.251,,1120,574,-63
00:33:54.288,,1036,493,-46
00:33:54.326,,952,369,77
00:33:54.363,,892,257,80
00:33:54.400,,923,265,24
00:33:54.437,,966,311,-6
00:33:54.474,,925,373,-21
00:33:54.511,,832,396,-4
00:33:54.548,,769,375,26
00:33:54.585,,754,345,25
00:33:54.622,,793,351,17
00:33:54.659,,847,382,3
00:33:54.696,,887,406,-4
00:33:54.733,,1030,460,-31
00:33:54.770,,1081,509,-82
00:33:54.807,,987,539,-70
00:33:54.844,,892,537,16
00:33:54.881,,896,503,46
00:33:54.919,,919,479,36
00:33:54.956,,913,443,10
00:33:54.993,,903,434,2
00:33:55.030,,871,447,25
00:33:55.067,,809,456,54
00:33:55.104,,766,464,93
00:33:55.141,,839,306,242
00:33:55.178,,891,355,437
00:33:55.215,,907,654,422
00:33:55.252,,873,660,286
00:33:55.289,,817,494,149
00:33:55.326,,872,435,115
00:33:55.363,,950,367,65
00:33:55.400,,992,319,62
00:33:55.437,,970,366,61
00:33:55.474,,955,406,60
00:33:55.512,,938,396,54
00:33:55.549,,954,398,79
00:33:55.586,,941,398,97
00:33:55.623,,900,380,99
00:33:55.660,,827,332,116
00:33:55.697,,758,271,126
00:33:55.734,,717,261,133
00:33:55.771,,718,309,136
00:33:55.808,,814,345,126
00:33:55.845,,926,361,80
00:33:55.882,,1010,392,52
00:33:55.919,,1004,430,38
00:33:55.956,,956,495,81
00:33:55.993,,922,529,100
00:33:56.030,,922,488,75
00:33:56.067,,921,421,75
00:33:56.104,,911,401,92
00:33:56.142,,898,401,92
00:33:56.179,,898,412,90
00:33:56.216,,914,402,88
00:33:56.253,,914,389,86
00:33:56.290,,925,411,93
00:33:56.327,,918,296,110
00:33:56.364,,906,361,91
00:33:56.401,,892,356,98
00:33:56.438,,884,340,88
00:33:56.475,,876,350,81
00:33:56.512,,865,367,77
00:33:56.549,,859,374,79
00:33:56.586,,869,378,77
00:33:56.623,,876,390,79
00:33:56.660,,882,399,76
00:33:56.698,,887,411,75
00:33:56.735,,882,409,78
00:33:56.772,,892,414,85
00:33:56.809,,885,408,89
00:33:56.846,,876,419,90
00:33:56.883,,878,425,93
00:33:56.920,,885,416,76
00:33:56.957,,887,419,65
00:33:56.994,,902,430,61
00:33:57.031,,885,437,75
00:33:57.068,,874,416,102
00:33:57.105,,870,393,101
00:33:57.142,,876,409,81
00:33:57.179,,875,416,58
00:33:57.216,,886,397,45
00:33:57.253,,899,396,45
00:33:57.290,,889,388,51
00:33:57.328,,875,375,56
00:33:57.365,,870,380,59
00:33:57.402,,871,392,62
00:33:57.439,,891,414,69
00:33:57.476,,891,435,73
00:33:57.513,,912,449,91
00:33:57.550,,904,435,97
00:33:57.587,,933,488,57
00:33:57.624,,921,394,40
00:33:57.661,,906,305,-18
00:33:57.698,,876,411,-102
00:33:57.735,,860,479,-144
00:33:57.772,,815,589,-126
00:33:57.809,,805,584,-203
00:33:57.846,,816,572,-240
00:33:57.883,,817,545,-260
00:33:57.920,,734,492,-288
00:33:57.958,,708,453,-336
00:33:57.995,,715,378,-325
00:33:58.032,,728,435,-366
00:33:58.069,,731,560,-481
00:33:58.106,,701,665,-568
00:33:58.143,,669,702,-593
00:33:58.180,,630,644,-597
00:33:58.217,,592,529,-570
00:33:58.254,,558,442,-595
00:33:58.291,,560,350,-661
00:33:58.328,,570,242,-677
00:33:58.365,,581,174,-659
00:33:58.402,,582,146,-642
00:33:58.439,,562,182,-587
00:33:58.476,,556,266,-435
00:33:58.513,,605,316,-437
00:33:58.550,,715,375,-485
00:33:58.587,,839,427,-466
00:33:58.625,,940,625,-304
00:33:58.662,,996,712,-255
00:33:58.699,,1038,567,-225
00:33:58.736,,1025,218,404
00:33:58.773,,1275,302,1221
00:33:58.810,,1071,101,109
00:33:58.847,,904,482,-29
00:33:58.884,,764,485,81
00:33:58.921,,667,463,74
00:33:58.958,,705,342,35
00:33:58.995,,815,367,1
00:33:59.032,,905,433,-33
00:33:59.069,,942,449,-58
00:33:59.106,,928,451,-62
00:33:59.143,,887,448,-15
00:33:59.180,,888,420,9
00:33:59.217,,890,414,-6
00:33:59.255,,878,408,6
00:33:59.292,,845,445,48
00:33:59.329,,819,415,33
00:33:59.366,,859,377,53
00:33:59.403,,908,384,72
00:33:59.440,,927,423,293
00:33:59.477,,956,438,400
00:33:59.514,,918,472,170
00:33:59.551,,928,420,74
00:33:59.588,,902,356,62
00:33:59.625,,894,311,18
00:33:59.662,,883,359,6
00:33:59.699,,832,441,17
00:33:59.736,,823,465,49
00:33:59.773,,836,511,76
00:33:59.810,,874,433,5
00:33:59.847,,936,295,-32
00:33:59.885,,897,598,60
00:33:59.922,,864,498,29
00:33:59.959,,869,412,50
00:33:59.996,,899,330,29
00:34:00.033,,904,338,39
00:34:00.070,,885,375,46
00:34:00.107,,861,403,54
00:34:00.144,,855,399,65
00:34:00.181,,868,408,84
00:34:00.218,,874,380,107
00:34:00.255,,898,394,170
00:34:00.292,,893,443,173
00:34:00.329,,877,443,124
00:34:00.366,,870,438,93
00:34:00.403,,869,403,78
00:34:00.440,,875,387,69
00:34:00.478,,881,400,62
00:34:00.515,,879,405,53
00:34:00.552,,876,409,56
00:34:00.589,,875,417,71
00:34:00.626,,875,439,87
00:34:00.663,,872,449,109
00:34:00.700,,866,449,118
00:34:00.737,,876,438,108
00:34:00.774,,879,423,93
00:34:00.811,,875,412,80
00:34:00.848,,879,409,70
00:34:00.885,,877,407,71
00:34:00.922,,876,406,77
00:34:00.959,,883,408,80
00:34:00.996,,884,407,82
00:34:01.033,,884,406,88
00:34:01.071,,880,403,81
00:34:01.108,,881,404,73
00:34:01.145,,884,401,69
00:34:01.182,,890,404,68
00:34:01.219,,889,405,70
00:34:01.256,,892,397,76
00:34:01.293,,889,392,77
00:34:01.330,,889,392,75
00:34:01.367,,884,396,72
00:34:01.404,,884,401,70
00:34:01.441,,885,403,68
00:34:01.478,,882,398,70
00:34:01.515,,878,395,68
00:34:01.552,,881,412,67
00:34:01.590,,883,407,69
00:34:01.627,,884,414,66
00:34:01.664,,886,416,60
00:34:01.701,,888,422,57
00:34:01.738,,886,428,54
00:34:01.775,,879,425,58
00:34:01.812,,878,432,63
00:34:01.849,,884,427,57
00:34:01.886,,891,416,63
00:34:01.923,,901,401,61
00:34:01.960,,904,397,67
00:34:01.997,,901,380,82
00:34:02.034,,897,371,87
00:34:02.071,,910,372,112
00:34:02.108,,917,361,118
00:34:02.146,,905,391,138
00:34:02.183,,898,380,163
00:34:02.220,,870,381,157
00:34:02.257,,874,361,168
00:34:02.294,,931,447,205
00:34:02.331,,863,511,223
00:34:02.368,,717,425,191
00:34:02.405,,652,392,149
00:34:02.442,,676,391,126
00:34:02.479,,795,425,140
00:34:02.516,,928,464,138
00:34:02.553,,870,437,100
00:34:02.590,,824,414,63
00:34:02.627,,898,438,36
00:34:02.664,,985,415,-14
00:34:02.702,,966,401,-36
00:34:02.739,,910,411,-55
00:34:02.776,,895,423,-67
00:34:02.813,,912,425,-68
00:34:02.850,,968,419,-76
00:34:02.887,,972,423,-70
00:34:02.924,,966,425,-65
00:34:02.961,,966,435,-49
00:34:02.998,,935,455,-50
00:34:03.035,,885,450,-41
00:34:03.072,,881,477,-21
00:34:03.109,,864,462,-27
00:34:03.146,,847,441,-38
00:34:03.183,,833,458,-36
00:34:03.220,,825,505,-59
00:34:03.258,,811,512,-87
00:34:03.295,,801,496,-74
00:34:03.332,,915,497,-59
00:34:03.369,,1040,460,-114
00:34:03.406,,957,421,-103
00:34:03.443,,720,456,-29
00:34:03.480,,580,514,55
00:34:03.517,,656,588,137
00:34:03.554,,786,567,65
00:34:03.591,,892,436,49
00:34:03.628,,970,317,125
00:34:03.665,,984,306,168
00:34:03.702,,946,368,196
00:34:03.739,,864,395,170
00:34:03.776,,826,396,152
00:34:03.813,,812,417,188
00:34:03.851,,784,406,202
00:34:03.888,,757,388,203
00:34:03.925,,749,371,205
00:34:03.962,,769,362,209
00:34:03.999,,795,355,220
00:34:04.036,,806,328,207
00:34:04.073,,841,402,153
00:34:04.110,,1037,429,119
00:34:04.147,,1049,471,107
00:34:04.184,,932,385,20
00:34:04.221,,996,436,12
00:34:04.258,,936,531,39
00:34:04.295,,787,474,42
00:34:04.332,,831,452,41
00:34:04.369,,976,448,2
00:34:04.406,,990,367,-38
00:34:04.444,,919,361,-27
00:34:04.481,,884,453,-17
00:34:04.518,,882,471,-41
00:34:04.555,,899,465,-31
00:34:04.592,,890,482,-24
00:34:04.629,,879,465,-15
00:34:04.666,,865,472,-15
00:34:04.703,,844,513,-9
00:34:04.740,,808,514,11
00:34:04.777,,768,476,42
00:34:04.814,,800,469,62
00:34:04.851,,953,480,33
00:34:04.888,,960,498,54
00:34:04.925,,767,454,132
00:34:04.962,,765,528,215
00:34:05.-01,,806,476,171
00:34:05.037,,804,361,89
00:34:05.074,,854,428,137
00:34:05.111,,937,502,174
00:34:05.148,,914,423,153
00:34:05.185,,853,367,130
00:34:05.222,,844,402,89
00:34:05.259,,842,382,78
00:34:05.296,,815,396,97
00:34:05.333,,790,418,120
00:34:05.370,,750,430,140
00:34:05.407,,795,397,135
00:34:05.444,,826,394,128
00:34:05.481,,790,433,173
00:34:05.518,,753,378,175
00:34:05.555,,788,258,84
00:34:05.593,,1093,371,81
00:34:05.630,,1154,402,121
00:34:05.667,,1128,382,-47
00:34:05.704,,1186,572,-24
00:34:05.741,,894,556,14
00:34:05.778,,726,442,106
00:34:05.815,,870,463,113
00:34:05.852,,983,519,11
00:34:05.889,,967,442,23
00:34:05.926,,926,377,77
00:34:05.963,,899,453,70
00:34:06.000,,882,500,78
00:34:06.037,,866,472,90
00:34:06.074,,818,456,84
00:34:06.111,,745,426,75
00:34:06.148,,695,426,68
00:34:06.185,,677,443,83
00:34:06.223,,670,435,100
00:34:06.260,,672,407,66
00:34:06.297,,892,402,-17
00:34:06.334,,1145,456,-90
00:34:06.371,,1082,582,52
00:34:06.408,,1125,493,23
00:34:06.445,,1102,538,69
00:34:06.482,,840,525,134
00:34:06.519,,728,559,303
00:34:06.556,,849,555,250
00:34:06.593,,891,493,203
00:34:06.630,,809,404,168
00:34:06.667,,726,414,98
00:34:06.704,,710,463,89
00:34:06.741,,670,474,97
00:34:06.779,,612,406,68
00:34:06.816,,636,330,144
00:34:06.853,,734,237,220
00:34:06.890,,920,219,127
00:34:06.927,,952,331,-137
00:34:06.964,,717,842,-1199
00:34:07.001,,850,1878,-1183
00:34:07.038,,939,1153,-1047
00:34:07.075,,606,193,-671
00:34:07.112,,480,103,-685
00:34:07.149,,517,259,-710
00:34:07.186,,599,119,-698
00:34:07.223,,698,124,-743
00:34:07.260,,717,181,-778
00:34:07.297,,632,105,-676
00:34:07.335,,548,170,-514
00:34:07.372,,499,240,-410
00:34:07.409,,485,200,-349
00:34:07.446,,524,218,-313
00:34:07.483,,569,217,-271
00:34:07.520,,665,399,-261
00:34:07.557,,795,659,-233
00:34:07.594,,973,1325,114
00:34:07.631,,1108,1441,78
00:34:07.668,,1126,574,-482
00:34:07.705,,1584,140,-319
00:34:07.742,,1445,6,-24
00:34:07.779,,1031,175,263
00:34:07.816,,858,632,172
00:34:07.853,,758,782,-25
00:34:07.890,,672,553,-115
00:34:07.928,,720,471,-119
00:34:07.965,,787,440,-84
00:34:08.002,,776,443,-50
00:34:08.039,,744,426,-24
00:34:08.076,,783,439,-52
00:34:08.113,,835,433,-76
00:34:08.150,,862,418,-55
00:34:08.187,,798,411,-19
00:34:08.224,,898,626,51
00:34:08.261,,1185,-235,636
00:34:08.298,,1023,383,409
00:34:08.335,,1083,393,60
00:34:08.372,,1026,292,-58
00:34:08.409,,991,338,-112
00:34:08.446,,1016,579,-74
00:34:08.483,,937,391,-56
00:34:08.521,,787,296,-18
00:34:08.558,,699,340,-16
00:34:08.595,,671,683,-119
00:34:08.632,,724,650,-245
00:34:08.669,,809,332,-70
00:34:08.706,,903,288,134
00:34:08.743,,991,343,250
00:34:08.780,,1012,193,180
00:34:08.817,,1074,93,-10
00:34:08.854,,1265,283,-81
00:34:08.891,,985,621,57
00:34:08.928,,745,596,584
00:34:08.965,,847,351,841
00:34:09.002,,965,266,128
00:34:09.039,,770,573,37
00:34:09.076,,698,728,115
00:34:09.114,,672,627,-63
00:34:09.151,,684,405,-150
00:34:09.188,,732,198,-97
00:34:09.225,,760,454,-169
00:34:09.262,,748,592,-118
00:34:09.299,,745,624,-42
00:34:09.336,,777,502,13
00:34:09.373,,890,147,161
00:34:09.410,,1058,463,530
00:34:09.447,,887,1016,60
00:34:09.484,,893,490,-45
00:34:09.521,,800,139,-90
00:34:09.558,,979,573,-75
00:34:09.595,,1002,806,-59
00:34:09.632,,918,748,-164
00:34:09.669,,884,837,-242
00:34:09.707,,1005,571,-397
00:34:09.744,,1043,207,-299
00:34:09.781,,971,10,-107
00:34:09.818,,902,83,32
00:34:09.855,,839,224,6
00:34:09.892,,788,344,-58
00:34:09.929,,773,411,-89
00:34:09.966,,794,462,-71
00:34:10.003,,832,421,-38
00:34:10.040,,868,400,4
00:34:10.077,,951,373,15
00:34:10.114,,1304,337,-99
00:34:10.151,,1029,342,-36
00:34:10.188,,865,446,176
00:34:10.225,,888,515,201
00:34:10.262,,911,447,96
00:34:10.299,,879,340,273
00:34:10.337,,946,419,470
00:34:10.374,,966,270,311
00:34:10.411,,954,104,224
00:34:10.448,,887,155,106
00:34:10.485,,795,266,16
00:34:10.522,,764,419,27
00:34:10.559,,750,492,32
00:34:10.596,,732,463,60
00:34:10.633,,724,377,85
00:34:10.670,,753,342,101
00:34:10.707,,823,348,140
00:34:10.744,,861,297,113
00:34:10.781,,1037,755,222
00:34:10.818,,858,699,78
00:34:10.855,,748,633,8
00:34:10.893,,872,583,-49
00:34:10.930,,966,525,-132
00:34:10.967,,918,441,-126
00:34:11.004,,917,432,-63
00:34:11.041,,1016,347,-66
00:34:11.078,,993,158,-78
00:34:11.115,,939,73,-153
00:34:11.152,,734,450,-444
00:34:11.189,,733,672,-294
00:34:11.226,,794,522,-275
00:34:11.263,,835,417,-283
00:34:11.300,,865,391,-280
00:34:11.337,,853,394,-310
00:34:11.374,,827,408,-301
00:34:11.411,,1063,467,-326
00:34:11.448,,1050,471,-384
00:34:11.485,,887,439,-231
00:34:11.523,,840,625,-121
00:34:11.560,,719,463,-210
00:34:11.597,,699,303,-138
00:34:11.634,,784,274,39
00:34:11.671,,907,285,108
00:34:11.708,,926,360,112
00:34:11.745,,848,389,163
00:34:11.782,,845,387,190
00:34:11.819,,837,414,230
00:34:11.856,,782,371,261
00:34:11.893,,709,305,194
00:34:11.930,,725,340,138
00:34:11.967,,759,365,113
00:34:12.004,,785,449,138
00:34:12.041,,1149,558,113
00:34:12.078,,965,624,78
00:34:12.115,,811,495,20
00:34:12.152,,913,476,-31
00:34:12.190,,940,428,-158
00:34:12.227,,873,409,-170
00:34:12.264,,939,473,-62
00:34:12.301,,964,456,-95
00:34:12.338,,894,394,-99
00:34:12.375,,863,372,-27
00:34:12.412,,885,359,-29
00:34:12.449,,909,376,-35
00:34:12.486,,932,377,10
00:34:12.523,,981,388,39
00:34:12.560,,1097,343,-49
00:34:12.597,,953,338,-18
00:34:12.634,,816,416,156
00:34:12.671,,821,491,214
00:34:12.708,,843,391,116
00:34:12.745,,897,260,48
00:34:12.783,,909,290,68
00:34:12.820,,879,307,42
00:34:12.857,,823,405,104
00:34:12.894,,766,464,149
00:34:12.931,,751,449,130
00:34:12.968,,779,452,159
00:34:13.005,,784,446,162
00:34:13.042,,756,466,185
00:34:13.079,,755,469,203
00:34:13.116,,806,452,183
00:34:13.153,,1214,533,185
00:34:13.190,,1221,540,85
00:34:13.227,,868,404,24
00:34:13.264,,808,394,96
00:34:13.301,,853,449,41
00:34:13.339,,985,451,-20
00:34:13.376,,1060,396,-50
00:34:13.413,,930,366,-52
00:34:13.450,,851,407,-21
00:34:13.487,,845,450,-24
00:34:13.524,,854,472,-16
00:34:13.561,,842,479,20
00:34:13.598,,823,482,29
00:34:13.635,,817,471,29
00:34:13.672,,796,470,45
00:34:13.709,,745,489,73
00:34:13.746,,727,465,128
00:34:13.783,,903,423,93
00:34:13.820,,1134,466,10
00:34:13.858,,1018,496,42
00:34:13.895,,872,532,191
00:34:13.932,,898,520,171
00:34:13.969,,883,394,27
00:34:14.006,,845,348,72
00:34:14.043,,892,428,135
00:34:14.080,,864,465,114
00:34:14.117,,802,414,134
00:34:14.154,,781,381,156
00:34:14.191,,764,383,163
00:34:14.228,,756,389,184
00:34:14.265,,750,406,219
00:34:14.302,,709,413,236
00:34:14.339,,732,421,275
00:34:14.376,,854,417,266
00:34:14.414,,928,360,183
00:34:14.451,,869,328,107
00:34:14.488,,1101,428,128
00:34:14.525,,1221,594,117
00:34:14.562,,930,461,58
00:34:14.599,,800,397,147
00:34:14.636,,756,472,135
00:34:14.673,,807,428,65
00:34:14.710,,1001,456,47
00:34:14.747,,1048,461,7
00:34:14.784,,870,395,-12
00:34:14.821,,771,395,53
00:34:14.858,,818,430,50
00:34:14.895,,895,407,15
00:34:14.933,,915,358,13
00:34:14.970,,904,363,27
00:34:15.007,,920,384,16
00:34:15.044,,915,383,14
00:34:15.081,,842,383,16
00:34:15.118,,887,391,-96
00:34:15.155,,982,414,-183
00:34:15.192,,989,511,-118
00:34:15.229,,993,641,48
00:34:15.266,,851,636,61
00:34:15.303,,723,487,156
00:34:15.340,,945,496,333
00:34:15.377,,1143,-163,479
00:34:15.414,,1006,-124,275
00:34:15.452,,814,277,125
00:34:15.489,,731,334,75
00:34:15.526,,717,444,112
00:34:15.563,,748,458,116
00:34:15.600,,781,446,191
00:34:15.637,,713,402,180
00:34:15.674,,661,49,301
00:34:15.711,,749,20,465
00:34:15.748,,867,166,346
00:34:15.785,,1038,782,309
00:34:15.822,,1226,832,118
00:34:15.859,,1152,597,103
00:34:15.896,,1039,502,0
00:34:15.933,,845,435,-35
00:34:15.971,,726,402,-2
00:34:16.008,,743,402,-8
00:34:16.045,,896,411,-45
00:34:16.082,,971,439,-73
00:34:16.119,,860,357,-78
00:34:16.156,,796,342,-31
00:34:16.193,,845,400,-5
00:34:16.230,,885,432,-30
00:34:16.267,,950,357,-11
00:34:16.304,,938,348,-16
00:34:16.341,,935,263,12
00:34:16.378,,909,307,-29
00:34:16.415,,880,454,33
00:34:16.452,,826,453,73
00:34:16.489,,880,440,85
00:34:16.526,,1079,470,27
00:34:16.563,,1061,577,86
00:34:16.601,,963,594,303
00:34:16.638,,1026,587,318
00:34:16.675,,922,366,144
00:34:16.712,,801,272,163
00:34:16.749,,788,341,144
00:34:16.786,,797,434,111
00:34:16.823,,815,442,101
00:34:16.860,,778,443,134
00:34:16.897,,797,418,134
00:34:16.934,,771,378,149
00:34:16.971,,773,330,212
00:34:17.008,,774,326,248
00:34:17.045,,770,339,271
00:34:17.082,,760,341,296
00:34:17.119,,746,326,316
00:34:17.156,,763,314,328
00:34:17.194,,763,309,323
00:34:17.231,,771,333,281
00:34:17.268,,866,323,235
00:34:17.305,,1125,399,216
00:34:17.342,,1083,425,166
00:34:17.379,,1020,356,99
00:34:17.416,,1060,398,54
00:34:17.453,,920,414,50
00:34:17.490,,825,383,56
00:34:17.527,,902,476,68
00:34:17.564,,1008,478,0
00:34:17.601,,1005,405,-21
00:34:17.638,,982,320,-49
00:34:17.675,,943,273,-74
00:34:17.712,,894,340,41
00:34:17.750,,857,429,36
00:34:17.787,,820,452,-3
00:34:17.824,,810,454,16
00:34:17.861,,789,502,15
00:34:17.898,,771,490,68
00:34:17.935,,760,506,81
00:34:17.972,,760,557,120
00:34:18.009,,763,547,133
00:34:18.046,,772,546,143
00:34:18.083,,880,562,99
00:34:18.120,,958,541,74
00:34:18.157,,875,534,122
00:34:18.194,,885,606,156
00:34:18.231,,900,561,105
00:34:18.268,,844,447,72
00:34:18.305,,836,462,82
00:34:18.343,,838,500,64
00:34:18.380,,855,529,81
00:34:18.417,,878,492,110
00:34:18.454,,837,460,135
00:34:18.491,,775,429,154
00:34:18.528,,785,419,136
00:34:18.565,,802,416,143
00:34:18.602,,790,400,139
00:34:18.639,,784,392,120
00:34:18.676,,776,395,125
00:34:18.713,,765,364,219
00:34:18.750,,745,335,235
00:34:18.787,,781,358,201
00:34:18.824,,954,401,143
00:34:18.861,,1134,493,115
00:34:18.899,,962,437,78
00:34:18.936,,926,429,58
00:34:18.973,,1041,496,1
00:34:19.010,,1007,480,-32
00:34:19.047,,928,464,15
00:34:19.084,,911,454,21
00:34:19.121,,870,406,4
00:34:19.158,,855,394,8
00:34:19.195,,871,405,0
00:34:19.232,,864,424,-24
00:34:19.269,,860,440,-27
00:34:19.306,,837,432,-37
00:34:19.343,,836,453,-10
00:34:19.380,,850,442,1
00:34:19.417,,812,414,27
00:34:19.455,,794,429,60
00:34:19.492,,803,443,96
00:34:19.529,,796,398,90
00:34:19.566,,834,441,82
00:34:19.603,,1023,430,-28
00:34:19.640,,1128,448,-77
00:34:19.677,,972,459,-22
00:34:19.714,,977,628,118
00:34:19.751,,1032,577,127
00:34:19.788,,940,341,35
00:34:19.825,,822,373,79
00:34:19.862,,813,461,85
00:34:19.899,,807,446,88
00:34:19.936,,806,404,135
00:34:19.973,,783,425,160
00:34:20.011,,784,444,230
00:34:20.048,,826,438,255
00:34:20.085,,859,433,282
00:34:20.122,,850,383,271
00:34:20.159,,810,373,253
00:34:20.196,,776,404,224
00:34:20.233,,773,414,206
00:34:20.270,,789,413,178
00:34:20.307,,815,411,141
00:34:20.344,,815,428,130
00:34:20.381,,815,440,124
00:34:20.418,,826,445,114
00:34:20.455,,954,438,83
00:34:20.492,,1275,503,50
00:34:20.529,,1043,404,-8
00:34:20.567,,1041,395,81
00:34:20.604,,1078,461,61
00:34:20.641,,910,445,41
00:34:20.678,,808,418,61
00:34:20.715,,871,418,47
00:34:20.752,,1021,431,43
00:34:20.789,,1092,375,21
00:34:20.826,,1037,323,16
00:34:20.863,,935,357,17
00:34:20.900,,870,389,20
00:34:20.937,,850,394,35
00:34:20.974,,814,366,72
00:34:21.011,,759,353,117
00:34:21.048,,698,333,165
00:34:21.085,,680,323,202
00:34:21.122,,689,425,230
00:34:21.160,,704,510,240
00:34:21.197,,762,533,198
00:34:21.234,,998,564,85
00:34:21.271,,1074,571,58
00:34:21.308,,1116,673,137
00:34:21.345,,1186,737,163
00:34:21.382,,967,537,45
00:34:21.419,,757,420,69
00:34:21.456,,727,470,84
00:34:21.493,,817,487,48
00:34:21.530,,887,502,76
00:34:21.567,,819,452,122
00:34:21.604,,758,447,185
00:34:21.641,,795,439,151
00:34:21.678,,878,413,155
00:34:21.715,,878,377,184
00:34:21.753,,817,375,243
00:34:21.790,,777,361,288
00:34:21.827,,777,306,288
00:34:21.864,,803,291,270
00:34:21.901,,827,322,235
00:34:21.938,,841,325,207
00:34:21.975,,1118,412,180
00:34:22.012,,1220,416,96
00:34:22.049,,982,351,47
00:34:22.086,,815,467,124
00:34:22.123,,739,492,91
00:34:22.160,,784,414,52
00:34:22.197,,957,402,28
00:34:22.234,,1059,394,-37
00:34:22.271,,947,384,-58
00:34:22.308,,877,439,16
00:34:22.345,,878,411,4
00:34:22.383,,881,360,-14
00:34:22.420,,879,353,-3
00:34:22.457,,901,361,-4
00:34:22.494,,926,384,4
00:34:22.531,,907,390,39
00:34:22.568,,887,404,82
00:34:22.605,,935,383,50
00:34:22.642,,1097,428,-11
00:34:22.679,,1042,463,-11
00:34:22.716,,827,508,139
00:34:22.753,,807,486,183
00:34:22.790,,844,359,111
00:34:22.827,,825,376,177
00:34:22.864,,791,416,205
00:34:22.901,,802,424,210
00:34:22.938,,843,402,232
00:34:22.975,,844,373,246
00:34:23.013,,802,369,268
00:34:23.050,,765,365,289
00:34:23.087,,785,382,302
00:34:23.124,,814,405,331
00:34:23.161,,858,431,337
00:34:23.198,,861,412,326
00:34:23.235,,837,410,305
00:34:23.272,,815,410,261
00:34:23.309,,789,389,220
00:34:23.346,,771,393,190
00:34:23.383,,801,424,187
00:34:23.420,,804,446,170
00:34:23.457,,808,469,182
00:34:23.494,,824,472,192
00:34:23.531,,812,443,191
00:34:23.568,,876,432,183
00:34:23.605,,1003,449,150
00:34:23.643,,981,406,87
00:34:23.680,,954,384,46
00:34:23.717,,1070,416,13
00:34:23.754,,1075,442,5
00:34:23.791,,858,412,24
00:34:23.828,,747,407,0
00:34:23.865,,752,486,-15
00:34:23.902,,773,584,76
00:34:23.939,,779,638,-142
00:34:23.976,,808,685,-144
00:34:24.013,,851,547,-137
00:34:24.050,,873,536,-4
00:34:24.087,,851,514,-6
00:34:24.124,,811,606,48
00:34:24.161,,745,612,38
00:34:24.198,,681,620,49
00:34:24.235,,599,745,76
00:34:24.273,,516,825,71
00:34:24.310,,465,860,22
00:34:24.347,,545,955,-16
00:34:24.384,,1052,934,-57
00:34:24.421,,1121,761,83
00:34:24.458,,1083,540,203
00:34:24.495,,1058,106,219
00:34:24.532,,942,-765,277
00:34:24.569,,918,-466,88
00:34:24.606,,685,1037,51
00:34:24.643,,763,695,443
00:34:24.680,,827,-15,88
00:34:24.717,,850,88,211
00:34:24.754,,772,102,142
00:34:24.791,,789,272,58
00:34:24.828,,824,340,83
00:34:24.866,,831,356,61
00:34:24.903,,936,449,112
00:34:24.940,,918,389,110
00:34:24.977,,1042,376,115
00:34:25.014,,1063,485,160
00:34:25.051,,1073,467,-80
00:34:25.088,,1132,585,-62
00:34:25.125,,952,685,90
00:34:25.162,,795,611,133
00:34:25.199,,651,595,140
00:34:25.236,,666,677,109
00:34:25.273,,781,696,30
00:34:25.310,,898,548,-21
00:34:25.347,,985,471,-20
00:34:25.384,,1078,448,-15
00:34:25.422,,1060,411,-9
00:34:25.459,,953,436,-42
00:34:25.496,,881,516,-39
00:34:25.533,,858,497,-25
00:34:25.570,,818,454,-15
00:34:25.607,,892,401,-2
00:34:25.644,,1030,363,-77
00:34:25.681,,761,394,10
00:34:25.718,,626,480,239
00:34:25.755,,838,512,253
00:34:25.792,,1005,339,-16
00:34:25.829,,934,288,69
00:34:25.866,,835,419,238
00:34:25.903,,744,390,226
00:34:25.940,,737,423,172
00:34:25.977,,733,505,179
00:34:26.014,,720,464,188
00:34:26.052,,721,439,217
00:34:26.089,,747,455,229
00:34:26.126,,807,468,245
00:34:26.163,,909,487,234
00:34:26.200,,935,392,129
00:34:26.237,,1370,488,125
00:34:26.274,,1329,595,83
00:34:26.311,,867,438,73
00:34:26.348,,721,405,121
00:34:26.385,,742,452,46
00:34:26.422,,919,456,10
00:34:26.459,,1010,470,29
00:34:26.496,,933,407,-9
00:34:26.533,,875,429,-10
00:34:26.570,,892,470,18
00:34:26.607,,911,466,9
00:34:26.645,,870,453,-12
00:34:26.682,,799,458,8
00:34:26.719,,799,444,14
00:34:26.756,,838,429,-3
00:34:26.793,,833,430,24
00:34:26.830,,746,398,104
00:34:26.867,,804,338,148
00:34:26.904,,1056,441,127
00:34:26.941,,1153,407,107
00:34:26.978,,950,440,269
00:34:27.015,,894,514,449
00:34:27.052,,918,357,260
00:34:27.089,,970,269,148
00:34:27.126,,940,345,155
00:34:27.163,,836,392,135
00:34:27.200,,753,391,139
00:34:27.237,,725,398,124
00:34:27.275,,684,424,87
00:34:27.312,,665,433,88
00:34:27.349,,708,410,109
00:34:27.386,,710,390,142
00:34:27.423,,779,410,260
00:34:27.460,,959,385,228
00:34:27.497,,983,291,137
00:34:27.534,,1163,441,225
00:34:27.571,,1273,545,233
00:34:27.608,,987,425,147
00:34:27.645,,761,374,153
00:34:27.682,,795,460,137
00:34:27.719,,944,550,106
00:34:27.756,,1009,513,96
00:34:27.793,,961,444,97
00:34:27.830,,888,375,87
00:34:27.867,,880,361,60
00:34:27.905,,911,424,21
00:34:27.942,,888,463,3
00:34:27.979,,886,441,-20
00:34:28.016,,874,481,-31
00:34:28.053,,827,503,-52
00:34:28.090,,733,489,-25
00:34:28.127,,672,495,34
00:34:28.164,,692,491,69
00:34:28.201,,748,469,70
00:34:28.238,,1009,473,12
00:34:28.275,,1093,526,14
00:34:28.312,,756,455,113
00:34:28.349,,742,571,298
00:34:28.386,,893,625,283
00:34:28.423,,1000,461,152
00:34:28.460,,1037,406,279
00:34:28.498,,959,372,288
00:34:28.535,,862,377,234
00:34:28.572,,809,383,176
00:34:28.609,,799,400,140
00:34:28.646,,742,411,129
00:34:28.683,,681,410,142
00:34:28.720,,641,420,151
00:34:28.757,,689,409,143
00:34:28.794,,852,404,161
00:34:28.831,,918,355,133
00:34:28.868,,831,297,74
00:34:28.905,,962,369,81
00:34:28.942,,1314,525,69
00:34:28.979,,1243,443,-4
00:34:29.016,,969,397,57
00:34:29.053,,704,447,146
00:34:29.091,,732,427,131
00:34:29.128,,885,414,73
00:34:29.165,,921,493,64
00:34:29.202,,865,577,61
00:34:29.239,,847,412,93
00:34:29.276,,870,376,124
00:34:29.313,,889,373,107
00:34:29.350,,891,428,132
00:34:29.387,,870,461,128
00:34:29.424,,833,475,144
00:34:29.461,,757,447,151
00:34:29.498,,713,423,148
00:34:29.535,,721,419,167
00:34:29.572,,803,394,158
00:34:29.609,,1074,386,73
00:34:29.646,,1215,480,26
00:34:29.684,,964,504,108
00:34:29.721,,861,572,267
00:34:29.758,,874,598,219
00:34:29.795,,866,452,125
00:34:29.832,,933,347,170
00:34:29.869,,954,344,154
00:34:29.906,,855,357,114
00:34:29.943,,810,404,121
00:34:29.980,,864,397,157
00:34:30.017,,843,440,58
00:34:30.054,,796,523,6
00:34:30.091,,721,353,91
00:34:30.128,,651,21,129
00:34:30.165,,733,-199,280
00:34:30.202,,853,97,370
00:34:30.239,,852,419,93
00:34:30.276,,1008,589,-66
00:34:30.314,,1176,631,8
00:34:30.351,,1182,441,-107
00:34:30.388,,1076,315,-95
00:34:30.425,,895,476,74
00:34:30.462,,895,425,168
00:34:30.499,,866,393,123
00:34:30.536,,875,291,96
00:34:30.573,,899,333,27
00:34:30.610,,889,337,-24
00:34:30.647,,927,376,-42
00:34:30.684,,919,360,-53
00:34:30.721,,901,350,-57
00:34:30.758,,871,348,-33
00:34:30.795,,829,347,-25
00:34:30.832,,813,390,-5
00:34:30.870,,835,442,0
00:34:30.907,,851,458,7
00:34:30.944,,908,469,6
00:34:30.981,,928,456,-43
00:34:31.018,,1031,470,-84
00:34:31.055,,1009,534,-170
00:34:31.092,,884,645,-125
00:34:31.129,,773,714,31
00:34:31.166,,754,651,60
00:34:31.203,,803,542,25
00:34:31.240,,859,476,13
00:34:31.277,,883,473,83
00:34:31.314,,883,468,121
00:34:31.351,,908,424,130
00:34:31.388,,913,349,114
00:34:31.425,,892,286,102
00:34:31.463,,877,243,120
00:34:31.500,,911,257,130
00:34:31.537,,885,283,136
00:34:31.574,,866,304,161
00:34:31.611,,847,310,166
00:34:31.648,,832,303,168
00:34:31.685,,785,319,186
00:34:31.722,,771,352,203
00:34:31.759,,782,384,219
00:34:31.796,,890,406,244
00:34:31.833,,907,365,186
00:34:31.870,,871,317,110
00:34:31.907,,953,360,77
00:34:31.944,,961,418,30
00:34:31.981,,911,425,20
00:34:32.018,,919,450,34
00:34:32.056,,926,460,14
00:34:32.093,,917,409,23
00:34:32.130,,907,400,49
00:34:32.167,,904,404,55
00:34:32.204,,900,406,78
00:34:32.241,,912,405,95
00:34:32.278,,898,393,99
00:34:32.315,,893,377,97
00:34:32.352,,870,368,87
00:34:32.389,,878,371,68
00:34:32.426,,870,376,45
00:34:32.463,,856,380,34
00:34:32.500,,870,387,14
00:34:32.537,,883,399,10
00:34:32.574,,898,402,-1
00:34:32.612,,906,410,-9
00:34:32.649,,920,421,-9
00:34:32.686,,923,415,-14
00:34:32.723,,931,409,-14
00:34:32.760,,927,402,-17
00:34:32.797,,918,392,-16
00:34:32.834,,914,381,-18
00:34:32.871,,914,377,-24
00:34:32.908,,921,371,-23
00:34:32.945,,909,370,-23
00:34:32.982,,897,373,-22
00:34:33.019,,889,368,-19
00:34:33.056,,852,368,-12
00:34:33.093,,861,367,-11
00:34:33.130,,879,367,-18
00:34:33.168,,892,383,-19
00:34:33.205,,909,391,-17
00:34:33.242,,882,397,-15
00:34:33.279,,904,401,-11
00:34:33.316,,920,403,-15
00:34:33.353,,899,416,-3
00:34:33.390,,894,415,19
00:34:33.427,,893,423,33
00:34:33.464,,869,424,45
00:34:33.501,,870,424,51
00:34:33.538,,876,428,51
00:34:33.575,,885,428,51
00:34:33.612,,882,429,47
00:34:33.649,,887,428,41
00:34:33.686,,896,421,37
00:34:33.724,,899,416,39
00:34:33.761,,891,406,43
00:34:33.798,,891,403,48
00:34:33.835,,896,398,50
00:34:33.872,,891,394,53
00:34:33.909,,892,392,55
00:34:33.946,,880,392,60
00:34:33.983,,877,392,65
00:34:34.020,,880,391,71
00:34:34.057,,872,387,74
00:34:34.094,,880,391,76
00:34:34.131,,881,398,73
00:34:34.168,,888,406,74
00:34:34.205,,884,407,76
00:34:34.242,,876,404,80
00:34:34.279,,881,402,86
00:34:34.316,,870,399,90
00:34:34.354,,874,403,88
00:34:34.391,,880,408,86
00:34:34.428,,883,409,85
00:34:34.465,,876,409,92
00:34:34.502,,870,407,94
00:34:34.539,,874,407,90
00:34:34.576,,873,409,88
00:34:34.613,,878,411,85
00:34:34.650,,884,413,85
00:34:34.687,,882,410,86
00:34:34.724,,881,411,94
00:34:34.761,,881,409,94
00:34:34.798,,877,409,98
00:34:34.835,,879,412,98
00:34:34.872,,888,415,94
00:34:34.910,,886,416,95
00:34:34.947,,883,414,95
00:34:34.984,,883,408,93
00:34:35.021,,884,401,88
00:34:35.058,,880,399,82
00:34:35.095,,885,395,78
00:34:35.132,,882,390,74
00:34:35.169,,885,391,73
00:34:35.206,,885,393,79
00:34:35.243,,887,393,83
00:34:35.280,,885,400,90
00:34:35.317,,885,399,91
00:34:35.354,,885,404,92
00:34:35.391,,888,404,93
00:34:35.428,,889,405,86
00:34:35.465,,887,405,85
00:34:35.502,,884,399,81
00:34:35.540,,884,396,79
00:34:35.577,,880,393,78
00:34:35.614,,884,395,78
00:34:35.651,,877,391,72
00:34:35.688,,871,393,67
00:34:35.725,,870,401,64
00:34:35.762,,877,401,56
00:34:35.799,,887,407,61
00:34:35.836,,890,433,75
00:34:35.873,,891,427,78
00:34:35.910,,887,429,72
00:34:35.947,,891,430,63
00:34:35.984,,899,421,55
00:34:36.021,,896,413,53
00:34:36.058,,897,405,55
00:34:36.095,,896,401,63
00:34:36.133,,896,395,68
00:34:36.170,,893,388,74
00:34:36.207,,895,383,75
00:34:36.244,,894,381,78
00:34:36.281,,889,381,78
00:34:36.318,,887,379,84
00:34:36.355,,886,382,87
00:34:36.392,,894,389,86
00:34:36.429,,894,394,89
00:34:36.466,,894,398,88
00:34:36.503,,901,392,90
00:34:36.540,,891,386,92
00:34:36.577,,868,366,108
00:34:36.614,,864,364,128
00:34:36.651,,912,394,168
00:34:36.688,,912,392,171
00:34:36.726,,834,403,178
00:34:36.763,,793,408,164
00:34:36.800,,781,405,145
00:34:36.837,,769,416,134
00:34:36.874,,783,429,131
00:34:36.911,,805,449,139
00:34:36.948,,877,437,123
00:34:36.985,,1016,436,95
00:34:37.022,,903,404,43
00:34:37.059,,870,385,21
00:34:37.096,,990,423,-4
00:34:37.133,,1018,394,-50
00:34:37.170,,991,397,-62
00:34:37.207,,975,383,-59
00:34:37.244,,945,342,-50
00:34:37.281,,951,312,-35
00:34:37.319,,938,305,-27
00:34:37.356,,906,300,-18
00:34:37.393,,891,301,-14
00:34:37.430,,871,313,-15
00:34:37.467,,870,329,-19
00:34:37.504,,870,347,-23
00:34:37.541,,904,357,-31
00:34:37.578,,919,372,-46
00:34:37.615,,937,387,-51
00:34:37.652,,931,396,-61
00:34:37.689,,911,403,-52
00:34:37.726,,905,401,-45
00:34:37.763,,911,394,-53
00:34:37.800,,984,391,-91
00:34:37.837,,1113,391,-131
00:34:37.874,,881,392,-70
00:34:37.912,,767,420,60
00:34:37.949,,917,374,104
00:34:37.986,,974,149,59
00:34:38.023,,939,116,71
00:34:38.060,,941,210,92
00:34:38.097,,962,221,95
00:34:38.134,,947,160,111
00:34:38.171,,940,168,124
00:34:38.208,,930,183,138
00:34:38.245,,930,182,140
00:34:38.282,,938,186,137
00:34:38.319,,973,197,120
00:34:38.356,,996,209,109
00:34:38.393,,985,205,110
00:34:38.430,,955,181,118
00:34:38.467,,931,169,112
00:34:38.504,,931,157,99
00:34:38.542,,942,154,95
00:34:38.579,,967,158,99
00:34:38.616,,972,149,103
00:34:38.653,,975,143,111
00:34:38.690,,965,136,120
00:34:38.727,,956,137,126
00:34:38.764,,955,144,132
00:34:38.801,,948,154,140
00:34:38.838,,949,175,137
00:34:38.875,,953,198,136
00:34:38.912,,954,209,133
00:34:38.949,,933,215,132
00:34:38.986,,927,225,129
00:34:39.023,,929,240,122
00:34:39.060,,949,258,110
00:34:39.097,,958,262,108
00:34:39.135,,974,268,110
00:34:39.172,,964,305,102
00:34:39.209,,952,374,143
00:34:39.246,,927,350,173
00:34:39.283,,931,209,266
00:34:39.320,,921,208,299
00:34:39.357,,906,272,252
00:34:39.394,,897,325,223
00:34:39.431,,897,293,186
00:34:39.468,,902,267,173
00:34:39.505,,882,272,167
00:34:39.542,,889,263,164
00:34:39.579,,914,273,183
00:34:39.616,,919,239,173
00:34:39.653,,908,228,163
00:34:39.690,,896,231,166
00:34:39.727,,893,236,187
00:34:39.765,,909,261,195
00:34:39.802,,909,305,204
00:34:39.839,,903,338,225
00:34:39.876,,861,354,223
00:34:39.913,,826,385,217
00:34:39.950,,808,394,224
00:34:39.987,,781,410,239
00:34:40.024,,785,424,257
00:34:40.061,,786,429,242
00:34:40.098,,796,431,232
00:34:40.135,,788,427,207
00:34:40.172,,807,412,186
00:34:40.209,,951,441,159
00:34:40.246,,872,381,96
00:34:40.283,,877,340,43
00:34:40.320,,1037,433,33
00:34:40.357,,1028,450,-13
00:34:40.394,,982,544,-25
00:34:40.432,,925,555,0
00:34:40.469,,910,490,24
00:34:40.506,,921,425,47
00:34:40.543,,947,437,74
00:34:40.580,,928,465,83
00:34:40.617,,870,373,116
00:34:40.654,,868,423,184
00:34:40.691,,940,458,215
00:34:40.728,,938,340,243
00:34:40.765,,912,302,284
00:34:40.802,,907,212,321
00:34:40.839,,924,88,350
00:34:40.876,,979,59,343
00:34:40.913,,1082,53,306
00:34:40.950,,941,91,266
00:34:40.987,,827,188,262
00:34:41.024,,801,296,281
00:34:41.062,,821,353,172
00:34:41.099,,840,460,110
00:34:41.136,,851,574,138
00:34:41.173,,800,465,-8
00:34:41.210,,777,452,-2
00:34:41.247,,813,403,-2
00:34:41.284,,826,343,0
00:34:41.321,,828,334,59
00:34:41.358,,842,365,107
00:34:41.395,,838,371,237
00:34:41.432,,837,502,418
00:34:41.469,,836,348,527
00:34:41.506,,893,354,409
00:34:41.543,,1070,436,263
00:34:41.580,,1092,498,132
00:34:41.617,,1205,526,32
00:34:41.654,,999,510,-3
00:34:41.692,,723,460,20
00:34:41.729,,712,446,32
00:34:41.766,,884,463,-39
00:34:41.803,,959,500,-106
00:34:41.840,,899,488,-111
00:34:41.877,,871,442,-12
00:34:41.914,,907,473,-11
00:34:41.951,,946,490,-3
00:34:41.988,,965,498,62
00:34:42.025,,960,389,152
00:34:42.062,,901,427,273
00:34:42.099,,825,498,237
00:34:42.136,,772,494,311
00:34:42.173,,685,506,367
00:34:42.210,,617,463,421
00:34:42.247,,653,489,447
00:34:42.284,,714,492,462
00:34:42.321,,612,414,447
00:34:42.359,,653,334,483
00:34:42.396,,937,-15,579
00:34:42.433,,1010,3,539
00:34:42.470,,902,69,544
00:34:42.507,,902,358,641
00:34:42.544,,845,418,568
00:34:42.581,,769,402,433
00:34:42.618,,718,354,323
00:34:42.655,,741,341,121
00:34:42.692,,803,426,-65
00:34:42.729,,815,556,-173
00:34:42.766,,825,521,-168
00:34:42.803,,801,367,-109
00:34:42.840,,741,299,32
00:34:42.877,,802,298,27
00:34:42.914,,1000,467,6
00:34:42.952,,1183,531,-26
00:34:42.989,,1227,569,45
00:34:43.026,,1100,542,116
00:34:43.063,,731,515,250
00:34:43.100,,692,513,336
00:34:43.137,,896,341,345
00:34:43.174,,995,511,188
00:34:43.211,,941,459,120
00:34:43.248,,917,446,31
00:34:43.285,,955,459,-26
00:34:43.322,,979,424,-36
00:34:43.359,,965,390,-15
00:34:43.396,,957,376,-9
00:34:43.433,,1003,390,-11
00:34:43.470,,1014,347,-82
00:34:43.507,,987,351,-97
00:34:43.544,,994,355,-101
00:34:43.582,,1050,377,-165
00:34:43.619,,898,419,-97
00:34:43.656,,641,439,171
00:34:43.693,,623,454,371
00:34:43.730,,746,444,326
00:34:43.767,,800,307,331
00:34:43.804,,836,201,472
00:34:43.841,,903,215,509
00:34:43.878,,861,217,355
00:34:43.915,,862,270,270
00:34:43.952,,902,402,227
00:34:43.989,,858,480,199
00:34:44.026,,811,459,186
00:34:44.063,,757,449,166
00:34:44.100,,768,446,153
00:34:44.137,,835,462,163
00:34:44.175,,896,457,194
00:34:44.212,,848,397,168
00:34:44.249,,777,369,142
00:34:44.286,,998,431,171
00:34:44.323,,1383,566,170
00:34:44.360,,1300,508,136
00:34:44.397,,916,435,144
00:34:44.434,,725,461,154
00:34:44.471,,773,446,47
00:34:44.508,,930,494,-155
00:34:44.545,,890,1003,-367
00:34:44.582,,802,605,-170
00:34:44.619,,722,462,141
00:34:44.656,,792,722,259
00:34:44.693,,920,782,169
00:34:44.730,,947,327,206
00:34:44.768,,858,214,283
00:34:44.805,,757,200,241
00:34:44.842,,705,173,226
00:34:44.879,,572,257,297
00:34:44.916,,296,355,530
00:34:44.953,,567,424,546
00:34:44.990,,1115,319,366
00:34:45.027,,1578,302,494
00:34:45.064,,1400,159,431
00:34:45.101,,1139,59,219
00:34:45.138,,1013,224,65
00:34:45.175,,1022,388,-9
00:34:45.212,,953,493,-25
00:34:45.249,,810,507,-4
00:34:45.286,,697,411,-8
00:34:45.323,,637,369,0
00:34:45.361,,619,340,43
00:34:45.398,,605,333,64
00:34:45.435,,628,411,122
00:34:45.472,,688,447,177
00:34:45.509,,805,476,217
00:34:45.546,,935,507,273
00:34:45.583,,975,440,283
00:34:45.620,,949,407,281
00:34:45.657,,1089,526,293
00:34:45.694,,1229,667,207
00:34:45.731,,1108,639,111
00:34:45.768,,680,538,133
00:34:45.805,,646,557,177
00:34:45.842,,989,645,98
00:34:45.879,,1155,634,-4
00:34:45.916,,1016,487,38
00:34:45.954,,917,461,77
00:34:45.991,,898,466,88
00:34:46.028,,925,442,87
00:34:46.065,,951,445,65
00:34:46.102,,898,425,65
00:34:46.139,,812,392,43
00:34:46.176,,765,391,48
00:34:46.213,,764,363,52
00:34:46.250,,743,328,63
00:34:46.287,,843,364,93
00:34:46.324,,1021,411,108
00:34:46.361,,1043,371,116
00:34:46.398,,961,486,306
00:34:46.435,,1056,556,453
00:34:46.473,,1100,451,388
00:34:46.510,,1021,293,341
00:34:46.547,,929,313,267
00:34:46.584,,822,391,132
00:34:46.621,,757,422,45
00:34:46.658,,756,419,2
00:34:46.695,,720,374,2
00:34:46.732,,679,397,66
00:34:46.769,,643,381,75
00:34:46.806,,687,421,142
00:34:46.843,,770,461,243
00:34:46.880,,886,469,271
00:34:46.917,,1030,385,197
00:34:46.954,,1197,513,216
00:34:46.991,,1318,569,222
00:34:47.028,,915,463,143
00:34:47.066,,737,440,177
00:34:47.103,,710,470,157
00:34:47.140,,826,478,66
00:34:47.177,,1025,529,87
00:34:47.214,,1043,455,30
00:34:47.251,,916,389,47
00:34:47.288,,872,409,63
00:34:47.325,,879,423,20
00:34:47.362,,919,382,6
00:34:47.399,,933,381,18
00:34:47.436,,949,406,38
00:34:47.473,,974,387,40
00:34:47.510,,931,339,52
00:34:47.547,,1028,341,16
00:34:47.584,,986,406,63
00:34:47.622,,810,434,223
00:34:47.659,,670,378,269
00:34:47.696,,654,345,223
00:34:47.733,,725,396,240
00:34:47.770,,881,460,222
00:34:47.807,,945,464,237
00:34:47.844,,836,436,256
00:34:47.881,,775,438,230
00:34:47.918,,817,422,226
00:34:47.955,,820,462,198
00:34:47.992,,803,470,197
00:34:48.029,,741,461,227
00:34:48.066,,748,461,275
00:34:48.103,,838,410,235
00:34:48.140,,839,355,78
00:34:48.177,,1080,408,-13
00:34:48.215,,1002,477,-29
00:34:48.252,,1132,466,-98
00:34:48.289,,1295,552,-101
00:34:48.326,,1186,537,-100
00:34:48.363,,843,648,56
00:34:48.400,,619,612,260
00:34:48.437,,742,498,94
00:34:48.474,,872,421,114
00:34:48.511,,944,289,156
00:34:48.548,,966,318,32
00:34:48.585,,852,359,37
00:34:48.622,,727,449,0
00:34:48.659,,597,548,23
00:34:48.696,,570,574,21
00:34:48.733,,583,615,27
00:34:48.770,,676,646,2
00:34:48.807,,921,750,-51
00:34:48.845,,754,783,13
00:34:48.882,,702,817,241
00:34:48.919,,687,784,340
00:34:48.956,,640,559,372
00:34:48.993,,701,472,411
00:34:49.030,,743,477,403
00:34:49.067,,731,481,378
00:34:49.104,,692,427,349
00:34:49.141,,714,402,317
00:34:49.178,,747,419,290
00:34:49.215,,768,431,286
00:34:49.252,,772,446,284
00:34:49.289,,791,472,286
00:34:49.326,,813,475,263
00:34:49.363,,819,484,258
00:34:49.400,,823,497,255
00:34:49.437,,834,510,236
00:34:49.475,,829,529,228
00:34:49.512,,826,497,196
00:34:49.549,,809,564,134
00:34:49.586,,906,512,160
00:34:49.623,,1002,500,161
00:34:49.660,,1063,514,68
00:34:49.697,,1233,505,23
00:34:49.734,,1078,460,29
00:34:49.771,,804,423,46
00:34:49.808,,835,444,40
00:34:49.845,,994,465,8
00:34:49.882,,1009,431,-26
00:34:49.919,,920,383,-10
00:34:49.956,,885,476,-1
00:34:49.993,,868,503,28
00:34:50.030,,808,462,69
00:34:50.067,,760,473,95
00:34:50.105,,723,519,136
00:34:50.142,,698,538,187
00:34:50.179,,662,561,213
00:34:50.216,,598,560,246
00:34:50.253,,572,551,260
00:34:50.290,,589,563,244
00:34:50.327,,618,572,209
00:34:50.364,,835,544,134
00:34:50.401,,1101,576,113
00:34:50.438,,1051,563,214
00:34:50.475,,983,517,283
00:34:50.512,,989,405,132
00:34:50.549,,1027,343,32
00:34:50.586,,954,349,85
00:34:50.623,,848,379,114
00:34:50.660,,751,412,104
00:34:50.698,,718,388,101
00:34:50.735,,691,389,106
00:34:50.772,,693,411,157
00:34:50.809,,705,466,195
00:34:50.846,,711,523,257
00:34:50.883,,788,560,323
00:34:50.920,,817,480,270
00:34:50.957,,895,429,162
00:34:50.994,,1255,594,133
00:34:51.031,,1004,562,-1
00:34:51.068,,1102,606,-7
00:34:51.105,,1052,663,-36
00:34:51.142,,891,526,-25
00:34:51.179,,964,512,2
00:34:51.216,,1040,444,-36
00:34:51.253,,991,338,-32
00:34:51.290,,934,324,-10
00:34:51.328,,920,402,-14
00:34:51.365,,930,424,-46
00:34:51.402,,914,422,-47
00:34:51.439,,876,397,-27
00:34:51.476,,834,344,-40
00:34:51.513,,832,339,-26
00:34:51.550,,783,353,34
00:34:51.587,,820,335,49
00:34:51.624,,1042,330,6
00:34:51.661,,1071,383,64
00:34:51.698,,829,410,262
00:34:51.735,,767,467,430
00:34:51.772,,812,444,445
00:34:51.809,,923,279,350
00:34:51.846,,1032,318,456
00:34:51.883,,938,339,415
00:34:51.920,,848,377,322
00:34:51.958,,818,445,247
00:34:51.995,,776,455,183
00:34:52.032,,727,453,157
00:34:52.069,,693,525,170
00:34:52.106,,721,469,193
00:34:52.143,,758,341,298
00:34:52.180,,860,350,273
00:34:52.217,,853,329,261
00:34:52.254,,832,321,264
00:34:52.291,,906,365,241
00:34:52.328,,1232,536,273
00:34:52.365,,1198,531,170
00:34:52.402,,800,371,150
00:34:52.439,,765,427,238
00:34:52.476,,928,520,135
00:34:52.513,,1048,441,101
00:34:52.551,,1019,421,116
00:34:52.588,,912,432,123
00:34:52.625,,858,424,145
00:34:52.662,,887,414,123
00:34:52.699,,886,412,86
00:34:52.736,,867,381,67
00:34:52.773,,861,375,57
00:34:52.810,,862,394,86
00:34:52.847,,833,378,102
00:34:52.884,,775,372,158
00:34:52.921,,859,356,133
00:34:52.958,,1026,438,114
00:34:52.995,,980,448,188
00:34:53.032,,873,447,250
00:34:53.069,,786,415,276
00:34:53.106,,738,371,248
00:34:53.143,,831,414,224
00:34:53.181,,950,451,223
00:34:53.218,,885,444,205
00:34:53.255,,808,423,218
00:34:53.292,,811,389,197
00:34:53.329,,838,382,175
00:34:53.366,,825,394,188
00:34:53.403,,779,418,212
00:34:53.440,,740,421,244
00:34:53.477,,735,410,281
00:34:53.514,,755,382,307
00:34:53.551,,857,356,266
00:34:53.588,,941,340,143
00:34:53.625,,1046,407,124
00:34:53.662,,1195,511,134
00:34:53.699,,1139,497,70
00:34:53.736,,918,459,94
00:34:53.774,,728,464,148
00:34:53.811,,783,436,117
00:34:53.848,,950,434,81
00:34:53.885,,1011,431,30
00:34:53.922,,937,406,24
00:34:53.959,,860,398,41
00:34:53.996,,862,449,20
00:34:54.033,,868,479,4
00:34:54.070,,852,494,-16
00:34:54.107,,814,596,61
00:34:54.144,,790,637,115
00:34:54.181,,782,608,131
00:34:54.218,,764,584,145
00:34:54.255,,703,569,161
00:34:54.292,,673,551,181
00:34:54.329,,767,550,141
00:34:54.367,,888,533,88
00:34:54.404,,873,501,76
00:34:54.441,,812,522,137
00:34:54.478,,778,523,191
00:34:54.515,,750,433,177
00:34:54.552,,810,362,141
00:34:54.589,,915,416,180
00:34:54.626,,944,419,206
00:34:54.663,,849,353,190
00:34:54.700,,789,341,186
00:34:54.737,,807,353,181
00:34:54.774,,790,374,192
00:34:54.811,,729,399,218
00:34:54.848,,725,415,255
00:34:54.885,,763,413,297
00:34:54.922,,817,408,320
00:34:54.960,,850,382,312
00:34:54.997,,859,351,259
00:34:55.034,,857,355,170
00:34:55.071,,1079,384,68
00:34:55.108,,1423,642,76
00:34:55.145,,1007,506,33
00:34:55.182,,708,439,169
00:34:55.219,,731,496,133
00:34:55.256,,915,494,34
00:34:55.293,,1054,455,30
00:34:55.330,,1025,498,5
00:34:55.367,,928,500,-20
00:34:55.404,,905,483,6
00:34:55.441,,944,479,8
00:34:55.478,,958,427,30
00:34:55.515,,894,438,22
00:34:55.552,,832,455,-17
00:34:55.590,,750,455,-14
00:34:55.627,,665,445,-14
00:34:55.664,,688,503,16
00:34:55.701,,717,545,105
00:34:55.738,,782,541,114
00:34:55.775,,854,549,142
00:34:55.812,,945,596,231
00:34:55.849,,964,586,262
00:34:55.886,,858,498,264
00:34:55.923,,810,465,221
00:34:55.960,,808,469,180
00:34:55.997,,895,482,181
00:34:56.034,,939,481,165
00:34:56.071,,823,452,162
00:34:56.108,,755,429,170
00:34:56.145,,763,404,156
00:34:56.183,,766,392,153
00:34:56.220,,753,419,187
00:34:56.257,,795,424,218
00:34:56.294,,821,490,285
00:34:56.331,,743,484,350
00:34:56.368,,744,428,391
00:34:56.405,,820,322,298
00:34:56.442,,950,391,242
00:34:56.479,,1008,432,156
00:34:56.516,,1139,449,15
00:34:56.553,,993,493,-11
00:34:56.590,,778,503,-10
00:34:56.627,,796,607,35
00:34:56.664,,913,561,-58
00:34:56.701,,954,440,-90
00:34:56.738,,923,443,-32
00:34:56.775,,925,473,-61
00:34:56.813,,901,594,-54
00:34:56.850,,908,592,-21
00:34:56.887,,850,629,17
00:34:56.924,,805,549,154
00:34:56.961,,730,567,164
00:34:56.998,,671,608,193
00:34:57.035,,595,572,197
00:34:57.072,,572,594,230
00:34:57.109,,640,609,221
00:34:57.146,,830,639,189
00:34:57.183,,910,618,166
00:34:57.220,,743,578,182
00:34:57.257,,704,647,293
00:34:57.294,,786,599,310
00:34:57.331,,863,502,224
00:34:57.368,,904,473,195
00:34:57.405,,893,524,140
00:34:57.443,,797,526,100
00:34:57.480,,714,498,79
00:34:57.517,,708,451,71
00:34:57.554,,711,415,39
00:34:57.591,,683,444,58
00:34:57.628,,667,473,109
00:34:57.665,,712,436,142
00:34:57.702,,835,451,316
00:34:57.739,,991,329,545
00:34:57.776,,976,67,363
00:34:57.813,,820,159,480
00:34:57.850,,752,383,388
00:34:57.887,,989,442,225
00:34:57.924,,1251,529,92
00:34:57.961,,1264,472,4
00:34:57.998,,1041,480,0
00:34:58.035,,732,618,23
00:34:58.073,,767,467,35
00:34:58.110,,960,452,-2
00:34:58.147,,1032,407,-11
00:34:58.184,,910,366,29
00:34:58.221,,869,366,60
00:34:58.258,,873,343,177
00:34:58.295,,855,174,103
00:34:58.332,,741,420,188
00:34:58.369,,698,542,216
00:34:58.406,,749,533,113
00:34:58.443,,801,544,134
00:34:58.480,,851,546,168
00:34:58.517,,892,494,137
00:34:58.554,,1110,518,104
00:34:58.591,,1224,529,77
00:34:58.628,,1096,547,266
00:34:58.665,,935,395,310
00:34:58.702,,826,219,281
00:34:58.740,,730,351,325
00:34:58.777,,813,413,280
00:34:58.814,,827,389,189
00:34:58.851,,729,317,156
00:34:58.888,,691,309,135
00:34:58.925,,732,307,91
00:34:58.962,,776,342,64
00:34:58.999,,793,377,45
00:34:59.036,,803,414,90
00:34:59.073,,768,464,172
00:34:59.110,,745,480,289
00:34:59.147,,787,481,357
00:34:59.184,,897,401,296
00:34:59.221,,972,373,246
00:34:59.258,,1145,485,258
00:34:59.295,,1330,611,176
00:34:59.332,,1151,550,85
00:34:59.369,,834,451,158
00:34:59.407,,666,444,178
00:34:59.444,,766,434,103
00:34:59.481,,1156,437,-50
00:34:59.518,,1194,400,-210
00:34:59.555,,917,402,-184
00:34:59.592,,884,336,-224
00:34:59.629,,872,265,-333
00:34:59.666,,805,368,-330
00:34:59.703,,720,412,-348
00:34:59.740,,660,466,-334
00:34:59.777,,684,466,-322
00:34:59.814,,766,646,147
00:34:59.851,,727,337,174
00:34:59.888,,692,996,-155
00:34:59.925,,829,978,-341
00:34:59.963,,704,1084,-164
00:35:00.000,,667,884,-45
00:35:00.037,,642,522,-82
00:35:00.074,,742,219,-204
00:35:00.111,,814,150,-324
00:35:00.148,,747,338,-181
00:35:00.185,,715,755,-91
00:35:00.222,,648,925,-182
00:35:00.259,,641,824,-157
00:35:00.296,,607,741,-246
00:35:00.333,,492,525,-238
00:35:00.370,,571,459,-146
00:35:00.407,,639,550,132
00:35:00.444,,785,690,321
00:35:00.481,,751,806,236
00:35:00.518,,721,681,-95
00:35:00.555,,596,712,-76
00:35:00.593,,635,660,-142
00:35:00.630,,638,718,-388
00:35:00.667,,605,809,-317
00:35:00.704,,720,926,4
00:35:00.741,,788,912,-48
00:35:00.778,,597,697,-223
00:35:00.815,,430,616,-136
00:35:00.852,,487,599,-103
00:35:00.889,,645,645,-143
00:35:00.926,,725,791,-105
00:35:00.963,,711,812,7
00:35:01.000,,685,771,57
00:35:01.037,,624,802,-12
00:35:01.074,,561,844,-17
00:35:01.111,,536,822,22
00:35:01.149,,536,842,58
00:35:01.186,,544,836,44
00:35:01.223,,530,811,39
00:35:01.260,,495,789,37
00:35:01.297,,463,765,46
00:35:01.334,,462,754,78
00:35:01.371,,570,702,86
00:35:01.408,,740,664,49
00:35:01.445,,757,671,19
00:35:01.482,,672,648,86
00:35:01.519,,725,618,221
00:35:01.556,,812,541,221
00:35:01.593,,915,410,95
00:35:01.630,,1017,354,54
00:35:01.667,,1040,396,92
00:35:01.704,,937,427,131
00:35:01.741,,827,424,149
00:35:01.779,,799,404,119
00:35:01.816,,805,425,113
00:35:01.853,,785,435,164
00:35:01.890,,753,447,210
00:35:01.927,,770,454,263
00:35:01.964,,798,460,301
00:35:02.001,,825,436,311
00:35:02.038,,844,381,283
00:35:02.075,,876,326,220
00:35:02.112,,958,349,171
00:35:02.149,,1161,444,171
00:35:02.186,,1183,459,122
00:35:02.223,,1074,385,68
00:35:02.260,,955,374,101
00:35:02.297,,806,431,105
00:35:02.334,,768,419,58
00:35:02.371,,855,449,33
00:35:02.409,,968,472,35
00:35:02.446,,935,349,14
00:35:02.483,,849,362,61
00:35:02.520,,836,446,86
00:35:02.557,,864,462,50
00:35:02.594,,849,411,46
00:35:02.631,,833,386,78
00:35:02.668,,838,409,96
00:35:02.705,,869,424,119
00:35:02.742,,950,402,116
00:35:02.779,,1075,410,65
00:35:02.816,,926,433,117
00:35:02.853,,951,508,258
00:35:02.890,,876,473,172
00:35:02.927,,775,278,143
00:35:02.964,,859,405,164
00:35:03.001,,834,452,178
00:35:03.039,,806,426,237
00:35:03.076,,820,394,202
00:35:03.113,,849,384,182
00:35:03.150,,845,398,194
00:35:03.187,,814,414,212
00:35:03.224,,779,403,228
00:35:03.261,,773,385,241
00:35:03.298,,786,372,240
00:35:03.335,,767,345,200
00:35:03.372,,1021,403,168
00:35:03.409,,1144,500,177
00:35:03.446,,927,372,63
00:35:03.483,,971,382,79
00:35:03.520,,892,475,86
00:35:03.557,,902,422,50
00:35:03.594,,1000,401,30
00:35:03.632,,1016,372,8
00:35:03.669,,967,335,-8
00:35:03.706,,925,339,-20
00:35:03.743,,886,346,-18
00:35:03.780,,873,333,-24
00:35:03.817,,857,334,-5
00:35:03.854,,855,349,18
00:35:03.891,,882,375,31
00:35:03.928,,869,384,60
00:35:03.965,,924,371,51
00:35:04.002,,980,414,53
00:35:04.039,,911,454,130
00:35:04.076,,889,490,190
00:35:04.113,,918,469,224
00:35:04.150,,902,391,219
00:35:04.187,,847,316,192
00:35:04.224,,832,343,178
00:35:04.261,,836,384,173
00:35:04.299,,859,387,187
00:35:04.336,,879,366,200
00:35:04.373,,847,384,202
00:35:04.410,,803,371,223
00:35:04.447,,807,361,214
00:35:04.484,,812,384,211
00:35:04.521,,793,368,215
00:35:04.558,,776,385,223
00:35:04.595,,790,381,229
00:35:04.632,,816,366,204
00:35:04.669,,909,384,173
00:35:04.706,,1010,433,159
00:35:04.743,,897,402,121
00:35:04.780,,921,396,89
00:35:04.817,,1056,466,25
00:35:04.854,,1034,481,-10
00:35:04.891,,927,454,10
00:35:04.929,,921,446,14
00:35:04.966,,872,406,14
00:35:05.003,,849,380,32
00:35:05.040,,884,413,38
00:35:05.077,,898,428,30
00:35:05.114,,891,425,24
00:35:05.151,,886,436,29
00:35:05.188,,854,440,31
00:35:05.225,,827,461,53
00:35:05.262,,803,475,98
00:35:05.299,,771,451,138
00:35:05.336,,887,391,99
00:35:05.373,,1183,443,0
00:35:05.410,,993,501,41
00:35:05.447,,707,458,165
00:35:05.484,,745,489,224
00:35:05.521,,864,419,123
00:35:05.558,,903,347,97
00:35:05.596,,920,408,177
00:35:05.633,,855,437,161
00:35:05.670,,799,386,145
00:35:05.707,,801,354,139
00:35:05.744,,795,366,127
