Sensors' Acquisition [Hz]: Acc@26.0 
hh:mm:ss.ms, Annotation , AccX [mg], AccY, AccZ
01:04:05.350,,899,385,58
01:04:05.387,,897,382,71
01:04:05.411,>Walk,,,
01:04:05.424,,834,354,30
01:04:05.461,,747,338,-54
01:04:05.498,,754,387,-50
01:04:05.535,,786,464,29
01:04:05.573,,807,428,32
01:04:05.610,,905,296,85
01:04:05.647,,855,173,138
01:04:05.684,,858,226,147
01:04:05.721,,878,308,139
01:04:05.758,,870,370,141
01:04:05.795,,844,425,168
01:04:05.832,,934,457,195
01:04:05.869,,1114,458,156
01:04:05.906,,1128,449,30
01:04:05.943,,1113,388,-69
01:04:05.980,,929,310,-25
01:04:06.017,,773,326,24
01:04:06.054,,759,483,-14
01:04:06.091,,859,408,-70
01:04:06.128,,916,342,-102
01:04:06.165,,889,332,-105
01:04:06.202,,871,369,-97
01:04:06.239,,841,380,-104
01:04:06.276,,830,384,-108
01:04:06.313,,838,403,-106
01:04:06.350,,852,406,-112
01:04:06.387,,868,402,-119
01:04:06.424,,884,412,-96
01:04:06.461,,914,422,-84
01:04:06.498,,929,416,-89
01:04:06.535,,939,445,-70
01:04:06.572,,950,561,-72
01:04:06.609,,961,653,-95
01:04:06.646,,992,1037,-182
01:04:06.683,,1146,718,-165
01:04:06.721,,1033,497,-161
01:04:06.758,,818,574,-73
01:04:06.795,,658,602,57
01:04:06.832,,541,388,14
01:04:06.869,,515,392,-125
01:04:06.906,,655,1086,91
01:04:06.943,,630,449,239
01:04:06.980,,536,738,-143
01:04:07.017,,566,387,-239
01:04:07.054,,685,359,-31
01:04:07.091,,875,522,425
01:04:07.128,,745,560,215
01:04:07.165,,698,846,-97
01:04:07.202,,666,831,-108
01:04:07.239,,578,642,14
01:04:07.276,,496,586,-79
01:04:07.313,,563,667,-156
01:04:07.350,,731,1078,-170
01:04:07.387,,724,1095,-195
01:04:07.424,,695,720,27
01:04:07.461,,742,416,304
01:04:07.498,,645,391,149
01:04:07.535,,575,690,-185
01:04:07.572,,566,954,-35
01:04:07.609,,451,698,-182
01:04:07.646,,578,723,-207
01:04:07.683,,587,894,-239
01:04:07.720,,558,645,-299
01:04:07.757,,632,541,-111
01:04:07.794,,598,587,-207
01:04:07.832,,598,818,-219
01:04:07.869,,580,1007,-10
01:04:07.906,,506,833,-89
01:04:07.943,,489,727,-174
01:04:07.980,,535,760,-200
01:04:08.017,,581,891,-180
01:04:08.054,,640,773,-148
01:04:08.091,,689,711,-56
01:04:08.128,,781,616,-4
01:04:08.165,,978,434,-33
01:04:08.202,,928,553,-32
01:04:08.239,,872,676,25
01:04:08.276,,871,624,44
01:04:08.313,,870,552,-28
01:04:08.350,,863,504,-27
01:04:08.387,,893,500,-3
01:04:08.424,,924,428,1
01:04:08.461,,888,352,-3
01:04:08.498,,793,341,46
01:04:08.535,,719,347,80
01:04:08.572,,719,345,85
01:04:08.609,,744,366,97
01:04:08.646,,734,415,140
01:04:08.683,,711,416,169
01:04:08.720,,761,494,204
01:04:08.757,,863,695,330
01:04:08.794,,959,838,401
01:04:08.831,,1025,628,253
01:04:08.868,,959,432,74
01:04:08.906,,1069,360,-71
01:04:08.943,,1031,442,-97
01:04:08.980,,854,426,-16
01:04:09.017,,784,389,19
01:04:09.054,,830,380,-21
01:04:09.091,,878,363,-61
01:04:09.128,,830,351,-89
01:04:09.165,,734,371,-70
01:04:09.202,,705,441,-33
01:04:09.239,,762,521,-15
01:04:09.276,,834,513,-13
01:04:09.313,,901,512,-19
01:04:09.350,,930,527,-25
01:04:09.387,,932,543,0
01:04:09.424,,908,550,46
01:04:09.461,,889,530,74
01:04:09.498,,1069,476,-24
01:04:09.535,,1107,487,-54
01:04:09.572,,986,542,93
01:04:09.609,,965,561,153
01:04:09.646,,841,442,66
01:04:09.683,,735,314,53
01:04:09.720,,770,351,75
01:04:09.757,,834,363,28
01:04:09.794,,868,375,36
01:04:09.831,,841,374,69
01:04:09.868,,781,325,59
01:04:09.905,,785,312,63
01:04:09.942,,789,314,64
01:04:09.979,,775,322,86
01:04:10.016,,790,337,109
01:04:10.054,,788,356,122
01:04:10.091,,776,378,156
01:04:10.128,,833,404,179
01:04:10.165,,882,400,171
01:04:10.202,,908,382,126
01:04:10.239,,1177,415,56
01:04:10.276,,1144,471,-2
01:04:10.313,,1105,441,-57
01:04:10.350,,939,484,-8
01:04:10.387,,744,492,18
01:04:10.424,,701,463,7
01:04:10.461,,823,436,14
01:04:10.498,,972,418,-13
01:04:10.535,,959,396,-55
01:04:10.572,,909,441,-29
01:04:10.609,,896,460,-30
01:04:10.646,,897,444,-49
01:04:10.683,,912,426,-47
01:04:10.720,,919,471,-51
01:04:10.757,,905,470,-44
01:04:10.794,,892,453,-40
01:04:10.831,,878,463,-22
01:04:10.868,,855,467,22
01:04:10.905,,896,427,31
01:04:10.942,,1029,405,-7
01:04:10.979,,978,410,-6
01:04:11.016,,839,436,85
01:04:11.053,,801,486,188
01:04:11.090,,805,413,176
01:04:11.127,,814,323,113
01:04:11.165,,829,368,183
01:04:11.202,,881,416,196
01:04:11.239,,858,427,190
01:04:11.276,,824,386,200
01:04:11.313,,823,383,187
01:04:11.350,,825,389,166
01:04:11.387,,801,395,153
01:04:11.424,,791,415,183
01:04:11.461,,790,409,172
01:04:11.498,,777,433,183
01:04:11.535,,801,426,201
01:04:11.572,,834,416,188
01:04:11.609,,856,427,163
01:04:11.646,,971,457,170
01:04:11.683,,991,474,174
01:04:11.720,,885,400,111
01:04:11.757,,1020,443,92
01:04:11.794,,1045,487,41
01:04:11.831,,864,454,43
01:04:11.868,,801,453,50
01:04:11.905,,849,433,29
01:04:11.942,,923,399,4
01:04:11.979,,959,369,-27
01:04:12.016,,919,400,-19
01:04:12.053,,879,393,-26
01:04:12.090,,879,417,-21
01:04:12.128,,883,436,-17
01:04:12.165,,861,389,-34
01:04:12.202,,860,445,23
01:04:12.239,,837,434,24
01:04:12.276,,842,439,63
01:04:12.313,,866,439,80
01:04:12.350,,901,463,122
01:04:12.387,,1084,469,134
01:04:12.424,,1181,445,81
01:04:12.461,,807,434,176
01:04:12.498,,715,525,282
01:04:12.535,,898,487,265
01:04:12.572,,896,323,169
01:04:12.609,,797,321,172
01:04:12.646,,791,399,149
01:04:12.683,,791,429,104
01:04:12.720,,801,438,118
01:04:12.757,,796,424,130
01:04:12.794,,794,423,162
01:04:12.831,,809,376,214
01:04:12.868,,870,414,97
01:04:12.906,,852,577,270
01:04:12.943,,792,461,215
01:04:12.980,,793,460,198
01:04:13.017,,814,377,186
01:04:13.054,,810,353,152
01:04:13.091,,822,401,133
01:04:13.128,,837,386,99
01:04:13.165,,833,351,148
01:04:13.202,,898,352,182
01:04:13.239,,1128,407,136
01:04:13.276,,1086,391,122
01:04:13.313,,1031,385,114
01:04:13.350,,945,451,125
01:04:13.387,,831,414,127
01:04:13.424,,780,358,124
01:04:13.461,,830,350,103
01:04:13.498,,968,374,110
01:04:13.535,,937,398,82
01:04:13.572,,895,396,53
01:04:13.609,,894,404,65
01:04:13.646,,898,379,59
01:04:13.683,,900,361,74
01:04:13.720,,903,372,78
01:04:13.757,,901,362,73
01:04:13.794,,919,379,90
01:04:13.831,,909,390,122
01:04:13.869,,866,367,149
01:04:13.906,,970,357,140
01:04:13.943,,1177,390,57
01:04:13.980,,964,406,87
01:04:14.017,,768,478,233
01:04:14.054,,811,515,300
01:04:14.091,,831,318,202
01:04:14.128,,836,354,231
01:04:14.165,,860,527,307
01:04:14.202,,886,402,293
01:04:14.239,,897,364,284
01:04:14.276,,848,351,258
01:04:14.313,,808,345,224
01:04:14.350,,803,341,206
01:04:14.387,,794,343,194
01:04:14.424,,771,349,199
01:04:14.461,,756,379,230
01:04:14.498,,744,319,264
01:04:14.535,,734,346,301
01:04:14.572,,814,330,258
01:04:14.609,,1043,412,245
01:04:14.646,,847,321,122
01:04:14.683,,843,405,138
01:04:14.720,,941,521,106
01:04:14.757,,942,432,44
01:04:14.795,,910,463,41
01:04:14.832,,908,494,-2
01:04:14.869,,920,514,-43
01:04:14.906,,933,534,-60
01:04:14.943,,923,503,-77
01:04:14.980,,878,484,-67
01:04:15.017,,862,473,-71
01:04:15.054,,831,492,-63
01:04:15.091,,845,461,-57
01:04:15.128,,856,466,-83
01:04:15.165,,834,482,-91
01:04:15.202,,812,492,-77
01:04:15.239,,794,506,-69
01:04:15.276,,775,519,-56
01:04:15.313,,770,508,-60
01:04:15.350,,797,499,-75
01:04:15.387,,914,597,-74
01:04:15.424,,858,603,-34
01:04:15.461,,726,493,-33
01:04:15.498,,778,508,-11
01:04:15.535,,894,501,-28
01:04:15.572,,893,505,-15
01:04:15.609,,818,470,7
01:04:15.646,,800,539,59
01:04:15.683,,834,503,76
01:04:15.720,,875,484,59
01:04:15.757,,876,475,49
01:04:15.794,,901,469,45
01:04:15.831,,883,462,6
01:04:15.869,,874,432,43
01:04:15.906,,873,423,54
01:04:15.943,,872,385,65
01:04:15.980,,895,401,83
01:04:16.017,,895,374,93
01:04:16.054,,890,380,117
01:04:16.091,,899,381,116
01:04:16.128,,882,355,124
01:04:16.165,,872,381,128
01:04:16.202,,872,355,134
01:04:16.239,,876,364,123
01:04:16.276,,876,395,131
01:04:16.313,,885,403,135
01:04:16.350,,878,411,136
01:04:16.387,,876,405,125
01:04:16.424,,877,415,131
01:04:16.461,,876,420,122
01:04:16.498,,884,398,129
01:04:16.535,,867,394,104
01:04:16.572,,893,477,124
01:04:16.609,,871,506,143
01:04:16.646,,892,491,58
01:04:16.683,,892,447,41
01:04:16.720,,890,408,61
01:04:16.757,,879,414,76
01:04:16.794,,884,401,110
01:04:16.831,,873,361,93
01:04:16.868,,889,378,109
01:04:16.906,,886,410,134
01:04:16.943,,865,389,171
01:04:16.980,,837,398,181
01:04:17.017,,844,354,162
01:04:17.054,,875,372,151
01:04:17.091,,882,395,152
01:04:17.128,,872,400,126
01:04:17.165,,870,422,195
01:04:17.202,,843,405,261
01:04:17.239,,804,440,338
01:04:17.276,,798,433,395
01:04:17.313,,814,478,401
01:04:17.350,,830,442,350
01:04:17.387,,832,426,292
01:04:17.424,,812,425,251
01:04:17.461,,796,421,233
01:04:17.498,,785,396,218
01:04:17.535,,791,405,198
01:04:17.572,,786,392,186
01:04:17.609,,879,401,205
01:04:17.646,,1122,471,180
01:04:17.683,,904,378,112
01:04:17.720,,857,370,173
01:04:17.757,,951,413,146
01:04:17.794,,971,381,107
01:04:17.831,,922,390,117
01:04:17.868,,876,401,150
01:04:17.905,,854,403,158
01:04:17.943,,834,359,166
01:04:17.980,,823,322,112
01:04:18.017,,852,367,111
01:04:18.054,,905,370,85
01:04:18.091,,935,384,63
01:04:18.128,,946,415,66
01:04:18.165,,939,404,74
01:04:18.202,,931,394,57
01:04:18.239,,909,423,32
01:04:18.276,,901,381,42
01:04:18.313,,901,380,40
01:04:18.350,,881,391,17
01:04:18.387,,894,385,44
01:04:18.424,,924,373,51
01:04:18.461,,935,388,58
01:04:18.498,,905,392,72
01:04:18.535,,883,384,83
01:04:18.572,,902,390,60
01:04:18.609,,987,418,0
01:04:18.646,,901,412,28
01:04:18.683,,802,427,112
01:04:18.720,,847,493,211
01:04:18.757,,856,395,251
01:04:18.794,,820,311,149
01:04:18.831,,898,501,206
01:04:18.869,,947,533,144
01:04:18.906,,891,518,123
01:04:18.943,,828,456,98
01:04:18.980,,820,465,148
01:04:19.017,,851,438,62
01:04:19.054,,852,440,10
01:04:19.091,,823,434,57
01:04:19.128,,820,403,87
01:04:19.165,,809,415,121
01:04:19.202,,782,401,139
01:04:19.239,,770,398,160
01:04:19.276,,771,376,175
01:04:19.313,,795,378,203
01:04:19.350,,810,382,218
01:04:19.387,,802,404,212
01:04:19.424,,791,371,173
01:04:19.461,,1002,410,148
01:04:19.498,,959,436,85
01:04:19.535,,821,351,24
01:04:19.572,,930,387,19
01:04:19.609,,1018,472,-48
01:04:19.646,,986,402,-76
01:04:19.683,,940,379,-53
01:04:19.720,,897,421,-32
01:04:19.758,,884,415,-24
01:04:19.795,,917,373,-80
01:04:19.832,,950,388,-98
01:04:19.869,,959,356,-86
01:04:19.906,,939,341,-84
01:04:19.943,,916,371,-78
01:04:19.980,,892,363,-92
01:04:20.017,,882,363,-107
01:04:20.054,,874,364,-102
01:04:20.091,,874,365,-97
01:04:20.128,,886,355,-103
01:04:20.165,,895,382,-92
01:04:20.202,,915,393,-82
01:04:20.239,,917,391,-71
01:04:20.276,,934,394,-57
01:04:20.313,,920,406,-52
01:04:20.350,,882,414,-42
01:04:20.387,,888,407,-62
01:04:20.424,,1025,408,-100
01:04:20.461,,1009,499,-17
01:04:20.498,,736,454,67
01:04:20.535,,719,440,81
01:04:20.572,,920,408,24
01:04:20.609,,959,442,-6
01:04:20.646,,876,446,42
01:04:20.684,,839,463,70
01:04:20.721,,850,444,84
01:04:20.758,,874,430,90
01:04:20.795,,884,434,86
01:04:20.832,,910,418,67
01:04:20.869,,920,383,56
01:04:20.906,,913,398,56
01:04:20.943,,897,390,62
01:04:20.980,,892,377,61
01:04:21.017,,880,375,71
01:04:21.054,,873,368,62
01:04:21.091,,876,379,62
01:04:21.128,,871,397,61
01:04:21.165,,841,404,88
01:04:21.202,,801,405,149
01:04:21.239,,778,436,191
01:04:21.276,,727,449,223
01:04:21.313,,692,470,255
01:04:21.350,,731,488,246
01:04:21.387,,804,477,210
01:04:21.424,,888,485,185
01:04:21.461,,952,479,148
01:04:21.498,,918,426,79
01:04:21.535,,854,393,50
01:04:21.573,,867,426,24
01:04:21.610,,917,445,-12
01:04:21.647,,928,429,-52
01:04:21.684,,906,394,-36
01:04:21.721,,868,447,-15
01:04:21.758,,884,480,-9
01:04:21.795,,890,463,47
01:04:21.832,,897,414,57
01:04:21.869,,899,453,81
01:04:21.906,,907,414,83
01:04:21.943,,921,394,78
01:04:21.980,,883,395,81
01:04:22.017,,854,402,80
01:04:22.054,,839,406,71
01:04:22.091,,833,406,49
01:04:22.128,,836,413,-2
01:04:22.165,,847,425,-36
01:04:22.202,,858,433,-45
01:04:22.239,,865,462,-64
01:04:22.276,,869,498,-76
01:04:22.313,,855,498,-82
01:04:22.350,,858,497,-84
01:04:22.387,,942,499,-123
01:04:22.425,,980,489,-137
01:04:22.462,,921,449,-136
01:04:22.499,,831,434,-93
01:04:22.536,,770,421,-59
01:04:22.573,,822,440,-48
01:04:22.610,,935,404,-79
01:04:22.647,,983,381,-114
01:04:22.684,,968,387,-101
01:04:22.721,,938,429,-67
01:04:22.758,,926,421,-35
01:04:22.795,,898,421,5
01:04:22.832,,932,399,27
01:04:22.869,,994,401,3
01:04:22.906,,1060,447,-18
01:04:22.943,,909,494,88
01:04:22.980,,758,512,184
01:04:23.017,,781,455,179
01:04:23.054,,828,382,60
01:04:23.091,,837,360,25
01:04:23.128,,862,420,64
01:04:23.165,,854,447,100
01:04:23.202,,839,406,87
01:04:23.239,,795,435,112
01:04:23.276,,759,439,123
01:04:23.313,,793,412,128
01:04:23.351,,785,409,145
01:04:23.388,,760,397,166
01:04:23.425,,761,393,175
01:04:23.462,,786,391,184
01:04:23.499,,811,375,175
01:04:23.536,,876,376,151
01:04:23.573,,1100,411,141
01:04:23.610,,943,390,103
01:04:23.647,,868,321,53
01:04:23.684,,1006,334,-4
01:04:23.721,,1026,407,-63
01:04:23.758,,956,386,-87
01:04:23.795,,876,364,-66
01:04:23.832,,826,405,-53
01:04:23.869,,855,398,-33
01:04:23.906,,903,414,-41
01:04:23.943,,943,371,-77
01:04:23.980,,939,368,-89
01:04:24.017,,906,410,-90
01:04:24.054,,900,459,-76
01:04:24.091,,899,445,-77
01:04:24.128,,896,420,-68
01:04:24.165,,902,439,-56
01:04:24.203,,907,455,-53
01:04:24.240,,893,465,-35
01:04:24.277,,876,478,-6
01:04:24.314,,883,480,15
01:04:24.351,,1002,440,-1
01:04:24.388,,925,443,20
01:04:24.425,,757,459,62
01:04:24.462,,750,480,110
01:04:24.499,,827,468,120
01:04:24.536,,871,419,90
01:04:24.573,,880,419,104
01:04:24.610,,879,451,119
01:04:24.647,,887,451,127
01:04:24.684,,879,431,129
01:04:24.721,,839,395,130
01:04:24.758,,821,372,116
01:04:24.795,,836,392,122
01:04:24.832,,826,396,137
01:04:24.869,,811,374,137
01:04:24.906,,820,404,171
01:04:24.943,,821,439,190
01:04:24.981,,846,412,182
01:04:25.018,,856,403,187
01:04:25.055,,838,406,185
01:04:25.092,,825,412,189
01:04:25.129,,813,407,184
01:04:25.166,,796,410,184
01:04:25.203,,801,418,178
01:04:25.240,,865,413,172
01:04:25.277,,994,431,151
01:04:25.314,,928,418,113
01:04:25.351,,850,397,104
01:04:25.388,,918,393,88
01:04:25.425,,963,387,49
01:04:25.462,,931,360,30
01:04:25.499,,907,369,26
01:04:25.536,,910,364,15
01:04:25.573,,920,366,0
01:04:25.610,,892,385,-13
01:04:25.647,,866,403,-26
01:04:25.684,,859,456,-32
01:04:25.721,,867,447,-46
01:04:25.758,,870,453,-50
01:04:25.796,,876,465,-58
01:04:25.833,,887,468,-64
01:04:25.870,,883,466,-65
01:04:25.907,,879,450,-77
01:04:25.944,,879,464,-58
01:04:25.981,,879,457,-57
01:04:26.018,,876,454,-55
01:04:26.055,,884,453,-46
01:04:26.092,,875,431,-27
01:04:26.129,,874,463,-21
01:04:26.166,,892,480,-25
01:04:26.203,,893,485,-12
01:04:26.240,,864,473,7
01:04:26.277,,857,460,-11
01:04:26.314,,967,477,-63
01:04:26.351,,971,495,-34
01:04:26.388,,809,517,47
01:04:26.425,,737,538,130
01:04:26.462,,819,469,160
01:04:26.499,,900,388,139
01:04:26.536,,919,473,140
01:04:26.573,,889,463,126
01:04:26.611,,824,396,149
01:04:26.648,,840,423,105
01:04:26.685,,864,380,77
01:04:26.722,,776,405,97
01:04:26.759,,719,388,111
01:04:26.796,,732,389,161
01:04:26.833,,738,380,160
01:04:26.870,,773,412,192
01:04:26.907,,815,431,205
01:04:26.944,,814,441,195
01:04:26.981,,780,425,172
01:04:27.018,,759,427,137
01:04:27.055,,980,466,122
01:04:27.092,,1130,498,41
01:04:27.129,,779,384,-8
01:04:27.166,,850,461,10
01:04:27.203,,1047,484,-60
01:04:27.240,,1024,411,-117
01:04:27.277,,888,402,-85
01:04:27.314,,886,450,-54
01:04:27.351,,909,393,-76
01:04:27.388,,929,379,-75
01:04:27.425,,917,376,-82
01:04:27.463,,906,350,-115
01:04:27.500,,886,385,-24
01:04:27.537,,869,379,-83
01:04:27.574,,858,413,-75
01:04:27.611,,880,418,-80
01:04:27.648,,896,423,-68
01:04:27.685,,891,441,-30
01:04:27.722,,927,428,-20
01:04:27.759,,970,374,-110
01:04:27.796,,941,421,-120
01:04:27.833,,809,453,-46
01:04:27.870,,678,452,-15
01:04:27.907,,814,471,-36
01:04:27.944,,968,495,-123
01:04:27.981,,834,460,-81
01:04:28.018,,875,566,1
01:04:28.055,,933,541,7
01:04:28.092,,893,484,25
01:04:28.129,,885,501,51
01:04:28.166,,877,473,42
01:04:28.203,,809,439,60
01:04:28.240,,836,445,90
01:04:28.277,,859,440,97
01:04:28.315,,770,424,92
01:04:28.352,,740,421,105
01:04:28.389,,756,419,88
01:04:28.426,,727,419,66
01:04:28.463,,722,462,60
01:04:28.500,,778,534,55
01:04:28.537,,994,586,65
01:04:28.574,,954,531,19
01:04:28.611,,823,478,-36
01:04:28.648,,884,504,-16
01:04:28.685,,909,483,-58
01:04:28.722,,898,440,-47
01:04:28.759,,923,414,-37
01:04:28.796,,897,376,-68
01:04:28.833,,853,380,-66
01:04:28.870,,837,383,-42
01:04:28.907,,882,380,-67
01:04:28.944,,915,365,-104
01:04:28.981,,899,380,-111
01:04:29.018,,900,410,-79
01:04:29.055,,905,414,-92
01:04:29.092,,907,427,-104
01:04:29.129,,897,431,-80
01:04:29.166,,872,436,-86
01:04:29.203,,888,434,-92
01:04:29.240,,904,441,-81
01:04:29.278,,910,438,-70
01:04:29.315,,927,439,-69
01:04:29.352,,942,442,-56
01:04:29.389,,930,439,-50
01:04:29.426,,895,437,-35
01:04:29.463,,866,432,-15
01:04:29.500,,847,434,1
01:04:29.537,,814,436,17
01:04:29.574,,876,455,45
01:04:29.611,,936,474,68
01:04:29.648,,890,399,52
01:04:29.685,,867,373,39
01:04:29.722,,912,388,54
01:04:29.759,,887,375,89
01:04:29.796,,782,396,123
01:04:29.833,,754,360,123
01:04:29.870,,920,401,137
01:04:29.907,,917,348,111
01:04:29.944,,792,385,116
01:04:29.981,,712,443,152
01:04:30.018,,721,422,162
01:04:30.055,,763,380,133
01:04:30.092,,819,410,125
01:04:30.129,,819,404,135
01:04:30.166,,878,392,148
01:04:30.203,,1138,411,106
01:04:30.241,,943,317,-2
01:04:30.278,,878,318,30
01:04:30.315,,992,408,53
01:04:30.352,,1022,376,-12
01:04:30.389,,991,356,27
01:04:30.426,,944,347,68
01:04:30.463,,862,346,55
01:04:30.500,,879,321,18
01:04:30.537,,896,335,-2
01:04:30.574,,952,342,-39
01:04:30.611,,949,406,-5
01:04:30.648,,921,335,-96
01:04:30.685,,911,368,-31
01:04:30.722,,886,376,-4
01:04:30.759,,861,351,21
01:04:30.796,,886,303,105
01:04:30.833,,874,297,70
01:04:30.870,,1046,314,47
01:04:30.907,,1212,425,-45
01:04:30.944,,880,487,85
01:04:30.981,,962,400,203
01:04:31.018,,1010,177,173
01:04:31.055,,878,3,170
01:04:31.092,,895,70,149
01:04:31.130,,958,143,110
01:04:31.167,,1001,163,99
01:04:31.204,,958,128,101
01:04:31.241,,915,110,82
01:04:31.278,,914,116,85
01:04:31.315,,881,150,85
01:04:31.352,,851,183,105
01:04:31.389,,845,203,127
01:04:31.426,,833,277,181
01:04:31.463,,808,55,50
01:04:31.500,,824,51,59
01:04:31.537,,960,40,44
01:04:31.574,,1441,91,-20
01:04:31.611,,1240,167,-63
01:04:31.648,,1014,16,-6
01:04:31.685,,992,-27,141
01:04:31.722,,1001,118,224
01:04:31.759,,1093,159,175
01:04:31.796,,1090,178,149
01:04:31.833,,948,205,113
01:04:31.870,,852,192,69
01:04:31.907,,818,227,51
01:04:31.944,,905,281,13
01:04:31.981,,941,292,-20
01:04:32.018,,899,188,-63
01:04:32.056,,882,155,-69
01:04:32.093,,895,160,4
01:04:32.130,,845,106,67
01:04:32.167,,1118,20,-29
01:04:32.204,,1260,204,-56
01:04:32.241,,1112,357,120
01:04:32.278,,941,229,271
01:04:32.315,,815,-11,304
01:04:32.352,,841,-118,302
01:04:32.389,,1023,-1,253
01:04:32.426,,1009,137,229
01:04:32.463,,963,116,250
01:04:32.500,,926,23,237
01:04:32.537,,856,-7,152
01:04:32.574,,823,57,97
01:04:32.611,,770,262,64
01:04:32.648,,796,334,115
01:04:32.685,,805,157,160
01:04:32.722,,774,79,139
01:04:32.759,,1024,-12,85
01:04:32.796,,1264,128,-65
01:04:32.833,,1115,153,-80
01:04:32.870,,1087,113,-30
01:04:32.908,,991,217,12
01:04:32.945,,943,242,74
01:04:32.982,,1099,243,40
01:04:33.019,,1102,322,86
01:04:33.056,,1091,94,69
01:04:33.093,,1023,-43,79
01:04:33.130,,967,-11,48
01:04:33.167,,889,20,-22
01:04:33.204,,915,108,-60
01:04:33.241,,949,131,-71
01:04:33.278,,969,219,-117
01:04:33.315,,947,329,-60
01:04:33.352,,870,374,-36
01:04:33.389,,855,419,49
01:04:33.426,,830,309,-56
01:04:33.463,,1039,112,-216
01:04:33.500,,1268,324,-207
01:04:33.537,,1134,260,-14
01:04:33.574,,1167,-63,101
01:04:33.611,,986,-243,121
01:04:33.648,,897,-289,93
01:04:33.685,,1005,-246,43
01:04:33.722,,1075,-136,-30
01:04:33.759,,991,-36,-73
01:04:33.796,,882,-61,-80
01:04:33.834,,892,-60,-90
01:04:33.871,,883,47,-102
01:04:33.908,,880,83,-97
01:04:33.945,,899,160,-84
01:04:33.982,,905,72,-35
01:04:34.019,,874,-14,35
01:04:34.056,,890,34,125
01:04:34.093,,919,63,175
01:04:34.130,,948,70,145
01:04:34.167,,1198,156,93
01:04:34.204,,1344,233,56
01:04:34.241,,1163,252,27
01:04:34.278,,897,258,96
01:04:34.315,,745,269,128
01:04:34.352,,789,314,115
01:04:34.389,,1008,353,84
01:04:34.426,,1123,328,7
01:04:34.463,,1168,337,40
01:04:34.500,,1045,321,36
01:04:34.537,,985,324,23
01:04:34.574,,907,331,23
01:04:34.611,,837,366,70
01:04:34.648,,950,296,73
01:04:34.685,,1133,220,55
01:04:34.722,,1172,184,18
01:04:34.760,,996,225,51
01:04:34.797,,1001,273,45
01:04:34.834,,942,274,-71
01:04:34.871,,732,383,17
01:04:34.908,,629,483,253
01:04:34.945,,746,613,567
01:04:34.982,,777,350,381
01:04:35.019,,931,210,351
01:04:35.056,,1019,386,432
01:04:35.093,,935,431,372
01:04:35.130,,816,417,302
01:04:35.167,,789,404,214
01:04:35.204,,768,253,201
01:04:35.241,,742,212,211
01:04:35.278,,779,236,257
01:04:35.315,,808,200,285
01:04:35.352,,820,281,315
01:04:35.389,,803,230,276
01:04:35.426,,855,275,213
01:04:35.463,,1168,432,167
01:04:35.500,,1174,447,51
01:04:35.537,,994,476,77
01:04:35.574,,917,535,107
01:04:35.611,,826,490,45
01:04:35.648,,797,473,64
01:04:35.685,,903,534,62
01:04:35.722,,950,449,-29
01:04:35.759,,889,489,-36
01:04:35.797,,870,465,-38
01:04:35.834,,896,450,-80
01:04:35.871,,909,432,-106
01:04:35.908,,874,489,-203
01:04:35.945,,705,694,-327
01:04:35.982,,711,630,-291
01:04:36.019,,825,671,-215
01:04:36.056,,874,753,-157
01:04:36.093,,883,656,-105
01:04:36.130,,860,618,-34
01:04:36.167,,809,540,19
01:04:36.204,,945,487,47
01:04:36.241,,1036,524,117
01:04:36.278,,697,478,234
01:04:36.315,,691,501,388
01:04:36.352,,787,423,311
01:04:36.389,,840,284,301
01:04:36.426,,851,287,260
01:04:36.463,,879,347,171
01:04:36.500,,805,375,82
01:04:36.537,,785,415,83
01:04:36.574,,800,444,16
01:04:36.611,,793,447,31
01:04:36.648,,813,440,4
01:04:36.685,,786,466,49
01:04:36.722,,779,429,63
01:04:36.759,,785,465,63
01:04:36.796,,778,489,87
01:04:36.834,,812,556,86
01:04:36.871,,812,599,132
01:04:36.908,,963,612,219
01:04:36.945,,1136,720,254
01:04:36.982,,1139,707,223
01:04:37.019,,1016,617,192
01:04:37.056,,788,525,102
01:04:37.093,,747,485,60
01:04:37.130,,899,490,7
01:04:37.167,,1011,453,-21
01:04:37.204,,977,474,-21
01:04:37.241,,910,429,-42
01:04:37.278,,860,144,-141
01:04:37.315,,808,1035,-29
01:04:37.352,,804,622,-154
01:04:37.389,,747,714,-221
01:04:37.426,,665,809,-78
01:04:37.463,,584,804,-99
01:04:37.500,,517,729,-95
01:04:37.537,,464,646,-21
01:04:37.574,,440,627,-56
01:04:37.611,,440,659,111
01:04:37.648,,566,500,45
01:04:37.685,,550,481,179
01:04:37.722,,677,413,270
01:04:37.760,,907,241,352
01:04:37.797,,1018,319,442
01:04:37.834,,1028,368,351
01:04:37.871,,1027,447,318
01:04:37.908,,959,520,283
01:04:37.945,,872,501,248
01:04:37.982,,866,514,202
01:04:38.019,,841,524,248
01:04:38.056,,784,504,214
01:04:38.093,,743,528,278
01:04:38.130,,719,529,284
01:04:38.167,,727,507,290
01:04:38.204,,864,524,286
01:04:38.241,,859,660,293
01:04:38.278,,782,619,290
01:04:38.315,,1070,631,262
01:04:38.352,,1179,518,285
01:04:38.389,,1043,495,231
01:04:38.426,,810,532,241
01:04:38.463,,705,445,189
01:04:38.500,,807,412,94
01:04:38.537,,960,487,101
01:04:38.574,,990,438,-3
01:04:38.611,,900,488,30
01:04:38.648,,837,534,60
01:04:38.685,,809,516,51
01:04:38.723,,779,553,116
01:04:38.760,,700,561,122
01:04:38.797,,661,559,223
01:04:38.834,,705,597,280
01:04:38.871,,838,552,241
01:04:38.908,,855,561,307
01:04:38.945,,804,534,347
01:04:38.982,,989,554,230
01:04:39.019,,1031,484,200
01:04:39.056,,873,435,200
01:04:39.093,,825,500,335
01:04:39.130,,797,363,292
01:04:39.167,,798,373,271
01:04:39.204,,772,370,234
01:04:39.241,,706,395,244
01:04:39.278,,658,395,252
01:04:39.315,,706,406,282
01:04:39.352,,707,371,313
01:04:39.389,,720,357,285
01:04:39.426,,767,390,301
01:04:39.463,,783,352,320
01:04:39.500,,848,362,372
01:04:39.537,,966,319,347
01:04:39.574,,995,315,271
01:04:39.611,,1212,412,191
01:04:39.649,,1249,478,208
01:04:39.686,,956,402,241
01:04:39.723,,810,442,266
01:04:39.760,,887,409,159
01:04:39.797,,956,464,99
01:04:39.834,,922,425,86
01:04:39.871,,842,424,65
01:04:39.908,,835,482,96
01:04:39.945,,852,443,107
01:04:39.982,,882,520,124
01:04:40.019,,897,504,115
01:04:40.056,,898,541,93
01:04:40.093,,901,550,98
01:04:40.130,,913,484,144
01:04:40.167,,879,486,168
01:04:40.204,,958,473,250
01:04:40.241,,1203,432,187
01:04:40.278,,1043,365,170
01:04:40.315,,719,435,272
01:04:40.352,,698,419,392
01:04:40.389,,785,258,356
01:04:40.426,,757,235,290
01:04:40.463,,723,289,292
01:04:40.500,,652,373,187
01:04:40.537,,645,368,206
01:04:40.574,,684,335,212
01:04:40.612,,707,301,269
01:04:40.649,,731,317,310
01:04:40.686,,725,364,379
01:04:40.723,,699,355,513
01:04:40.760,,762,316,607
01:04:40.797,,863,213,650
01:04:40.834,,891,231,551
01:04:40.871,,1158,354,425
01:04:40.908,,1407,501,318
01:04:40.945,,1202,440,292
01:04:40.982,,997,450,274
01:04:41.019,,888,469,284
01:04:41.056,,936,368,201
01:04:41.093,,891,411,176
01:04:41.130,,798,454,132
01:04:41.167,,750,553,186
01:04:41.204,,772,504,152
01:04:41.241,,768,506,173
01:04:41.278,,778,630,197
01:04:41.315,,789,596,187
01:04:41.352,,782,624,225
01:04:41.389,,854,617,215
01:04:41.426,,899,551,233
01:04:41.463,,866,520,270
01:04:41.500,,950,493,207
01:04:41.537,,898,461,166
01:04:41.574,,661,437,191
01:04:41.612,,639,426,293
01:04:41.649,,831,296,325
01:04:41.686,,872,211,306
01:04:41.723,,793,257,256
01:04:41.760,,719,333,247
01:04:41.797,,689,329,251
01:04:41.834,,735,339,243
01:04:41.871,,800,347,271
01:04:41.908,,836,376,290
01:04:41.945,,839,425,353
01:04:41.982,,840,401,385
01:04:42.019,,922,394,427
01:04:42.056,,995,357,336
01:04:42.093,,1217,482,251
01:04:42.130,,1268,564,226
01:04:42.167,,1119,518,186
01:04:42.204,,876,509,179
01:04:42.241,,793,441,117
01:04:42.278,,888,438,95
01:04:42.315,,952,431,66
01:04:42.352,,917,442,47
01:04:42.389,,941,418,47
01:04:42.426,,1000,427,48
01:04:42.463,,1044,440,30
01:04:42.500,,1097,480,-7
01:04:42.537,,1108,401,-40
01:04:42.575,,1114,372,-36
01:04:42.612,,1067,376,-109
01:04:42.649,,976,385,31
01:04:42.686,,1049,317,0
01:04:42.723,,926,321,105
01:04:42.760,,706,125,402
01:04:42.797,,761,-348,431
01:04:42.834,,1125,-307,215
01:04:42.871,,1067,-122,178
01:04:42.908,,1121,402,246
01:04:42.945,,1075,497,179
01:04:42.982,,1029,421,184
01:04:43.019,,949,433,218
01:04:43.056,,890,542,155
01:04:43.093,,809,633,212
01:04:43.130,,784,511,263
01:04:43.167,,806,378,323
01:04:43.204,,839,222,342
01:04:43.241,,964,88,311
01:04:43.278,,1023,-14,289
01:04:43.315,,1045,-75,258
01:04:43.352,,1309,42,236
01:04:43.389,,1306,30,194
01:04:43.426,,964,50,229
01:04:43.463,,886,168,209
01:04:43.501,,853,214,133
01:04:43.538,,902,284,106
01:04:43.575,,986,336,87
01:04:43.612,,954,320,63
01:04:43.649,,884,297,101
01:04:43.686,,873,338,117
01:04:43.723,,887,372,108
01:04:43.760,,874,379,94
01:04:43.797,,850,463,118
01:04:43.834,,874,493,139
01:04:43.871,,879,513,203
01:04:43.908,,908,593,226
01:04:43.945,,895,569,196
01:04:43.982,,912,529,207
01:04:44.019,,988,508,207
01:04:44.056,,1020,403,174
01:04:44.093,,939,279,71
01:04:44.130,,812,428,91
01:04:44.167,,776,443,133
01:04:44.204,,870,359,114
01:04:44.241,,996,275,35
01:04:44.278,,928,226,-12
01:04:44.315,,828,310,35
01:04:44.352,,806,382,56
01:04:44.389,,814,362,12
01:04:44.426,,821,355,57
01:04:44.463,,801,187,127
01:04:44.501,,940,243,190
01:04:44.538,,943,169,263
01:04:44.575,,899,288,348
01:04:44.612,,964,227,307
01:04:44.649,,1094,233,308
01:04:44.686,,1329,325,292
01:04:44.723,,1206,354,235
01:04:44.760,,790,303,270
01:04:44.797,,834,240,247
01:04:44.834,,1058,239,156
01:04:44.871,,1116,236,108
01:04:44.908,,1012,248,101
01:04:44.945,,952,278,8
01:04:44.982,,940,328,-12
01:04:45.019,,929,327,-28
01:04:45.056,,908,303,-23
01:04:45.093,,886,441,8
01:04:45.130,,934,603,28
01:04:45.167,,1038,565,-19
01:04:45.204,,1077,246,92
01:04:45.241,,1054,309,257
01:04:45.278,,976,264,309
01:04:45.315,,1011,211,322
01:04:45.352,,887,111,281
01:04:45.389,,745,264,445
01:04:45.426,,712,545,579
01:04:45.463,,884,170,447
01:04:45.501,,952,123,438
01:04:45.538,,880,181,383
01:04:45.575,,755,181,311
01:04:45.612,,690,254,261
01:04:45.649,,710,285,240
01:04:45.686,,739,285,226
01:04:45.723,,766,305,233
01:04:45.760,,791,328,236
01:04:45.797,,781,342,255
01:04:45.834,,836,371,312
01:04:45.871,,929,382,320
01:04:45.908,,954,367,287
01:04:45.945,,1093,416,265
01:04:45.982,,1247,513,222
01:04:46.019,,1110,499,243
01:04:46.056,,738,535,208
01:04:46.093,,834,483,138
01:04:46.130,,948,509,52
01:04:46.167,,925,478,43
01:04:46.204,,843,490,71
01:04:46.241,,851,518,63
01:04:46.278,,896,530,52
01:04:46.315,,967,480,29
01:04:46.352,,958,530,16
01:04:46.389,,938,482,87
01:04:46.426,,916,427,77
01:04:46.463,,918,493,78
01:04:46.500,,899,489,148
01:04:46.537,,954,424,-19
01:04:46.574,,879,485,62
01:04:46.612,,760,589,306
01:04:46.649,,763,579,416
01:04:46.686,,832,369,422
01:04:46.723,,871,43,370
01:04:46.760,,895,-1,331
01:04:46.797,,840,134,267
01:04:46.834,,725,291,203
01:04:46.871,,678,425,199
01:04:46.908,,698,429,167
01:04:46.945,,715,370,157
01:04:46.982,,739,350,158
01:04:47.019,,777,367,177
01:04:47.056,,802,407,217
01:04:47.093,,850,415,281
01:04:47.130,,946,323,225
01:04:47.167,,992,306,181
01:04:47.204,,1113,368,189
01:04:47.241,,1341,508,205
01:04:47.278,,1264,503,190
01:04:47.315,,955,428,236
01:04:47.352,,809,409,238
01:04:47.389,,885,395,127
01:04:47.426,,943,383,74
01:04:47.463,,899,391,46
01:04:47.500,,833,417,54
01:04:47.537,,840,407,63
01:04:47.574,,919,401,71
01:04:47.611,,1037,421,194
01:04:47.649,,1075,324,192
01:04:47.686,,934,290,137
01:04:47.723,,796,359,160
01:04:47.760,,676,478,135
01:04:47.797,,620,524,95
01:04:47.834,,667,556,98
01:04:47.871,,827,558,69
01:04:47.908,,1187,525,-60
01:04:47.945,,1278,556,-105
01:04:47.982,,919,574,41
01:04:48.019,,818,601,172
01:04:48.056,,881,428,17
01:04:48.093,,844,260,31
01:04:48.130,,813,239,148
01:04:48.167,,793,290,174
01:04:48.204,,790,355,251
01:04:48.241,,723,285,252
01:04:48.278,,719,292,280
01:04:48.315,,687,261,323
01:04:48.352,,669,263,305
01:04:48.389,,700,300,317
01:04:48.426,,899,355,278
01:04:48.463,,980,338,163
01:04:48.500,,1190,499,132
01:04:48.537,,1407,557,151
01:04:48.574,,1217,602,-41
01:04:48.611,,894,459,-35
01:04:48.649,,715,440,-67
01:04:48.686,,789,386,-81
01:04:48.723,,920,408,2
01:04:48.760,,920,413,-26
01:04:48.797,,918,339,-131
01:04:48.834,,940,302,-113
01:04:48.871,,948,324,-85
01:04:48.908,,952,342,-72
01:04:48.945,,935,325,-45
01:04:48.982,,958,290,-44
01:04:49.019,,976,341,-23
01:04:49.056,,1002,459,-8
01:04:49.093,,967,508,-35
01:04:49.130,,891,493,-78
01:04:49.167,,949,492,-84
01:04:49.204,,897,537,-37
01:04:49.241,,701,554,26
01:04:49.278,,733,667,296
01:04:49.315,,906,484,383
01:04:49.352,,1066,283,225
01:04:49.389,,996,156,225
01:04:49.426,,852,187,215
01:04:49.463,,708,293,202
01:04:49.500,,639,357,147
01:04:49.537,,614,383,102
01:04:49.574,,637,400,77
01:04:49.611,,743,425,80
01:04:49.649,,817,447,87
01:04:49.686,,780,438,66
01:04:49.723,,795,463,141
01:04:49.760,,894,443,153
01:04:49.797,,955,382,57
01:04:49.834,,1049,387,52
01:04:49.871,,1195,482,88
01:04:49.908,,1178,558,86
01:04:49.945,,962,450,48
01:04:49.982,,852,454,127
01:04:50.019,,845,466,122
01:04:50.056,,920,489,107
01:04:50.093,,985,483,39
01:04:50.130,,901,450,47
01:04:50.167,,845,371,94
01:04:50.204,,879,373,76
01:04:50.241,,936,377,61
01:04:50.278,,968,369,48
01:04:50.315,,969,351,55
01:04:50.352,,971,354,53
01:04:50.389,,937,360,85
01:04:50.426,,854,352,136
01:04:50.463,,948,338,138
01:04:50.500,,1212,423,126
01:04:50.537,,1006,430,136
01:04:50.574,,801,385,337
01:04:50.611,,722,274,437
01:04:50.648,,716,189,411
01:04:50.686,,815,208,425
01:04:50.723,,891,395,389
01:04:50.760,,831,415,446
01:04:50.797,,767,249,370
01:04:50.834,,792,281,401
01:04:50.871,,792,274,355
01:04:50.908,,761,312,371
01:04:50.945,,724,300,408
01:04:50.982,,693,249,454
01:04:51.019,,684,227,486
01:04:51.056,,734,145,504
01:04:51.093,,752,-3,408
01:04:51.130,,821,263,396
01:04:51.167,,775,131,291
01:04:51.204,,1152,375,198
01:04:51.241,,1148,416,133
01:04:51.278,,1017,379,41
01:04:51.315,,952,570,115
01:04:51.352,,820,644,113
01:04:51.389,,716,636,69
01:04:51.426,,836,1063,20
01:04:51.463,,1115,872,-258
01:04:51.500,,971,418,3
01:04:51.537,,904,341,237
01:04:51.574,,938,259,431
01:04:51.611,,919,116,401
01:04:51.648,,908,149,324
01:04:51.685,,941,300,362
01:04:51.723,,919,568,311
01:04:51.760,,895,596,344
01:04:51.797,,795,420,461
01:04:51.834,,757,183,558
01:04:51.871,,774,35,632
01:04:51.908,,711,-299,684
01:04:51.945,,815,-238,746
01:04:51.982,,944,86,637
01:04:52.019,,881,45,469
01:04:52.056,,868,138,326
01:04:52.093,,933,305,242
01:04:52.130,,958,437,106
01:04:52.167,,1043,139,-88
01:04:52.204,,1241,-140,-327
01:04:52.241,,1013,527,-800
01:04:52.278,,719,874,-406
01:04:52.315,,765,602,-149
01:04:52.352,,773,445,-171
01:04:52.389,,792,376,-177
01:04:52.426,,861,-19,-136
01:04:52.463,,956,56,-243
01:04:52.500,,790,661,-447
01:04:52.537,,758,1079,-220
01:04:52.574,,808,967,-241
01:04:52.611,,823,731,-96
01:04:52.648,,1040,984,-96
01:04:52.685,,1187,760,-293
01:04:52.723,,1099,644,-256
01:04:52.760,,1007,423,-162
01:04:52.797,,900,261,-87
01:04:52.834,,878,285,-82
01:04:52.871,,940,347,-118
01:04:52.908,,1035,408,-178
01:04:52.945,,970,361,-225
01:04:52.982,,836,254,-224
01:04:53.019,,797,354,-129
01:04:53.056,,798,430,-184
01:04:53.093,,791,420,-276
01:04:53.130,,786,359,-240
01:04:53.167,,780,498,-190
01:04:53.204,,773,579,-233
01:04:53.241,,775,632,-201
01:04:53.278,,766,687,-104
01:04:53.315,,909,614,-111
01:04:53.352,,938,526,-163
01:04:53.389,,914,577,6
01:04:53.426,,975,631,197
01:04:53.463,,837,421,111
01:04:53.500,,786,221,16
01:04:53.537,,887,291,34
01:04:53.574,,940,425,-13
01:04:53.611,,867,500,58
01:04:53.648,,825,467,124
01:04:53.685,,818,414,88
01:04:53.723,,818,395,77
01:04:53.760,,794,404,92
01:04:53.797,,774,426,147
01:04:53.834,,776,432,182
01:04:53.871,,773,429,201
01:04:53.908,,801,409,218
01:04:53.945,,837,410,218
01:04:53.982,,833,406,216
01:04:54.019,,804,409,199
01:04:54.056,,892,434,166
01:04:54.093,,1050,495,141
01:04:54.130,,950,435,60
01:04:54.167,,1014,428,39
01:04:54.204,,1027,483,8
01:04:54.241,,863,467,-13
01:04:54.278,,786,440,10
01:04:54.315,,815,418,-23
01:04:54.352,,884,382,-49
01:04:54.389,,1010,313,-104
01:04:54.426,,1035,269,-205
01:04:54.463,,952,307,-208
01:04:54.500,,876,368,-169
01:04:54.537,,818,388,-144
01:04:54.574,,775,373,-145
01:04:54.611,,804,407,-69
01:04:54.648,,898,451,-60
01:04:54.685,,885,418,-104
01:04:54.723,,855,474,-46
01:04:54.760,,872,577,-57
01:04:54.797,,854,645,-145
01:04:54.834,,816,640,-129
01:04:54.871,,821,629,-89
01:04:54.908,,814,585,-114
01:04:54.945,,799,567,-75
01:04:54.982,,978,542,-105
01:04:55.019,,1055,587,-132
01:04:55.056,,711,540,-3
01:04:55.093,,835,493,144
01:04:55.130,,1070,424,-44
01:04:55.167,,912,317,-191
01:04:55.204,,751,298,-62
01:04:55.241,,769,372,-12
01:04:55.278,,787,393,-53
01:04:55.315,,767,378,-12
01:04:55.352,,756,413,43
01:04:55.389,,771,438,48
01:04:55.426,,809,446,85
01:04:55.463,,842,463,105
01:04:55.500,,839,506,115
01:04:55.537,,816,552,108
01:04:55.574,,783,573,96
01:04:55.611,,758,585,77
01:04:55.648,,768,581,59
01:04:55.685,,788,565,35
01:04:55.722,,987,575,-12
01:04:55.760,,1048,553,-67
01:04:55.797,,859,436,-116
01:04:55.834,,1018,442,-109
01:04:55.871,,1039,480,-155
01:04:55.908,,882,410,-135
01:04:55.945,,812,377,-82
01:04:55.982,,889,421,-85
01:04:56.019,,975,403,-130
01:04:56.056,,1001,346,-135
01:04:56.093,,955,327,-108
01:04:56.130,,896,350,-102
01:04:56.167,,866,373,-109
01:04:56.204,,879,371,-108
01:04:56.241,,903,368,-107
01:04:56.278,,911,399,-92
01:04:56.315,,926,434,-70
01:04:56.352,,932,431,-41
01:04:56.389,,1020,346,-96
01:04:56.426,,916,349,-105
01:04:56.463,,741,421,-20
01:04:56.500,,715,521,54
01:04:56.537,,796,597,76
01:04:56.574,,836,486,38
01:04:56.611,,834,436,39
01:04:56.648,,863,487,29
01:04:56.685,,907,565,7
01:04:56.723,,887,606,25
01:04:56.760,,816,575,40
01:04:56.797,,822,524,43
01:04:56.834,,815,474,37
01:04:56.871,,828,455,40
01:04:56.908,,805,440,39
01:04:56.945,,733,421,47
01:04:56.982,,734,410,49
01:04:57.019,,739,430,53
01:04:57.056,,767,444,80
01:04:57.093,,796,506,126
01:04:57.130,,867,577,141
01:04:57.167,,982,743,130
01:04:57.204,,810,541,-51
01:04:57.241,,797,488,-104
01:04:57.278,,932,457,-175
01:04:57.315,,963,562,-250
01:04:57.352,,913,519,-345
01:04:57.389,,891,311,-206
01:04:57.426,,910,269,-83
01:04:57.463,,923,333,19
01:04:57.500,,887,271,80
01:04:57.537,,874,327,5
01:04:57.574,,892,404,-58
01:04:57.611,,936,439,-94
01:04:57.648,,936,449,-123
01:04:57.685,,925,426,-106
01:04:57.723,,928,471,-49
01:04:57.760,,938,464,2
01:04:57.797,,923,473,14
01:04:57.834,,915,449,-12
01:04:57.871,,881,508,3
01:04:57.908,,805,473,-9
01:04:57.945,,806,459,-28
01:04:57.982,,893,482,18
01:04:58.019,,896,444,75
01:04:58.056,,867,390,85
01:04:58.093,,864,302,51
01:04:58.130,,910,302,18
01:04:58.167,,932,335,44
01:04:58.204,,894,328,62
01:04:58.241,,875,340,54
01:04:58.278,,883,320,64
01:04:58.315,,886,308,64
01:04:58.352,,887,325,77
01:04:58.389,,887,355,114
01:04:58.426,,892,377,169
01:04:58.463,,865,393,154
01:04:58.500,,860,398,140
01:04:58.537,,874,412,125
01:04:58.574,,866,420,98
01:04:58.611,,874,421,118
01:04:58.648,,885,416,125
01:04:58.685,,900,431,148
01:04:58.723,,896,439,173
01:04:58.760,,878,442,170
01:04:58.797,,886,423,178
01:04:58.834,,895,410,190
01:04:58.871,,920,436,198
01:04:58.908,,925,351,221
01:04:58.945,,920,346,214
01:04:58.982,,918,336,250
01:04:59.019,,902,303,267
01:04:59.056,,886,318,271
01:04:59.093,,869,302,303
01:04:59.130,,862,296,282
01:04:59.167,,828,303,267
01:04:59.204,,800,305,256
01:04:59.241,,792,317,236
01:04:59.278,,783,318,223
01:04:59.315,,775,345,180
01:04:59.352,,794,363,168
01:04:59.389,,862,331,175
01:04:59.426,,943,254,103
01:04:59.463,,1038,584,252
01:04:59.500,,982,488,416
01:04:59.537,,904,485,420
01:04:59.574,,846,520,383
01:04:59.611,,826,448,382
01:04:59.648,,833,411,356
01:04:59.686,,855,430,359
01:04:59.723,,855,359,248
01:04:59.760,,860,323,198
01:04:59.797,,889,256,256
01:04:59.834,,885,224,243
01:04:59.871,,917,216,264
01:04:59.908,,938,219,245
01:04:59.945,,930,193,237
01:04:59.982,,938,231,226
01:05:00.019,,934,227,238
01:05:00.056,,927,177,279
01:05:00.093,,963,97,438
01:05:00.130,,966,143,310
01:05:00.167,,983,419,420
01:05:00.204,,963,351,387
01:05:00.241,,929,345,323
01:05:00.278,,892,306,181
01:05:00.315,,822,419,95
01:05:00.352,,776,444,88
01:05:00.389,,779,393,76
01:05:00.426,,765,398,87
01:05:00.463,,779,334,85
01:05:00.500,,773,418,120
01:05:00.537,,788,438,186
01:05:00.574,,819,450,240
01:05:00.612,,832,543,359
01:05:00.649,,844,518,414
01:05:00.686,,895,500,477
01:05:00.723,,893,508,507
01:05:00.760,,886,448,448
01:05:00.797,,881,433,385
01:05:00.834,,853,413,305
01:05:00.871,,818,415,233
01:05:00.908,,866,418,174
01:05:00.945,,965,360,178
01:05:00.982,,1095,409,182
01:05:01.019,,947,315,241
01:05:01.056,,836,289,304
01:05:01.093,,777,254,304
01:05:01.130,,755,194,313
01:05:01.167,,778,242,326
01:05:01.204,,860,339,292
01:05:01.241,,892,394,269
01:05:01.278,,889,407,282
01:05:01.315,,904,378,306
01:05:01.352,,917,414,334
01:05:01.389,,913,382,339
01:05:01.426,,844,336,360
01:05:01.463,,788,355,316
01:05:01.500,,780,361,277
01:05:01.537,,740,351,239
01:05:01.575,,755,376,200
01:05:01.612,,785,403,163
01:05:01.649,,841,434,140
01:05:01.686,,877,434,108
01:05:01.723,,848,385,124
01:05:01.760,,830,366,148
01:05:01.797,,865,369,132
01:05:01.834,,902,392,147
01:05:01.871,,917,401,124
01:05:01.908,,937,414,112
01:05:01.945,,999,418,116
01:05:01.982,,1048,437,118
01:05:02.019,,1026,392,120
01:05:02.056,,990,335,173
01:05:02.093,,949,251,182
01:05:02.130,,903,265,150
01:05:02.167,,850,301,118
01:05:02.204,,816,342,67
01:05:02.241,,816,353,76
01:05:02.278,,859,356,32
01:05:02.315,,928,441,71
01:05:02.352,,1018,409,54
01:05:02.389,,959,411,42
01:05:02.426,,882,425,66
01:05:02.463,,915,415,80
01:05:02.501,,983,371,64
01:05:02.538,,981,357,79
01:05:02.575,,1024,279,127
01:05:02.612,,978,308,5
01:05:02.649,,935,338,13
01:05:02.686,,962,353,-15
01:05:02.723,,947,419,-16
01:05:02.760,,901,426,22
01:05:02.797,,829,409,51
01:05:02.834,,800,362,47
01:05:02.871,,808,363,42
01:05:02.908,,839,409,35
01:05:02.945,,888,426,66
01:05:02.982,,897,429,81
01:05:03.019,,892,441,113
01:05:03.056,,904,427,118
01:05:03.093,,895,406,145
01:05:03.130,,906,361,146
01:05:03.167,,901,355,121
01:05:03.204,,916,348,93
01:05:03.241,,925,288,89
01:05:03.278,,945,252,98
01:05:03.315,,941,215,84
01:05:03.352,,968,73,59
01:05:03.389,,1043,127,85
01:05:03.426,,997,40,112
01:05:03.464,,910,191,212
01:05:03.501,,861,353,173
01:05:03.538,,890,312,54
01:05:03.575,,919,291,24
01:05:03.612,,889,305,7
01:05:03.649,,870,310,-19
01:05:03.686,,865,315,-41
01:05:03.723,,863,293,-84
01:05:03.760,,845,301,-56
01:05:03.797,,833,250,-19
01:05:03.834,,884,290,-21
01:05:03.871,,951,377,-1
01:05:03.908,,1213,282,123
01:05:03.945,,1082,162,69
01:05:03.982,,1009,226,13
01:05:04.019,,999,108,-24
01:05:04.056,,1069,264,-71
01:05:04.093,,1027,226,-27
01:05:04.130,,945,229,-3
01:05:04.167,,935,144,-56
01:05:04.204,,969,92,-98
01:05:04.241,,1004,171,-118
01:05:04.278,,1004,264,-146
01:05:04.315,,980,333,-147
01:05:04.352,,948,318,-159
01:05:04.389,,951,259,-198
01:05:04.426,,944,248,-199
01:05:04.463,,991,264,-203
01:05:04.500,,995,303,-220
01:05:04.537,,904,324,-191
01:05:04.575,,878,341,-179
01:05:04.612,,895,394,-172
01:05:04.649,,844,444,-181
01:05:04.686,,777,501,-203
01:05:04.723,,734,556,-179
01:05:04.760,,702,569,-204
01:05:04.797,,727,475,-299
01:05:04.834,,694,401,-436
01:05:04.871,,616,449,-559
01:05:04.908,,568,536,-634
01:05:04.945,,605,519,-701
01:05:04.982,,680,373,-759
01:05:05.019,,706,326,-715
01:05:05.056,,691,338,-668
01:05:05.093,,683,306,-704
01:05:05.130,,643,279,-691
01:05:05.167,,608,247,-677
01:05:05.204,,571,244,-692
01:05:05.241,,526,154,-670
01:05:05.278,,589,72,-586
01:05:05.315,,439,299,-803
01:05:05.352,,508,85,-888
01:05:05.389,,468,106,-800
01:05:05.426,,458,214,-761
01:05:05.463,,433,222,-898
01:05:05.500,,469,151,-835
01:05:05.538,,443,42,-873
01:05:05.575,,518,396,-812
01:05:05.612,,400,167,-722
01:05:05.649,,461,302,-756
01:05:05.686,,527,231,-846
01:05:05.723,,473,357,-802
01:05:05.760,,457,305,-810
01:05:05.797,,438,294,-829
01:05:05.834,,419,284,-787
01:05:05.871,,439,272,-814
01:05:05.908,,455,299,-805
01:05:05.945,,498,306,-785
