Sensors' Acquisition [Hz]: Acc@26.0 
hh:mm:ss.ms, Annotation , AccX [mg], AccY, AccZ
00:37:30.339,,895,442,28
00:37:30.376,,833,440,97
00:37:30.399,>Walk,,,
00:37:30.413,,752,485,174
00:37:30.450,,711,486,207
00:37:30.487,,705,465,222
00:37:30.524,,802,488,242
00:37:30.561,,894,501,226
00:37:30.598,,871,490,216
00:37:30.635,,795,475,211
00:37:30.672,,1012,499,184
00:37:30.709,,1318,529,124
00:37:30.746,,1177,450,40
00:37:30.783,,1005,434,86
00:37:30.820,,821,482,59
00:37:30.857,,686,436,13
00:37:30.894,,729,387,1
00:37:30.932,,959,480,-19
00:37:30.969,,1065,572,-63
00:37:31.006,,1019,466,-86
00:37:31.043,,969,363,-97
00:37:31.080,,937,455,-26
00:37:31.117,,903,573,-5
00:37:31.154,,853,668,66
00:37:31.191,,767,707,134
00:37:31.228,,668,713,232
00:37:31.265,,509,654,273
00:37:31.302,,401,572,288
00:37:31.339,,392,582,315
00:37:31.376,,463,580,315
00:37:31.413,,636,577,221
00:37:31.450,,702,592,180
00:37:31.487,,676,493,209
00:37:31.524,,844,430,176
00:37:31.561,,959,453,139
00:37:31.598,,992,426,85
00:37:31.635,,1020,467,76
00:37:31.673,,1067,539,68
00:37:31.710,,976,472,60
00:37:31.747,,867,407,97
00:37:31.784,,839,371,190
00:37:31.821,,906,261,211
00:37:31.858,,791,191,-4
00:37:31.895,,673,500,-37
00:37:31.932,,696,772,79
00:37:31.969,,753,783,-11
00:37:32.006,,772,701,-141
00:37:32.043,,830,542,-191
00:37:32.080,,803,609,-175
00:37:32.117,,904,649,-153
00:37:32.154,,1127,518,-171
00:37:32.191,,1236,489,-174
00:37:32.228,,1152,549,-103
00:37:32.265,,838,459,-80
00:37:32.302,,721,424,-99
00:37:32.340,,891,455,-143
00:37:32.377,,999,432,-173
00:37:32.414,,920,426,-152
00:37:32.451,,819,406,-228
00:37:32.488,,818,545,-286
00:37:32.525,,831,588,-290
00:37:32.562,,789,464,-298
00:37:32.599,,730,419,-294
00:37:32.636,,694,448,-312
00:37:32.673,,639,416,-331
00:37:32.710,,578,449,-280
00:37:32.747,,621,530,-220
00:37:32.784,,911,647,-258
00:37:32.821,,919,733,-313
00:37:32.858,,643,638,-38
00:37:32.895,,772,557,116
00:37:32.932,,967,444,11
00:37:32.969,,981,219,40
00:37:33.006,,977,260,185
00:37:33.043,,1016,447,169
00:37:33.081,,924,494,92
00:37:33.118,,812,461,81
00:37:33.155,,756,421,84
00:37:33.192,,768,415,90
00:37:33.229,,745,460,128
00:37:33.266,,719,481,190
00:37:33.303,,686,508,235
00:37:33.340,,721,508,272
00:37:33.377,,862,445,219
00:37:33.414,,935,401,141
00:37:33.451,,1005,429,135
00:37:33.488,,1122,520,118
00:37:33.525,,1124,534,25
00:37:33.562,,1138,483,35
00:37:33.599,,917,507,102
00:37:33.636,,692,462,113
00:37:33.673,,789,440,49
00:37:33.711,,974,487,5
00:37:33.748,,948,455,-9
00:37:33.785,,822,358,8
00:37:33.822,,792,363,40
00:37:33.859,,818,410,26
00:37:33.896,,841,366,14
00:37:33.933,,802,335,29
00:37:33.970,,800,350,23
00:37:34.007,,892,401,30
00:37:34.044,,1057,423,66
00:37:34.081,,1321,446,-6
00:37:34.118,,1074,484,86
00:37:34.155,,820,445,270
00:37:34.192,,813,378,208
00:37:34.229,,825,314,101
00:37:34.266,,842,361,129
00:37:34.303,,886,427,167
00:37:34.341,,777,379,159
00:37:34.378,,719,332,131
00:37:34.415,,744,368,78
00:37:34.452,,789,399,66
00:37:34.489,,791,435,111
00:37:34.526,,765,442,137
00:37:34.563,,777,459,154
00:37:34.600,,839,455,173
00:37:34.637,,922,440,178
00:37:34.674,,935,363,116
00:37:34.711,,944,317,84
00:37:34.748,,1118,361,29
00:37:34.785,,1241,507,-40
00:37:34.822,,1086,564,-38
00:37:34.859,,770,477,86
00:37:34.896,,719,436,184
00:37:34.933,,886,390,96
00:37:34.971,,1041,301,2
00:37:35.008,,976,236,19
00:37:35.045,,858,154,68
00:37:35.082,,849,69,40
00:37:35.119,,910,58,-92
00:37:35.156,,942,130,-144
00:37:35.193,,908,234,-160
00:37:35.230,,885,345,-156
00:37:35.267,,857,622,-208
00:37:35.304,,660,1069,-477
00:37:35.341,,874,629,-680
00:37:35.378,,1093,52,-432
00:37:35.415,,1130,-13,-220
00:37:35.452,,1208,363,-223
00:37:35.489,,1082,383,-78
00:37:35.526,,995,9,22
00:37:35.563,,1062,-140,-18
00:37:35.601,,978,-223,-229
00:37:35.638,,955,44,-294
00:37:35.675,,1060,-1,-210
00:37:35.712,,1008,-62,-168
00:37:35.749,,917,104,-156
00:37:35.786,,949,167,-76
00:37:35.823,,922,168,-66
00:37:35.860,,854,217,-70
00:37:35.897,,830,323,-49
00:37:35.934,,819,370,4
00:37:35.971,,852,355,12
00:37:36.008,,913,391,-1
00:37:36.045,,959,381,-43
00:37:36.082,,966,372,-27
00:37:36.119,,1132,436,-23
00:37:36.156,,1217,549,-85
00:37:36.193,,970,378,-172
00:37:36.230,,732,372,-73
00:37:36.267,,690,488,-83
00:37:36.305,,899,616,-209
00:37:36.342,,1060,629,-258
00:37:36.379,,1045,528,-266
00:37:36.416,,1006,429,-221
00:37:36.453,,987,455,-165
00:37:36.490,,977,479,-167
00:37:36.527,,943,416,-159
00:37:36.564,,865,399,-122
00:37:36.601,,765,438,-157
00:37:36.638,,637,411,-164
00:37:36.675,,513,365,-46
00:37:36.712,,454,386,50
00:37:36.749,,517,471,222
00:37:36.786,,830,557,288
00:37:36.823,,1168,559,224
00:37:36.860,,1164,513,369
00:37:36.897,,1089,422,470
00:37:36.935,,1171,327,342
00:37:36.972,,1155,270,190
00:37:37.009,,1053,309,137
00:37:37.046,,904,444,100
00:37:37.083,,790,472,21
00:37:37.120,,716,427,-37
00:37:37.157,,673,418,-133
00:37:37.194,,657,432,-137
00:37:37.231,,735,519,-82
00:37:37.268,,774,527,53
00:37:37.305,,786,595,236
00:37:37.342,,845,582,440
00:37:37.379,,956,460,372
00:37:37.416,,999,422,324
00:37:37.453,,1203,553,359
00:37:37.490,,1211,470,212
00:37:37.528,,942,385,15
00:37:37.565,,787,503,43
00:37:37.602,,714,598,-8
00:37:37.639,,900,524,-93
00:37:37.676,,1022,486,-202
00:37:37.713,,916,433,-186
00:37:37.750,,731,327,-247
00:37:37.787,,775,429,-208
00:37:37.824,,799,568,-244
00:37:37.861,,828,601,-222
00:37:37.898,,849,567,-181
00:37:37.935,,803,519,-159
00:37:37.972,,764,533,-126
00:37:38.009,,743,563,-85
00:37:38.046,,738,587,35
00:37:38.083,,998,581,51
00:37:38.120,,959,671,144
00:37:38.157,,666,374,132
00:37:38.194,,714,273,207
00:37:38.232,,954,402,153
00:37:38.269,,973,466,86
00:37:38.306,,940,537,159
00:37:38.343,,842,513,100
00:37:38.380,,795,396,28
00:37:38.417,,819,386,43
00:37:38.454,,811,453,60
00:37:38.491,,783,501,97
00:37:38.528,,765,496,107
00:37:38.565,,849,498,216
00:37:38.602,,917,361,239
00:37:38.639,,830,429,239
00:37:38.676,,795,559,200
00:37:38.713,,1117,659,82
00:37:38.750,,1242,686,40
00:37:38.787,,957,475,8
00:37:38.824,,826,494,-19
00:37:38.861,,833,528,-16
00:37:38.899,,905,476,-75
00:37:38.936,,1123,523,-157
00:37:38.973,,1124,505,-142
00:37:39.010,,927,357,-77
00:37:39.047,,862,361,-43
00:37:39.084,,932,475,-7
00:37:39.121,,863,535,40
00:37:39.158,,733,600,114
00:37:39.195,,654,667,141
00:37:39.232,,582,639,159
00:37:39.269,,555,663,279
00:37:39.306,,547,696,459
00:37:39.343,,522,567,444
00:37:39.380,,586,612,406
00:37:39.417,,785,597,298
00:37:39.454,,793,523,293
00:37:39.491,,696,547,410
00:37:39.528,,648,470,355
00:37:39.566,,678,350,228
00:37:39.603,,780,350,147
00:37:39.640,,770,414,149
00:37:39.677,,749,445,181
00:37:39.714,,770,415,151
00:37:39.751,,864,426,119
00:37:39.788,,948,506,142
00:37:39.825,,981,610,203
00:37:39.862,,993,627,192
00:37:39.899,,912,640,224
00:37:39.936,,904,656,266
00:37:39.973,,939,624,227
00:37:40.010,,1148,640,165
00:37:40.047,,1217,711,151
00:37:40.084,,806,597,186
00:37:40.121,,735,555,153
00:37:40.158,,837,624,35
00:37:40.196,,988,650,-6
00:37:40.233,,1075,581,-108
00:37:40.270,,942,554,12
00:37:40.307,,939,723,-4
00:37:40.344,,1047,597,-94
00:37:40.381,,1001,583,-7
00:37:40.418,,866,464,71
00:37:40.455,,726,451,155
00:37:40.492,,632,453,236
00:37:40.529,,616,442,278
00:37:40.566,,671,530,297
00:37:40.603,,877,473,216
00:37:40.640,,1077,630,32
00:37:40.677,,928,1056,245
00:37:40.714,,902,834,231
00:37:40.751,,818,508,126
00:37:40.788,,663,361,102
00:37:40.826,,463,383,130
00:37:40.863,,422,430,86
00:37:40.900,,508,435,1
00:37:40.937,,558,563,-20
00:37:40.974,,615,835,-62
00:37:41.011,,675,839,-123
00:37:41.048,,854,724,-68
00:37:41.085,,802,747,-105
00:37:41.122,,805,539,-94
00:37:41.159,,1035,530,-132
00:37:41.196,,1103,722,-90
00:37:41.233,,852,518,93
00:37:41.270,,845,740,170
00:37:41.307,,1119,735,-75
00:37:41.344,,994,674,-139
00:37:41.381,,648,650,-12
00:37:41.418,,570,584,89
00:37:41.456,,675,645,-82
00:37:41.493,,788,714,-163
00:37:41.530,,785,708,-147
00:37:41.567,,800,720,-206
00:37:41.604,,743,780,-211
00:37:41.641,,647,764,-226
00:37:41.678,,624,742,-185
00:37:41.715,,671,708,-159
00:37:41.752,,764,690,-156
00:37:41.789,,967,610,-53
00:37:41.826,,1197,557,-83
00:37:41.863,,1111,652,12
00:37:41.900,,885,568,227
00:37:41.937,,797,484,244
00:37:41.974,,829,350,130
00:37:42.011,,900,162,55
00:37:42.048,,840,143,42
00:37:42.085,,664,216,17
00:37:42.123,,555,300,18
00:37:42.160,,560,351,5
00:37:42.197,,676,427,-42
00:37:42.234,,835,471,-26
00:37:42.271,,931,498,40
00:37:42.308,,973,540,117
00:37:42.345,,1073,531,158
00:37:42.382,,1055,438,129
00:37:42.419,,1192,498,169
00:37:42.456,,1216,682,215
00:37:42.493,,1015,632,125
00:37:42.530,,882,460,81
00:37:42.567,,794,473,62
00:37:42.604,,895,567,34
00:37:42.641,,999,608,11
00:37:42.678,,926,546,-56
00:37:42.715,,838,559,-82
00:37:42.753,,866,566,-128
00:37:42.790,,940,571,-161
00:37:42.827,,934,636,-135
00:37:42.864,,912,673,-132
00:37:42.901,,839,701,-166
00:37:42.938,,729,717,-116
00:37:42.975,,585,646,-27
00:37:43.012,,434,644,51
00:37:43.049,,491,641,161
00:37:43.086,,672,605,245
00:37:43.123,,748,498,363
00:37:43.160,,699,387,566
00:37:43.197,,753,326,690
00:37:43.234,,896,89,509
00:37:43.271,,962,85,386
00:37:43.308,,947,249,275
00:37:43.346,,903,410,175
00:37:43.383,,859,464,67
00:37:43.420,,871,494,-51
00:37:43.457,,909,505,-127
00:37:43.494,,929,485,-142
00:37:43.531,,905,449,-90
00:37:43.568,,906,392,-56
00:37:43.605,,955,453,-26
00:37:43.642,,994,579,72
00:37:43.679,,948,550,70
00:37:43.716,,1122,537,119
00:37:43.753,,1314,745,160
00:37:43.790,,1035,644,217
00:37:43.827,,663,472,285
00:37:43.864,,682,573,259
00:37:43.901,,957,568,195
00:37:43.938,,1115,523,147
00:37:43.976,,1044,496,104
00:37:44.013,,1006,517,107
00:37:44.050,,1052,512,109
00:37:44.087,,1132,437,112
00:37:44.124,,1149,545,137
00:37:44.161,,1068,586,179
00:37:44.198,,923,453,195
00:37:44.235,,770,381,187
00:37:44.272,,646,340,159
00:37:44.309,,594,333,203
00:37:44.346,,590,334,222
00:37:44.383,,766,377,162
00:37:44.420,,898,411,201
00:37:44.457,,775,385,296
00:37:44.494,,891,500,349
00:37:44.531,,1149,478,275
00:37:44.569,,1123,437,172
00:37:44.606,,971,500,142
00:37:44.643,,894,561,114
00:37:44.680,,841,471,62
00:37:44.717,,836,440,48
00:37:44.754,,826,456,70
00:37:44.791,,805,493,70
00:37:44.828,,767,538,154
00:37:44.865,,727,534,237
00:37:44.902,,783,563,327
00:37:44.939,,943,525,295
00:37:44.976,,1008,510,236
00:37:45.013,,1141,597,240
00:37:45.050,,1128,576,185
00:37:45.087,,977,491,120
00:37:45.124,,965,515,95
00:37:45.161,,985,504,33
00:37:45.199,,1048,511,12
00:37:45.236,,1059,419,-1
00:37:45.273,,1053,521,-10
00:37:45.310,,984,453,-99
00:37:45.347,,1089,678,-59
00:37:45.384,,1127,808,-69
00:37:45.421,,1116,632,50
00:37:45.458,,884,287,214
00:37:45.495,,703,204,402
00:37:45.532,,521,249,466
00:37:45.569,,437,146,503
00:37:45.606,,436,104,503
00:37:45.643,,522,46,455
00:37:45.680,,703,57,341
00:37:45.717,,720,147,362
00:37:45.754,,730,139,356
00:37:45.791,,919,369,320
00:37:45.829,,1041,387,319
00:37:45.866,,1142,338,206
00:37:45.903,,1159,592,226
00:37:45.940,,1050,456,304
00:37:45.977,,948,377,274
00:37:46.014,,929,415,241
00:37:46.051,,929,351,232
00:37:46.088,,915,344,194
00:37:46.125,,870,381,230
00:37:46.162,,806,419,264
00:37:46.199,,868,553,334
00:37:46.236,,928,613,388
00:37:46.273,,1157,595,309
00:37:46.310,,1336,570,290
00:37:46.347,,1110,473,229
00:37:46.384,,930,450,205
00:37:46.421,,901,504,130
00:37:46.459,,979,501,50
00:37:46.496,,1054,469,29
00:37:46.533,,1060,454,23
00:37:46.570,,997,537,17
00:37:46.607,,990,522,-52
00:37:46.644,,976,587,-73
00:37:46.681,,923,596,-51
00:37:46.718,,843,564,-33
00:37:46.755,,755,566,-15
00:37:46.792,,713,477,-22
00:37:46.829,,627,430,-15
00:37:46.866,,588,430,70
00:37:46.903,,722,402,124
00:37:46.940,,834,420,217
00:37:46.977,,775,400,441
00:37:47.014,,865,275,474
00:37:47.051,,1014,87,385
00:37:47.088,,1045,1,325
00:37:47.126,,1018,170,185
00:37:47.163,,982,390,146
00:37:47.200,,902,452,77
00:37:47.237,,895,502,51
00:37:47.274,,910,509,79
00:37:47.311,,955,537,120
00:37:47.348,,948,484,162
00:37:47.385,,929,498,153
00:37:47.422,,916,659,249
00:37:47.459,,936,678,319
00:37:47.496,,938,561,265
00:37:47.533,,1052,541,255
00:37:47.570,,1328,669,241
00:37:47.607,,1121,553,175
00:37:47.644,,852,429,123
00:37:47.681,,952,452,41
00:37:47.719,,1233,488,-30
00:37:47.756,,1367,455,-100
00:37:47.793,,1298,401,-151
00:37:47.830,,1169,401,-155
00:37:47.867,,1113,431,-140
00:37:47.904,,1102,449,-154
00:37:47.941,,1054,424,-136
00:37:47.978,,937,389,-77
00:37:48.015,,790,430,-15
00:37:48.052,,667,394,30
00:37:48.089,,542,319,134
00:37:48.126,,507,292,245
00:37:48.163,,493,288,364
00:37:48.200,,594,370,467
00:37:48.237,,825,270,486
00:37:48.274,,885,232,531
00:37:48.311,,902,178,583
00:37:48.349,,1135,236,469
00:37:48.386,,1149,301,297
00:37:48.423,,1197,351,177
00:37:48.460,,1148,502,114
00:37:48.497,,1029,548,63
00:37:48.534,,921,571,45
00:37:48.571,,897,519,40
00:37:48.608,,884,455,47
00:37:48.645,,820,492,27
00:37:48.682,,734,505,44
00:37:48.719,,723,532,81
00:37:48.756,,772,551,146
00:37:48.793,,891,548,209
00:37:48.830,,1013,475,210
00:37:48.867,,1278,556,214
00:37:48.904,,1095,542,272
00:37:48.941,,909,470,246
00:37:48.978,,853,468,180
00:37:49.015,,832,447,81
00:37:49.053,,940,535,67
00:37:49.090,,1022,526,31
00:37:49.127,,974,463,14
00:37:49.164,,916,534,56
00:37:49.201,,928,576,24
00:37:49.238,,922,641,34
00:37:49.275,,864,602,55
00:37:49.312,,763,615,84
00:37:49.349,,697,581,93
00:37:49.386,,633,561,100
00:37:49.423,,587,510,96
00:37:49.460,,544,509,154
00:37:49.497,,625,433,176
00:37:49.534,,872,477,164
00:37:49.571,,866,354,238
00:37:49.608,,772,499,333
00:37:49.645,,913,485,321
00:37:49.682,,1005,380,200
00:37:49.720,,1019,368,158
00:37:49.757,,979,434,173
00:37:49.794,,885,437,129
00:37:49.831,,825,416,50
00:37:49.868,,829,414,77
00:37:49.905,,814,385,98
00:37:49.942,,791,432,122
00:37:49.979,,734,426,163
00:37:50.016,,740,469,208
00:37:50.053,,857,539,219
00:37:50.090,,925,480,182
00:37:50.127,,1307,615,156
00:37:50.164,,1369,765,133
00:37:50.201,,930,552,139
00:37:50.238,,763,516,154
00:37:50.275,,777,445,106
00:37:50.312,,946,478,90
00:37:50.349,,1057,464,25
00:37:50.387,,965,352,102
00:37:50.424,,911,463,109
00:37:50.461,,939,467,98
00:37:50.498,,946,473,94
00:37:50.535,,895,481,119
00:37:50.572,,842,444,112
00:37:50.609,,808,427,95
00:37:50.646,,777,409,92
00:37:50.683,,780,389,107
00:37:50.720,,897,444,175
00:37:50.757,,1005,435,212
00:37:50.794,,880,399,267
00:37:50.831,,772,417,363
00:37:50.868,,818,360,327
00:37:50.905,,924,370,213
00:37:50.942,,952,415,229
00:37:50.980,,865,445,240
00:37:51.017,,764,442,216
00:37:51.054,,744,401,195
00:37:51.091,,767,401,194
00:37:51.128,,762,428,200
00:37:51.165,,729,452,214
00:37:51.202,,716,486,256
00:37:51.239,,783,515,280
00:37:51.276,,935,497,219
00:37:51.313,,947,496,169
00:37:51.350,,1228,659,204
00:37:51.387,,1233,627,122
00:37:51.424,,901,471,86
00:37:51.461,,814,476,86
00:37:51.498,,898,492,47
00:37:51.535,,1048,500,12
00:37:51.573,,1053,477,-1
00:37:51.610,,897,380,23
00:37:51.647,,892,453,49
00:37:51.684,,908,439,31
00:37:51.721,,866,470,64
00:37:51.758,,789,424,93
00:37:51.795,,740,461,82
00:37:51.832,,695,421,92
00:37:51.869,,660,435,115
00:37:51.906,,598,499,167
00:37:51.943,,764,521,134
00:37:51.980,,904,502,117
00:37:52.017,,891,598,260
00:37:52.054,,848,488,270
00:37:52.091,,976,369,196
00:37:52.128,,1021,356,221
00:37:52.166,,1026,343,220
00:37:52.203,,946,399,240
00:37:52.240,,830,361,210
00:37:52.277,,761,326,137
00:37:52.314,,766,342,114
00:37:52.351,,850,193,129
00:37:52.388,,792,-66,70
00:37:52.425,,799,103,131
00:37:52.462,,952,212,63
00:37:52.499,,1014,260,-95
00:37:52.536,,988,444,-146
00:37:52.573,,916,506,-71
00:37:52.610,,1217,676,-62
00:37:52.647,,1256,648,-35
00:37:52.684,,982,610,94
00:37:52.721,,848,611,265
00:37:52.758,,828,531,278
00:37:52.796,,998,465,305
00:37:52.833,,1071,424,232
00:37:52.870,,993,363,170
00:37:52.907,,935,368,124
00:37:52.944,,909,494,62
00:37:52.981,,936,538,-15
00:37:53.018,,942,537,-77
00:37:53.055,,917,630,-154
00:37:53.092,,852,721,-196
00:37:53.129,,780,714,-240
00:37:53.166,,660,659,-247
00:37:53.203,,552,593,-203
00:37:53.240,,651,573,-213
00:37:53.277,,777,554,-196
00:37:53.314,,540,512,-39
00:37:53.351,,499,563,103
00:37:53.388,,631,559,173
00:37:53.426,,789,498,212
00:37:53.463,,985,386,223
00:37:53.500,,1031,317,247
00:37:53.537,,922,409,402
00:37:53.574,,831,513,461
00:37:53.611,,824,491,343
00:37:53.648,,842,478,278
00:37:53.685,,867,522,221
00:37:53.722,,818,569,123
00:37:53.759,,757,553,20
00:37:53.796,,824,517,-68
00:37:53.833,,943,527,-202
00:37:53.870,,886,424,-286
00:37:53.907,,988,404,-256
00:37:53.944,,1145,403,-363
00:37:53.981,,978,470,-366
00:37:54.018,,758,478,-401
00:37:54.055,,641,301,-568
00:37:54.092,,572,146,-583
00:37:54.130,,814,253,-974
00:37:54.167,,1038,6,-1121
00:37:54.204,,813,-29,-932
00:37:54.241,,427,93,-649
00:37:54.278,,201,251,-448
00:37:54.315,,210,470,-487
00:37:54.352,,254,495,-594
00:37:54.389,,267,410,-920
00:37:54.426,,153,630,-1008
00:37:54.463,,130,589,-954
00:37:54.500,,118,607,-825
00:37:54.537,,203,553,-646
00:37:54.574,,373,380,-469
00:37:54.611,,615,283,-383
00:37:54.648,,968,272,-407
00:37:54.685,,1307,193,-490
00:37:54.722,,1389,161,-516
00:37:54.760,,1062,204,-476
00:37:54.797,,882,188,-556
00:37:54.834,,839,239,-337
00:37:54.871,,904,238,-344
00:37:54.908,,947,384,-380
00:37:54.945,,988,394,-345
00:37:54.982,,1032,396,-383
00:37:55.019,,1004,367,-464
00:37:55.056,,890,145,-566
00:37:55.093,,655,-87,-682
00:37:55.130,,547,-56,-693
00:37:55.167,,617,96,-617
00:37:55.204,,678,206,-502
00:37:55.241,,789,332,-462
00:37:55.278,,859,469,-453
00:37:55.315,,878,571,-395
00:37:55.352,,1120,636,-350
00:37:55.390,,1276,665,-442
00:37:55.427,,936,556,-362
00:37:55.464,,816,558,-159
00:37:55.501,,910,446,-218
00:37:55.538,,1033,349,-294
00:37:55.575,,1001,317,-318
00:37:55.612,,891,313,-298
00:37:55.649,,812,233,-290
00:37:55.686,,790,208,-305
00:37:55.723,,814,229,-346
00:37:55.760,,817,199,-372
00:37:55.797,,797,230,-336
00:37:55.834,,824,406,-322
00:37:55.871,,817,426,-330
00:37:55.908,,768,455,-282
00:37:55.945,,721,493,-228
00:37:55.983,,943,513,-212
00:37:56.020,,1111,642,-287
00:37:56.057,,897,636,-265
00:37:56.094,,736,602,-84
00:37:56.131,,794,568,-66
00:37:56.168,,864,351,-83
00:37:56.205,,933,246,44
00:37:56.242,,901,224,81
00:37:56.279,,806,326,13
00:37:56.316,,789,392,-14
00:37:56.353,,772,420,-16
00:37:56.390,,745,421,31
00:37:56.427,,678,437,79
00:37:56.464,,659,475,159
00:37:56.501,,733,540,240
00:37:56.538,,909,542,244
00:37:56.575,,1004,493,155
00:37:56.612,,1048,538,189
00:37:56.650,,1201,645,166
00:37:56.687,,1019,601,15
00:37:56.724,,784,478,7
00:37:56.761,,874,493,5
00:37:56.798,,1062,565,-55
00:37:56.835,,1123,471,-51
00:37:56.872,,1008,442,-46
00:37:56.909,,941,465,-30
00:37:56.946,,963,463,18
00:37:56.983,,983,514,32
00:37:57.020,,923,555,60
00:37:57.057,,818,569,115
00:37:57.094,,728,577,98
00:37:57.131,,625,499,125
00:37:57.168,,564,486,91
00:37:57.205,,548,486,90
00:37:57.242,,653,490,62
00:37:57.280,,880,495,12
00:37:57.317,,805,472,43
00:37:57.354,,723,501,89
00:37:57.391,,919,533,135
00:37:57.428,,1083,435,84
00:37:57.465,,1061,409,65
00:37:57.502,,958,445,99
00:37:57.539,,875,433,95
00:37:57.576,,848,396,95
00:37:57.613,,853,429,135
00:37:57.650,,777,440,189
00:37:57.687,,710,478,229
00:37:57.724,,716,530,300
00:37:57.761,,789,572,304
00:37:57.798,,914,560,277
00:37:57.835,,959,560,222
00:37:57.872,,920,541,170
00:37:57.910,,1162,647,136
00:37:57.947,,1275,652,31
00:37:57.984,,1014,514,-11
00:37:58.021,,816,475,36
00:37:58.058,,834,531,-2
00:37:58.095,,1029,537,-78
00:37:58.132,,1090,461,-89
00:37:58.169,,970,384,-53
00:37:58.206,,870,366,-82
00:37:58.243,,868,449,-91
00:37:58.280,,871,616,-162
00:37:58.317,,825,612,-194
00:37:58.354,,696,480,-138
00:37:58.391,,618,396,-102
00:37:58.428,,581,345,-81
00:37:58.465,,615,415,-9
00:37:58.503,,851,493,-11
00:37:58.540,,911,553,31
00:37:58.577,,873,522,221
00:37:58.614,,1032,476,227
00:37:58.651,,1083,332,168
00:37:58.688,,1051,263,137
00:37:58.725,,1012,452,170
00:37:58.762,,926,494,110
00:37:58.799,,811,379,53
00:37:58.836,,789,444,109
00:37:58.873,,776,439,125
00:37:58.910,,738,439,132
00:37:58.947,,731,499,194
00:37:58.984,,736,541,264
00:37:59.021,,837,575,334
00:37:59.058,,985,486,252
00:37:59.095,,1023,456,212
00:37:59.132,,1198,554,229
00:37:59.170,,1227,598,152
00:37:59.207,,914,463,93
00:37:59.244,,797,484,131
00:37:59.281,,865,529,90
00:37:59.318,,1045,517,16
00:37:59.355,,1091,498,-2
00:37:59.392,,1009,389,2
00:37:59.429,,939,428,25
00:37:59.466,,934,526,51
00:37:59.503,,965,536,56
00:37:59.540,,889,558,110
00:37:59.577,,791,541,135
00:37:59.614,,668,477,101
00:37:59.651,,483,467,87
00:37:59.688,,358,416,60
00:37:59.726,,353,484,94
00:37:59.763,,523,495,141
00:37:59.800,,800,492,88
00:37:59.837,,981,495,1
00:37:59.874,,935,566,136
00:37:59.911,,1029,628,201
00:37:59.948,,1151,629,122
00:37:59.985,,1085,412,42
00:38:00.022,,998,290,133
00:38:00.059,,969,299,127
00:38:00.096,,882,402,108
00:38:00.133,,805,447,87
00:38:00.170,,679,451,93
00:38:00.207,,597,519,182
00:38:00.244,,645,554,244
00:38:00.281,,717,568,264
00:38:00.319,,870,546,301
00:38:00.356,,997,487,225
00:38:00.393,,983,471,188
00:38:00.430,,1076,555,234
00:38:00.467,,1259,637,171
00:38:00.504,,1027,514,50
00:38:00.541,,797,421,51
00:38:00.578,,760,454,85
00:38:00.615,,891,556,30
00:38:00.652,,1075,567,-25
00:38:00.689,,1021,494,-86
00:38:00.726,,898,458,-42
00:38:00.763,,845,477,1
00:38:00.800,,847,531,-28
00:38:00.837,,842,531,-6
00:38:00.874,,832,504,29
00:38:00.912,,778,479,51
00:38:00.949,,747,455,70
00:38:00.986,,717,456,102
00:38:01.023,,680,447,183
00:38:01.060,,903,426,138
00:38:01.097,,968,518,103
00:38:01.134,,764,469,201
00:38:01.171,,782,431,255
00:38:01.208,,888,438,204
00:38:01.245,,989,379,127
00:38:01.282,,1031,370,139
00:38:01.319,,935,403,181
00:38:01.356,,823,402,154
00:38:01.393,,808,435,154
00:38:01.430,,810,457,178
00:38:01.467,,795,426,170
00:38:01.505,,745,446,217
00:38:01.542,,705,466,256
00:38:01.579,,810,493,278
00:38:01.616,,950,471,212
00:38:01.653,,1052,495,194
00:38:01.690,,1258,603,231
00:38:01.727,,1128,550,156
00:38:01.764,,915,438,118
00:38:01.801,,849,441,96
00:38:01.838,,927,501,60
00:38:01.875,,1029,524,35
00:38:01.912,,1006,463,11
00:38:01.949,,931,403,-5
00:38:01.986,,932,477,-2
00:38:02.023,,969,495,-7
00:38:02.060,,964,704,-15
00:38:02.097,,934,574,10
00:38:02.135,,856,489,63
00:38:02.172,,757,425,85
00:38:02.209,,691,396,150
00:38:02.246,,670,346,232
00:38:02.283,,736,221,212
00:38:02.320,,769,205,170
00:38:02.357,,697,645,227
00:38:02.394,,985,722,159
00:38:02.431,,1082,584,85
00:38:02.468,,1061,362,138
00:38:02.505,,1003,290,220
00:38:02.542,,887,345,137
00:38:02.579,,836,461,119
00:38:02.616,,829,515,134
00:38:02.653,,783,541,138
00:38:02.690,,717,550,217
00:38:02.727,,761,544,267
00:38:02.765,,863,507,275
00:38:02.802,,976,426,249
00:38:02.839,,930,392,200
00:38:02.876,,939,432,194
00:38:02.913,,1160,578,204
00:38:02.950,,1113,612,181
00:38:02.987,,893,450,191
00:38:03.024,,855,423,184
00:38:03.061,,929,482,105
00:38:03.098,,1059,495,56
00:38:03.135,,1035,456,52
00:38:03.172,,955,415,37
00:38:03.209,,927,416,40
00:38:03.246,,946,481,45
00:38:03.283,,915,535,24
00:38:03.320,,790,583,119
00:38:03.357,,576,574,247
00:38:03.395,,409,627,269
00:38:03.432,,394,714,193
00:38:03.469,,487,743,269
00:38:03.506,,547,690,306
00:38:03.543,,743,622,199
00:38:03.580,,830,558,143
00:38:03.617,,610,547,178
00:38:03.654,,620,587,175
00:38:03.691,,717,608,114
00:38:03.728,,690,524,144
00:38:03.765,,753,442,142
00:38:03.802,,809,481,126
00:38:03.839,,800,509,139
00:38:03.876,,770,464,147
00:38:03.913,,804,484,127
00:38:03.950,,854,525,155
00:38:03.987,,847,524,173
00:38:04.024,,853,553,198
00:38:04.062,,854,552,229
00:38:04.099,,841,547,247
00:38:04.136,,898,526,257
00:38:04.173,,970,482,200
00:38:04.210,,953,482,189
00:38:04.247,,1086,552,196
00:38:04.284,,1139,613,158
00:38:04.321,,986,519,118
00:38:04.358,,851,457,96
00:38:04.395,,862,483,56
00:38:04.432,,963,516,13
00:38:04.469,,1053,508,-1
00:38:04.506,,1018,421,-15
00:38:04.543,,937,387,-44
00:38:04.580,,917,446,-37
00:38:04.617,,940,484,-39
00:38:04.654,,897,537,-56
00:38:04.692,,781,594,1
00:38:04.729,,692,610,22
00:38:04.766,,626,566,38
00:38:04.803,,592,563,47
00:38:04.840,,553,587,81
00:38:04.877,,477,549,167
00:38:04.914,,639,520,130
00:38:04.951,,841,578,79
00:38:04.988,,734,555,111
00:38:05.025,,713,519,185
00:38:05.062,,912,595,177
00:38:05.099,,1005,510,148
00:38:05.136,,1034,300,113
00:38:05.173,,1031,322,146
00:38:05.210,,953,409,161
00:38:05.247,,841,416,138
00:38:05.284,,817,431,134
00:38:05.321,,782,434,149
00:38:05.359,,739,435,159
00:38:05.396,,726,468,206
00:38:05.433,,736,477,238
00:38:05.470,,803,476,276
00:38:05.507,,950,436,252
00:38:05.544,,988,403,181
00:38:05.581,,1031,438,184
00:38:05.618,,1228,538,182
00:38:05.655,,1210,582,162
00:38:05.692,,887,438,148
00:38:05.729,,810,421,175
00:38:05.766,,871,477,131
00:38:05.803,,988,465,75
00:38:05.840,,1052,450,55
00:38:05.877,,1012,414,45
00:38:05.914,,914,360,26
00:38:05.951,,905,433,44
00:38:05.988,,927,474,48
00:38:06.026,,879,473,59
00:38:06.063,,764,518,100
00:38:06.100,,653,532,142
00:38:06.137,,556,482,150
00:38:06.174,,450,495,168
00:38:06.211,,380,547,223
00:38:06.248,,440,540,229
00:38:06.285,,702,562,158
00:38:06.322,,822,576,167
00:38:06.359,,881,549,234
00:38:06.396,,1069,588,225
00:38:06.433,,1056,524,123
00:38:06.470,,958,471,117
00:38:06.507,,989,481,183
00:38:06.544,,955,419,182
00:38:06.581,,876,398,161
00:38:06.618,,804,402,129
00:38:06.655,,773,397,134
00:38:06.693,,735,418,166
00:38:06.730,,711,444,220
00:38:06.767,,726,454,266
00:38:06.804,,764,473,311
00:38:06.841,,825,446,333
00:38:06.878,,891,384,278
00:38:06.915,,928,358,205
00:38:06.952,,963,393,165
00:38:06.989,,1171,524,169
00:38:07.026,,1186,571,131
00:38:07.063,,930,444,103
00:38:07.100,,807,430,139
00:38:07.137,,794,482,106
00:38:07.174,,861,462,66
00:38:07.211,,1017,488,43
00:38:07.248,,1043,472,13
00:38:07.285,,908,433,-11
00:38:07.322,,870,486,56
00:38:07.360,,897,541,49
00:38:07.397,,890,585,28
00:38:07.434,,836,591,65
00:38:07.471,,756,622,81
00:38:07.508,,692,633,109
00:38:07.545,,608,610,123
00:38:07.582,,560,619,154
00:38:07.619,,562,598,187
00:38:07.656,,661,560,191
00:38:07.693,,753,565,174
00:38:07.730,,727,571,180
00:38:07.767,,679,535,197
00:38:07.804,,722,483,182
00:38:07.841,,801,421,81
00:38:07.878,,894,367,6
00:38:07.915,,1006,372,55
00:38:07.952,,950,404,136
00:38:07.989,,872,403,209
00:38:08.026,,813,490,233
00:38:08.064,,853,637,248
00:38:08.101,,890,736,259
00:38:08.138,,857,675,152
00:38:08.175,,764,608,99
00:38:08.212,,734,559,94
00:38:08.249,,780,526,94
00:38:08.286,,812,469,47
00:38:08.323,,944,476,52
00:38:08.360,,1341,591,67
00:38:08.397,,1212,583,-28
00:38:08.434,,943,476,69
00:38:08.471,,714,498,172
00:38:08.508,,706,505,101
00:38:08.545,,941,528,40
00:38:08.582,,1042,557,8
00:38:08.619,,959,492,40
00:38:08.656,,933,480,57
00:38:08.693,,935,529,43
00:38:08.731,,900,532,58
00:38:08.768,,849,529,73
00:38:08.805,,804,520,55
00:38:08.842,,760,497,28
00:38:08.879,,719,452,19
00:38:08.916,,695,454,29
00:38:08.953,,671,451,51
00:38:08.990,,842,436,16
00:38:09.027,,978,465,-48
00:38:09.064,,756,443,-2
00:38:09.101,,698,445,109
00:38:09.138,,856,497,170
00:38:09.175,,941,393,173
00:38:09.212,,1032,271,118
00:38:09.249,,1032,409,277
00:38:09.286,,881,433,318
00:38:09.323,,833,446,326
00:38:09.360,,845,417,344
00:38:09.398,,831,451,313
00:38:09.435,,789,456,327
00:38:09.472,,775,435,309
00:38:09.509,,812,427,275
00:38:09.546,,878,427,235
00:38:09.583,,918,400,150
00:38:09.620,,1013,424,105
00:38:09.657,,1164,559,60
00:38:09.694,,1095,618,10
00:38:09.731,,990,587,0
00:38:09.768,,729,623,-21
00:38:09.805,,684,589,-63
00:38:09.842,,866,602,-156
00:38:09.879,,955,625,-174
00:38:09.916,,849,654,-198
00:38:09.953,,742,648,-174
00:38:09.990,,669,594,-146
00:38:10.027,,646,568,-200
00:38:10.065,,575,582,-260
00:38:10.102,,523,602,-314
00:38:10.139,,504,619,-362
00:38:10.176,,532,610,-375
00:38:10.213,,611,572,-372
00:38:10.250,,915,488,-388
00:38:10.287,,1037,592,-409
00:38:10.324,,690,663,-328
00:38:10.361,,691,690,-295
00:38:10.398,,792,508,-235
00:38:10.435,,731,484,-146
00:38:10.472,,674,761,75
00:38:10.509,,638,809,161
00:38:10.546,,615,690,212
00:38:10.583,,630,504,238
00:38:10.620,,712,432,186
00:38:10.657,,726,439,107
00:38:10.694,,732,428,-17
00:38:10.732,,769,498,-77
00:38:10.769,,863,519,-165
00:38:10.806,,951,558,-233
00:38:10.843,,953,527,-227
00:38:10.880,,1174,586,-208
00:38:10.917,,1180,603,-187
00:38:10.954,,1116,616,-105
00:38:10.991,,742,632,-11
00:38:11.028,,603,598,54
00:38:11.065,,832,585,30
00:38:11.102,,939,527,-8
00:38:11.139,,888,486,24
00:38:11.176,,892,519,24
00:38:11.213,,898,510,13
00:38:11.250,,869,483,0
00:38:11.287,,824,441,15
00:38:11.324,,795,418,42
00:38:11.361,,916,457,32
00:38:11.399,,1028,479,15
00:38:11.436,,1194,535,22
00:38:11.473,,981,521,103
00:38:11.510,,800,397,102
00:38:11.547,,751,444,168
00:38:11.584,,646,476,181
00:38:11.621,,559,427,152
00:38:11.658,,585,456,159
00:38:11.695,,592,485,117
00:38:11.732,,619,524,119
00:38:11.769,,598,571,136
00:38:11.806,,588,609,127
00:38:11.843,,646,633,121
00:38:11.880,,691,643,117
00:38:11.917,,723,641,109
00:38:11.954,,984,685,75
00:38:11.991,,1124,734,7
00:38:12.028,,1002,692,5
00:38:12.065,,857,700,68
00:38:12.103,,700,713,44
00:38:12.140,,806,652,-19
00:38:12.177,,948,597,-59
00:38:12.214,,926,547,-81
00:38:12.251,,838,534,-78
00:38:12.288,,827,515,-103
00:38:12.325,,808,487,-128
00:38:12.362,,824,480,-108
00:38:12.399,,854,503,-94
00:38:12.436,,881,584,-105
00:38:12.473,,857,590,-65
00:38:12.510,,767,603,-27
00:38:12.547,,665,575,31
00:38:12.584,,609,526,92
00:38:12.621,,781,533,-11
00:38:12.658,,734,631,66
00:38:12.695,,539,545,322
00:38:12.732,,786,555,299
00:38:12.769,,939,497,95
00:38:12.807,,909,406,198
00:38:12.844,,904,497,266
00:38:12.881,,919,554,143
00:38:12.918,,837,462,121
00:38:12.955,,778,456,154
00:38:12.992,,778,463,132
00:38:13.029,,776,479,99
00:38:13.066,,753,487,76
00:38:13.103,,791,544,86
00:38:13.140,,1004,524,47
00:38:13.177,,1095,516,34
00:38:13.214,,1238,548,46
00:38:13.251,,1114,516,34
00:38:13.288,,878,457,27
00:38:13.325,,797,419,-1
00:38:13.362,,894,389,-40
00:38:13.399,,971,418,-100
00:38:13.436,,891,434,-163
00:38:13.473,,787,515,-246
00:38:13.510,,734,569,-306
00:38:13.548,,742,645,-331
00:38:13.585,,768,668,-292
00:38:13.622,,796,718,-289
00:38:13.659,,746,735,-200
00:38:13.696,,680,669,-23
00:38:13.733,,602,689,231
00:38:13.770,,503,705,455
00:38:13.807,,409,781,521
00:38:13.844,,413,817,890
00:38:13.881,,541,596,761
00:38:13.918,,705,453,429
00:38:13.955,,906,345,270
00:38:13.992,,1124,536,210
00:38:14.029,,1383,715,87
00:38:14.066,,1273,613,-101
00:38:14.103,,1023,431,-145
00:38:14.140,,947,408,-125
00:38:14.177,,1044,473,-161
00:38:14.214,,1059,517,-187
00:38:14.251,,899,485,-197
00:38:14.289,,771,374,-175
00:38:14.326,,709,327,-138
00:38:14.363,,695,332,-137
00:38:14.400,,664,413,-81
00:38:14.437,,698,502,-2
00:38:14.474,,813,632,144
00:38:14.511,,887,634,272
00:38:14.548,,932,537,382
00:38:14.585,,946,506,459
00:38:14.622,,1214,667,464
00:38:14.659,,1206,628,334
00:38:14.696,,975,470,312
00:38:14.733,,830,473,257
00:38:14.770,,801,519,124
00:38:14.807,,972,581,56
00:38:14.844,,1149,602,-29
00:38:14.881,,1084,505,-58
00:38:14.919,,948,519,-35
00:38:14.956,,961,610,-7
00:38:14.993,,990,636,-30
00:38:15.030,,888,663,-18
00:38:15.067,,751,600,37
00:38:15.104,,620,507,68
00:38:15.141,,516,429,69
00:38:15.178,,464,414,102
00:38:15.215,,462,387,113
00:38:15.252,,590,341,36
00:38:15.289,,776,377,-38
00:38:15.326,,836,460,25
00:38:15.363,,986,535,139
00:38:15.400,,1109,635,167
00:38:15.437,,1084,407,-33
00:38:15.474,,1100,276,-36
00:38:15.511,,1100,333,186
00:38:15.548,,1034,455,177
00:38:15.585,,987,525,116
00:38:15.623,,901,450,81
00:38:15.660,,783,463,128
00:38:15.697,,742,512,197
00:38:15.734,,771,574,228
00:38:15.771,,808,619,293
00:38:15.808,,926,563,237
00:38:15.845,,981,459,136
00:38:15.882,,958,424,102
00:38:15.919,,1123,537,114
00:38:15.956,,1209,645,101
00:38:15.993,,986,458,52
00:38:16.030,,858,392,51
00:38:16.067,,933,454,2
00:38:16.104,,1123,480,-50
00:38:16.141,,1223,432,-58
00:38:16.178,,1148,373,-50
00:38:16.215,,1009,405,-28
00:38:16.252,,946,483,26
00:38:16.289,,962,520,30
00:38:16.326,,885,517,17
00:38:16.364,,720,483,69
00:38:16.401,,579,449,85
00:38:16.438,,485,423,88
00:38:16.475,,436,386,103
00:38:16.512,,458,407,143
00:38:16.549,,593,413,135
00:38:16.586,,855,414,30
00:38:16.623,,972,439,-1
00:38:16.660,,1055,532,99
00:38:16.697,,1226,768,224
00:38:16.734,,1168,744,110
00:38:16.771,,1006,412,31
00:38:16.808,,1034,200,220
00:38:16.845,,1013,296,189
00:38:16.882,,934,588,105
00:38:16.919,,826,459,131
00:38:16.956,,706,414,120
00:38:16.993,,699,485,170
00:38:17.030,,732,486,188
00:38:17.067,,753,518,227
00:38:17.105,,856,498,254
00:38:17.142,,934,420,188
00:38:17.179,,971,370,117
00:38:17.216,,1151,436,88
00:38:17.253,,1220,565,92
00:38:17.290,,1000,465,73
00:38:17.327,,913,431,80
00:38:17.364,,828,476,54
00:38:17.401,,870,438,7
00:38:17.438,,1015,485,2
00:38:17.475,,1050,462,-29
00:38:17.512,,955,421,-53
00:38:17.549,,926,520,13
00:38:17.586,,945,562,-15
00:38:17.623,,910,622,-3
00:38:17.660,,850,650,30
00:38:17.697,,735,628,52
00:38:17.734,,611,620,65
00:38:17.772,,497,596,109
00:38:17.809,,438,587,130
00:38:17.846,,397,610,169
00:38:17.883,,429,581,181
00:38:17.920,,568,552,94
00:38:17.957,,644,565,52
00:38:17.994,,591,548,92
00:38:18.031,,669,518,157
00:38:18.068,,913,539,188
00:38:18.105,,1074,456,42
00:38:18.142,,1136,373,33
00:38:18.179,,1093,450,173
00:38:18.216,,970,459,188
00:38:18.253,,884,438,171
00:38:18.290,,856,436,147
00:38:18.327,,826,444,135
00:38:18.364,,803,460,168
00:38:18.401,,782,496,188
00:38:18.438,,748,510,225
00:38:18.476,,800,496,255
00:38:18.513,,896,450,212
00:38:18.550,,959,423,138
00:38:18.587,,1203,510,123
00:38:18.624,,1277,607,114
00:38:18.661,,943,437,67
00:38:18.698,,872,415,82
00:38:18.735,,868,485,51
00:38:18.772,,969,465,12
00:38:18.809,,1078,476,-13
00:38:18.846,,1030,460,-41
00:38:18.883,,945,421,-52
00:38:18.920,,913,448,-17
00:38:18.957,,911,509,-38
00:38:18.994,,878,533,-34
00:38:19.031,,798,567,2
00:38:19.068,,697,566,3
00:38:19.105,,591,515,12
00:38:19.143,,520,512,49
00:38:19.180,,524,554,99
00:38:19.217,,542,550,138
00:38:19.254,,603,529,102
00:38:19.291,,789,531,76
00:38:19.328,,961,551,76
00:38:19.365,,952,536,129
00:38:19.402,,980,568,253
00:38:19.439,,972,393,184
00:38:19.476,,909,333,145
00:38:19.513,,978,463,206
00:38:19.550,,973,603,248
00:38:19.587,,822,577,185
00:38:19.624,,707,503,181
00:38:19.661,,675,494,132
00:38:19.698,,674,530,127
00:38:19.735,,686,540,125
00:38:19.772,,683,634,149
00:38:19.809,,672,689,119
00:38:19.847,,778,941,-30
00:38:19.884,,867,1159,-100
00:38:19.921,,840,1309,-131
00:38:19.958,,830,1251,-295
00:38:19.995,,767,1400,-460
00:38:20.032,,535,1181,-368
00:38:20.069,,310,920,-228
00:38:20.106,,229,907,-248
00:38:20.143,,226,890,-247
00:38:20.180,,270,665,-261
00:38:20.217,,186,835,-262
00:38:20.254,,147,1240,-360
00:38:20.291,,154,1189,-355
00:38:20.328,,49,1128,-297
00:38:20.365,,-93,801,-366
00:38:20.402,,-174,566,-315
00:38:20.439,,-225,246,-278
00:38:20.476,,-290,-118,-203
00:38:20.513,,-511,-431,-151
00:38:20.550,,-762,-178,-207
00:38:20.588,,-1083,229,-152
00:38:20.625,,-1203,284,-146
00:38:20.662,,-1191,238,-266
00:38:20.699,,-1180,354,-361
00:38:20.736,,-1068,397,-333
00:38:20.773,,-865,269,-231
00:38:20.810,,-674,25,-109
00:38:20.847,,-544,-120,-56
00:38:20.884,,-454,-118,-65
00:38:20.921,,-361,-125,-268
00:38:20.958,,-271,-180,-678
00:38:20.995,,-129,-129,-1156
00:38:21.032,,-44,394,-1478
00:38:21.069,,66,231,-882
00:38:21.106,,224,-107,-1329
00:38:21.143,,374,-100,-1852
00:38:21.180,,398,11,-1789
00:38:21.217,,393,29,-1740
00:38:21.255,,309,271,-1463
00:38:21.292,,292,420,-1378
00:38:21.329,,449,357,-1642
00:38:21.366,,503,382,-1457
00:38:21.403,,331,505,-1125
00:38:21.440,,139,516,-646
00:38:21.477,,23,338,-326
00:38:21.514,,-13,252,-239
00:38:21.551,,-136,-38,-130
00:38:21.588,,-292,-236,-247
00:38:21.625,,-428,-406,-377
00:38:21.662,,-418,-232,-740
00:38:21.699,,-481,-140,-1479
00:38:21.736,,-541,-58,-1736
00:38:21.773,,-538,245,-1431
00:38:21.810,,-501,1120,-858
00:38:21.847,,-388,1450,-151
00:38:21.885,,-89,876,229
00:38:21.922,,-52,561,761
00:38:21.959,,-134,873,338
00:38:21.996,,-48,1184,-361
00:38:22.033,,47,1550,-490
00:38:22.070,,295,1010,-112
00:38:22.107,,-69,454,-422
00:38:22.144,,-753,835,-933
00:38:22.181,,-1054,1102,-638
00:38:22.218,,-804,1000,-42
00:38:22.255,,-568,303,244
00:38:22.292,,-395,-491,151
00:38:22.329,,-198,-723,-123
00:38:22.366,,7,-3,-373
00:38:22.403,,138,439,-923
00:38:22.440,,272,456,-1692
00:38:22.477,,643,569,-1616
00:38:22.514,,567,1317,-1439
00:38:22.551,,319,1125,-1016
00:38:22.588,,166,808,-629
00:38:22.626,,42,932,-382
00:38:22.663,,41,1054,-280
00:38:22.700,,129,892,-209
00:38:22.737,,210,806,-129
00:38:22.774,,286,584,-64
00:38:22.811,,385,394,28
00:38:22.848,,547,296,109
00:38:22.885,,807,304,127
00:38:22.922,,1286,492,-12
00:38:22.959,,1756,822,-23
00:38:22.996,,1519,1155,224
00:38:23.033,,1010,867,33
00:38:23.070,,813,360,86
00:38:23.107,,969,-17,185
00:38:23.144,,891,231,188
00:38:23.181,,915,744,78
00:38:23.218,,625,580,62
00:38:23.255,,516,502,97
00:38:23.292,,571,471,102
00:38:23.330,,689,479,120
00:38:23.367,,696,459,143
00:38:23.404,,792,399,210
00:38:23.441,,1007,575,148
00:38:23.478,,1396,702,-12
00:38:23.515,,1275,540,-78
00:38:23.552,,987,441,-46
00:38:23.589,,794,432,-19
00:38:23.626,,787,588,-40
00:38:23.663,,943,661,-111
00:38:23.700,,967,598,-185
00:38:23.737,,860,578,-136
00:38:23.774,,810,541,-103
00:38:23.811,,800,562,-120
00:38:23.848,,777,563,-95
00:38:23.885,,769,474,-86
00:38:23.922,,878,476,-47
00:38:23.959,,905,425,-36
00:38:23.997,,1058,338,-125
00:38:24.034,,915,372,-84
00:38:24.071,,725,458,121
00:38:24.108,,710,458,184
00:38:24.145,,767,409,127
00:38:24.182,,806,319,93
00:38:24.219,,885,385,119
00:38:24.256,,877,461,157
00:38:24.293,,809,443,143
00:38:24.330,,809,467,160
00:38:24.367,,843,510,150
00:38:24.404,,848,523,165
00:38:24.441,,834,516,206
00:38:24.478,,798,557,236
00:38:24.515,,872,584,299
00:38:24.552,,1023,509,208
00:38:24.589,,1071,490,147
00:38:24.626,,1195,576,158
00:38:24.663,,1120,607,116
00:38:24.701,,971,516,72
00:38:24.738,,860,474,41
00:38:24.775,,909,511,-3
00:38:24.812,,1035,587,-33
00:38:24.849,,1058,551,-34
00:38:24.886,,933,522,-73
00:38:24.923,,887,531,-49
00:38:24.960,,917,542,-46
00:38:24.997,,908,592,-78
00:38:25.034,,825,586,-50
00:38:25.071,,734,550,-27
00:38:25.108,,656,486,-11
00:38:25.145,,567,459,-28
00:38:25.182,,504,431,-9
00:38:25.219,,496,443,61
00:38:25.256,,656,445,125
00:38:25.293,,904,444,94
00:38:25.330,,853,419,127
00:38:25.367,,794,441,276
00:38:25.405,,1005,542,290
00:38:25.442,,1161,570,207
00:38:25.479,,1129,497,169
00:38:25.516,,1024,465,229
00:38:25.553,,933,415,188
00:38:25.590,,864,428,119
00:38:25.627,,839,481,114
00:38:25.664,,804,545,89
00:38:25.701,,740,599,152
00:38:25.738,,708,547,192
00:38:25.775,,727,550,224
00:38:25.812,,895,526,193
00:38:25.849,,989,487,126
00:38:25.886,,1033,504,107
00:38:25.923,,1072,582,114
00:38:25.960,,1014,564,99
00:38:25.997,,1037,518,66
00:38:26.034,,907,525,35
00:38:26.071,,805,507,1
00:38:26.109,,983,510,-30
00:38:26.146,,1137,515,-33
00:38:26.183,,1043,463,-64
00:38:26.220,,950,508,-52
00:38:26.257,,965,543,-27
00:38:26.294,,963,575,-80
00:38:26.331,,865,649,-50
00:38:26.368,,723,635,-20
00:38:26.405,,611,537,-22
00:38:26.442,,504,487,15
00:38:26.479,,469,471,53
00:38:26.516,,476,451,99
00:38:26.553,,606,452,116
00:38:26.590,,809,451,75
00:38:26.627,,837,429,126
00:38:26.664,,789,418,174
00:38:26.701,,957,515,171
00:38:26.738,,1119,547,130
00:38:26.776,,1168,500,105
00:38:26.813,,1090,502,203
00:38:26.850,,996,428,189
00:38:26.887,,935,415,126
00:38:26.924,,898,445,125
00:38:26.961,,847,488,139
00:38:26.998,,761,531,180
00:38:27.035,,718,535,215
00:38:27.072,,707,538,228
00:38:27.109,,827,529,263
00:38:27.146,,955,475,192
00:38:27.183,,962,438,143
00:38:27.220,,955,440,104
00:38:27.257,,1075,538,84
00:38:27.294,,1127,605,85
00:38:27.331,,992,513,52
00:38:27.368,,882,452,12
00:38:27.405,,842,464,-7
00:38:27.442,,935,481,-33
00:38:27.480,,1107,502,-73
00:38:27.517,,1117,460,-110
00:38:27.554,,1006,414,-125
00:38:27.591,,948,470,-86
00:38:27.628,,923,506,-99
00:38:27.665,,879,581,-70
00:38:27.702,,779,641,-8
00:38:27.739,,654,749,119
00:38:27.776,,528,742,241
00:38:27.813,,404,649,290
00:38:27.850,,326,607,274
00:38:27.887,,281,611,286
00:38:27.924,,283,577,343
00:38:27.961,,419,501,268
00:38:27.998,,637,482,126
00:38:28.035,,760,581,90
00:38:28.072,,705,544,142
00:38:28.109,,887,514,118
00:38:28.147,,1121,587,16
00:38:28.184,,1107,541,-30
00:38:28.221,,1062,477,24
00:38:28.258,,1008,415,84
00:38:28.295,,933,387,63
00:38:28.332,,924,440,81
00:38:28.369,,866,479,74
00:38:28.406,,780,548,136
00:38:28.443,,750,549,244
00:38:28.480,,759,593,301
00:38:28.517,,818,606,370
00:38:28.554,,935,496,311
00:38:28.591,,981,420,220
00:38:28.628,,918,429,170
00:38:28.665,,956,516,133
00:38:28.702,,1151,658,119
00:38:28.739,,1121,625,66
00:38:28.776,,943,487,11
00:38:28.814,,895,509,0
00:38:28.851,,877,527,-41
00:38:28.888,,994,525,-60
00:38:28.925,,1128,512,-102
00:38:28.962,,1100,465,-99
00:38:28.999,,953,463,-104
00:38:29.036,,877,553,-36
00:38:29.073,,857,577,-25
00:38:29.110,,783,573,-41
00:38:29.147,,673,544,-11
00:38:29.184,,594,490,-14
00:38:29.221,,501,499,-67
00:38:29.258,,454,604,-113
00:38:29.295,,421,627,-161
00:38:29.332,,510,665,-202
00:38:29.369,,630,761,-172
00:38:29.406,,655,840,-66
00:38:29.443,,600,867,0
00:38:29.481,,676,950,65
00:38:29.518,,999,1530,1547
00:38:29.555,,725,800,502
00:38:29.592,,620,570,-230
00:38:29.629,,571,605,-310
00:38:29.666,,498,428,-337
00:38:29.703,,360,661,-349
00:38:29.740,,332,904,-264
00:38:29.777,,396,1051,191
00:38:29.814,,566,887,652
00:38:29.851,,464,788,16
00:38:29.888,,674,940,106
00:38:29.925,,648,746,161
00:38:29.962,,648,819,162
00:38:29.999,,841,1043,174
00:38:30.036,,665,1181,229
00:38:30.073,,547,948,-96
00:38:30.110,,435,577,-104
00:38:30.147,,352,524,-38
00:38:30.184,,419,766,118
00:38:30.222,,466,945,214
00:38:30.259,,398,996,138
00:38:30.296,,375,733,188
00:38:30.333,,385,591,264
00:38:30.370,,388,657,227
00:38:30.407,,392,698,274
00:38:30.444,,431,666,401
00:38:30.481,,571,605,401
00:38:30.518,,652,566,198
00:38:30.555,,590,839,30
00:38:30.592,,597,900,13
00:38:30.629,,820,705,-56
00:38:30.666,,937,725,-69
00:38:30.703,,855,693,66
00:38:30.740,,1002,616,159
00:38:30.777,,1069,564,38
00:38:30.814,,998,409,-89
00:38:30.852,,958,344,-75
00:38:30.889,,873,359,-37
00:38:30.926,,795,365,-53
00:38:30.963,,757,395,-42
00:38:31.000,,724,385,-34
00:38:31.037,,683,402,-17
00:38:31.074,,639,389,39
00:38:31.111,,644,496,105
00:38:31.148,,776,593,248
00:38:31.185,,927,570,259
00:38:31.222,,1045,495,227
00:38:31.259,,1267,592,272
00:38:31.296,,1152,611,152
00:38:31.333,,907,559,102
00:38:31.370,,796,562,84
00:38:31.407,,817,616,-20
00:38:31.444,,1026,617,-44
00:38:31.481,,1112,604,-93
00:38:31.519,,1009,519,-93
00:38:31.556,,945,504,-111
00:38:31.593,,902,586,-115
00:38:31.630,,849,626,-120
00:38:31.667,,790,647,-149
00:38:31.704,,709,669,-144
00:38:31.741,,677,685,-138
00:38:31.778,,645,643,-100
00:38:31.815,,638,612,-38
00:38:31.852,,677,551,-11
00:38:31.889,,874,516,-25
00:38:31.926,,621,559,136
00:38:31.963,,511,442,302
00:38:32.000,,620,412,227
00:38:32.037,,689,431,167
00:38:32.074,,739,434,159
00:38:32.111,,792,529,181
00:38:32.149,,877,615,143
00:38:32.186,,857,582,122
00:38:32.223,,854,558,109
00:38:32.260,,794,575,88
00:38:32.297,,790,601,111
00:38:32.334,,784,621,126
00:38:32.371,,788,603,136
00:38:32.408,,883,597,133
00:38:32.445,,894,624,142
00:38:32.482,,808,619,159
00:38:32.519,,804,621,139
00:38:32.556,,946,672,100
00:38:32.593,,942,627,29
00:38:32.630,,899,598,-20
00:38:32.667,,909,636,-35
00:38:32.704,,837,617,-51
00:38:32.741,,873,568,-74
00:38:32.778,,1024,614,-71
00:38:32.815,,1008,539,-55
00:38:32.853,,867,482,-26
00:38:32.890,,778,446,-21
00:38:32.927,,758,542,-15
00:38:32.964,,703,598,11
00:38:33.001,,611,616,49
00:38:33.038,,496,617,110
00:38:33.075,,440,624,133
00:38:33.112,,429,619,152
00:38:33.149,,505,623,148
00:38:33.186,,809,624,8
00:38:33.223,,922,725,81
00:38:33.260,,852,748,272
00:38:33.297,,851,597,178
00:38:33.334,,633,305,3
00:38:33.371,,677,175,37
00:38:33.408,,1336,363,127
00:38:33.445,,1304,646,-65
00:38:33.482,,848,422,-88
00:38:33.520,,637,339,56
00:38:33.557,,606,438,73
00:38:33.594,,636,514,32
00:38:33.631,,680,495,61
00:38:33.668,,690,556,130
00:38:33.705,,839,600,166
00:38:33.742,,1031,594,104
00:38:33.779,,1014,615,96
00:38:33.816,,1092,704,181
00:38:33.853,,1108,719,118
00:38:33.890,,971,635,53
00:38:33.927,,872,654,110
00:38:33.964,,843,690,87
00:38:34.001,,1027,655,18
00:38:34.038,,1158,602,0
00:38:34.075,,993,512,19
00:38:34.112,,821,439,59
00:38:34.149,,817,464,30
00:38:34.186,,830,476,-2
00:38:34.223,,819,410,-7
00:38:34.261,,756,360,-15
00:38:34.298,,735,335,-16
00:38:34.335,,746,335,-32
00:38:34.372,,719,346,-27
00:38:34.409,,820,371,-25
00:38:34.446,,1017,442,-40
00:38:34.483,,885,501,134
00:38:34.520,,716,507,332
00:38:34.557,,937,541,372
00:38:34.594,,1163,488,297
00:38:34.631,,1109,447,335
00:38:34.668,,820,408,143
00:38:34.705,,775,438,74
00:38:34.742,,778,472,28
00:38:34.779,,759,537,35
00:38:34.816,,695,541,90
00:38:34.853,,647,512,89
00:38:34.890,,744,566,161
00:38:34.927,,917,545,126
00:38:34.964,,971,545,77
00:38:35.001,,1095,623,116
00:38:35.039,,1179,652,90
00:38:35.076,,935,523,39
00:38:35.113,,861,499,47
00:38:35.150,,907,524,14
00:38:35.187,,1030,515,-27
00:38:35.224,,1143,500,-41
00:38:35.261,,1083,472,-47
00:38:35.298,,936,461,-83
00:38:35.335,,903,564,-49
00:38:35.372,,884,571,-53
00:38:35.409,,860,635,-89
00:38:35.446,,720,657,-27
00:38:35.483,,555,611,5
00:38:35.520,,478,580,33
00:38:35.557,,448,543,44
00:38:35.594,,505,538,89
00:38:35.631,,556,534,161
00:38:35.668,,717,466,103
00:38:35.705,,775,517,142
00:38:35.742,,699,477,207
00:38:35.780,,799,468,200
00:38:35.817,,900,452,131
00:38:35.854,,1014,424,75
00:38:35.891,,1143,522,128
00:38:35.928,,1111,549,158
00:38:35.965,,976,477,124
00:38:36.002,,946,448,103
00:38:36.039,,945,480,95
00:38:36.076,,872,548,177
00:38:36.113,,729,581,259
00:38:36.150,,651,566,297
00:38:36.187,,671,533,321
00:38:36.224,,802,463,270
00:38:36.261,,932,348,160
00:38:36.298,,954,406,69
00:38:36.335,,1083,445,82
00:38:36.372,,1198,509,65
00:38:36.409,,1082,464,11
00:38:36.446,,835,359,-15
00:38:36.483,,751,387,6
00:38:36.521,,738,446,2
00:38:36.558,,957,508,-40
00:38:36.595,,1077,572,-95
00:38:36.632,,977,616,-84
00:38:36.669,,907,500,-77
00:38:36.706,,941,513,-16
00:38:36.743,,958,592,-8
00:38:36.780,,853,656,34
00:38:36.817,,710,631,73
00:38:36.854,,579,610,68
00:38:36.891,,438,551,75
00:38:36.928,,391,529,95
00:38:36.965,,400,529,98
00:38:37.002,,481,510,91
00:38:37.039,,820,493,36
00:38:37.076,,1130,686,83
00:38:37.113,,1062,676,214
00:38:37.150,,1050,690,248
00:38:37.187,,1001,498,42
00:38:37.224,,993,242,57
00:38:37.262,,1029,215,158
00:38:37.299,,973,465,180
00:38:37.336,,850,433,128
00:38:37.373,,682,332,76
00:38:37.410,,548,299,-63
00:38:37.447,,358,644,203
00:38:37.484,,527,869,649
00:38:37.521,,870,536,545
00:38:37.558,,1041,299,492
00:38:37.595,,995,335,349
00:38:37.632,,871,464,211
00:38:37.669,,962,534,35
00:38:37.706,,1223,542,-81
00:38:37.743,,1042,522,-120
00:38:37.780,,750,365,-137
00:38:37.817,,726,369,-170
00:38:37.854,,790,478,-167
00:38:37.891,,975,571,-150
00:38:37.928,,1092,621,-150
00:38:37.966,,1017,518,-121
00:38:38.003,,903,479,-34
00:38:38.040,,863,585,13
00:38:38.077,,858,643,187
00:38:38.114,,820,611,523
00:38:38.151,,716,505,556
00:38:38.188,,615,662,699
00:38:38.225,,558,696,442
00:38:38.262,,478,722,403
00:38:38.299,,465,742,90
00:38:38.336,,490,864,-100
00:38:38.373,,640,830,-113
00:38:38.410,,913,772,-117
00:38:38.447,,868,665,-51
00:38:38.484,,729,536,103
00:38:38.521,,857,515,79
00:38:38.558,,940,393,-133
00:38:38.595,,907,408,-114
00:38:38.632,,862,475,-45
00:38:38.670,,854,500,-29
00:38:38.707,,808,423,-28
00:38:38.744,,797,394,-62
00:38:38.781,,800,429,-6
00:38:38.818,,791,454,3
00:38:38.855,,778,528,113
00:38:38.892,,778,559,237
00:38:38.929,,844,579,321
00:38:38.966,,965,559,344
00:38:39.003,,943,531,291
00:38:39.040,,906,483,257
00:38:39.077,,1092,653,197
00:38:39.114,,1094,728,52
00:38:39.151,,739,565,-76
00:38:39.188,,801,608,-193
00:38:39.225,,1317,508,-593
00:38:39.262,,1338,302,-634
00:38:39.300,,1025,127,-499
00:38:39.337,,856,158,-527
00:38:39.374,,838,197,-509
00:38:39.411,,852,398,-524
00:38:39.448,,804,456,-478
00:38:39.485,,678,493,-435
00:38:39.522,,501,529,-374
00:38:39.559,,389,442,-303
00:38:39.596,,347,467,-360
00:38:39.633,,346,509,-363
00:38:39.670,,492,508,-481
00:38:39.707,,733,601,-721
00:38:39.744,,693,612,-693
00:38:39.781,,614,698,-582
00:38:39.818,,753,463,-771
00:38:39.855,,869,592,-621
00:38:39.892,,926,490,-427
00:38:39.929,,880,401,-510
00:38:39.966,,761,367,-464
00:38:40.003,,658,322,-358
00:38:40.041,,641,297,-319
00:38:40.078,,667,333,-350
00:38:40.115,,633,380,-373
00:38:40.152,,591,432,-310
00:38:40.189,,674,615,-190
00:38:40.226,,910,833,-76
00:38:40.263,,971,834,-128
00:38:40.300,,750,669,-135
00:38:40.337,,742,696,-9
00:38:40.374,,1034,854,17
00:38:40.411,,1065,845,-96
00:38:40.448,,888,676,-92
00:38:40.485,,781,539,-24
00:38:40.522,,827,502,-46
00:38:40.559,,1038,621,-88
00:38:40.596,,1100,633,-105
00:38:40.633,,979,516,-113
00:38:40.670,,900,567,-33
00:38:40.708,,914,605,-18
00:38:40.745,,841,602,-53
00:38:40.782,,744,558,3
00:38:40.819,,651,486,26
00:38:40.856,,607,424,7
00:38:40.893,,615,408,28
00:38:40.930,,646,405,65
00:38:40.967,,852,407,33
00:38:41.004,,1019,524,24
00:38:41.041,,869,522,170
00:38:41.078,,849,530,246
00:38:41.115,,915,507,161
00:38:41.152,,993,389,58
00:38:41.189,,1030,369,82
00:38:41.226,,939,391,160
00:38:41.263,,807,389,104
00:38:41.300,,804,440,132
00:38:41.337,,843,484,89
00:38:41.374,,816,544,171
00:38:41.412,,770,546,210
00:38:41.449,,749,613,263
00:38:41.486,,811,554,280
00:38:41.523,,899,463,190
00:38:41.560,,953,469,109
00:38:41.597,,1237,536,76
00:38:41.634,,1275,652,-70
00:38:41.671,,928,546,-293
00:38:41.708,,767,697,-309
00:38:41.745,,735,754,-221
00:38:41.782,,1119,669,-207
00:38:41.819,,1404,311,-463
00:38:41.856,,1207,324,-191
00:38:41.893,,1092,351,-155
00:38:41.930,,1007,445,-142
00:38:41.967,,854,540,-82
00:38:42.004,,623,615,-89
00:38:42.041,,581,710,151
00:38:42.079,,457,365,2
00:38:42.116,,297,434,-94
00:38:42.153,,367,404,-137
00:38:42.190,,645,402,-254
00:38:42.227,,1128,499,-351
00:38:42.264,,1267,554,-438
00:38:42.301,,1111,569,-337
00:38:42.338,,961,667,-253
00:38:42.375,,896,391,-277
00:38:42.412,,939,372,-58
00:38:42.449,,972,487,-21
00:38:42.486,,926,540,-69
00:38:42.523,,822,499,-79
00:38:42.560,,750,522,-39
00:38:42.597,,752,506,-53
00:38:42.634,,781,594,62
00:38:42.671,,769,680,185
00:38:42.708,,759,706,226
00:38:42.746,,814,660,274
00:38:42.783,,869,473,193
00:38:42.820,,937,481,156
00:38:42.857,,1172,586,112
00:38:42.894,,1206,662,15
00:38:42.931,,973,539,-46
00:38:42.968,,807,470,-44
00:38:43.005,,785,497,-121
00:38:43.042,,961,553,-190
00:38:43.079,,1153,599,-264
00:38:43.116,,1116,548,-333
00:38:43.153,,962,420,-304
00:38:43.190,,929,375,-251
00:38:43.227,,960,377,-323
00:38:43.264,,921,276,-461
00:38:43.301,,876,113,-634
00:38:43.338,,761,132,-737
00:38:43.375,,655,245,-657
00:38:43.412,,645,305,-641
00:38:43.450,,663,854,-385
00:38:43.487,,823,1887,620
00:38:43.524,,736,1702,654
00:38:43.561,,536,963,719
00:38:43.598,,548,821,145
00:38:43.635,,682,727,-259
00:38:43.672,,779,630,-205
00:38:43.709,,940,359,-285
00:38:43.746,,913,226,-364
00:38:43.783,,802,243,-294
00:38:43.820,,809,241,-344
00:38:43.857,,871,265,-450
00:38:43.894,,905,370,-363
00:38:43.931,,984,468,-269
00:38:43.968,,1088,512,-371
00:38:44.005,,1103,628,-379
00:38:44.042,,979,780,-312
00:38:44.079,,807,918,-4
00:38:44.117,,664,1079,123
00:38:44.154,,828,1185,129
00:38:44.191,,1099,1023,69
00:38:44.228,,1074,763,-27
00:38:44.265,,982,711,-179
00:38:44.302,,1042,945,-124
00:38:44.339,,1010,707,-198
00:38:44.376,,1135,616,-397
00:38:44.413,,1403,732,-558
00:38:44.450,,1513,730,-470
00:38:44.487,,1593,724,-377
00:38:44.524,,1449,784,-252
00:38:44.561,,831,862,-27
00:38:44.598,,269,554,186
00:38:44.635,,-114,499,140
00:38:44.672,,109,284,-376
00:38:44.709,,209,72,-560
00:38:44.747,,323,399,-687
00:38:44.784,,259,369,-881
00:38:44.821,,321,372,-667
00:38:44.858,,135,499,-596
00:38:44.895,,193,714,-171
00:38:44.932,,235,1103,337
00:38:44.969,,332,981,272
00:38:45.006,,453,534,-193
00:38:45.043,,448,453,-520
00:38:45.080,,683,338,-627
00:38:45.117,,698,254,-587
00:38:45.154,,908,634,-515
00:38:45.191,,1065,950,-675
00:38:45.228,,921,1059,-826
00:38:45.265,,970,-79,-808
00:38:45.302,,1032,252,96
00:38:45.339,,1067,226,413
00:38:45.376,,1066,725,435
00:38:45.414,,1049,857,287
00:38:45.451,,1219,741,254
00:38:45.488,,1245,703,224
00:38:45.525,,1177,634,310
00:38:45.562,,994,571,289
00:38:45.599,,833,556,168
00:38:45.636,,1029,547,45
00:38:45.673,,1190,558,-48
00:38:45.710,,1120,521,-72
00:38:45.747,,1041,444,-54
00:38:45.784,,1013,437,-66
00:38:45.821,,980,471,-107
00:38:45.858,,913,452,-131
00:38:45.895,,824,407,-120
00:38:45.932,,742,374,-116
00:38:45.969,,673,359,-82
00:38:46.006,,631,356,-43
00:38:46.043,,723,388,25
00:38:46.080,,864,448,37
00:38:46.118,,754,484,191
00:38:46.155,,740,484,332
00:38:46.192,,873,447,242
00:38:46.229,,1011,419,156
00:38:46.266,,1132,398,128
00:38:46.303,,1135,462,184
00:38:46.340,,1013,353,212
00:38:46.377,,900,371,147
00:38:46.414,,915,422,165
00:38:46.451,,892,505,123
00:38:46.488,,842,609,198
00:38:46.525,,738,576,212
00:38:46.562,,735,552,266
00:38:46.599,,810,473,253
00:38:46.636,,905,434,187
00:38:46.673,,929,416,122
00:38:46.710,,1013,450,96
00:38:46.747,,1279,580,82
00:38:46.785,,1160,589,10
00:38:46.822,,877,426,1
00:38:46.859,,710,410,37
00:38:46.896,,688,444,-21
00:38:46.933,,893,490,-65
00:38:46.970,,1106,545,-106
00:38:47.007,,1061,494,-153
00:38:47.044,,973,383,-172
00:38:47.081,,930,452,-106
00:38:47.118,,917,515,-89
00:38:47.155,,883,576,-80
00:38:47.192,,818,605,-24
00:38:47.229,,758,587,22
00:38:47.266,,683,572,63
00:38:47.303,,604,532,102
00:38:47.340,,521,499,126
00:38:47.377,,478,490,165
00:38:47.414,,647,467,193
00:38:47.452,,974,493,72
00:38:47.489,,850,505,80
00:38:47.526,,817,499,206
00:38:47.563,,950,573,206
00:38:47.600,,982,565,127
00:38:47.637,,976,418,46
00:38:47.674,,999,421,119
00:38:47.711,,940,441,106
00:38:47.748,,864,441,72
00:38:47.785,,841,455,68
00:38:47.822,,804,479,43
00:38:47.859,,772,462,71
00:38:47.896,,734,465,103
00:38:47.933,,746,520,163
00:38:47.970,,780,541,230
00:38:48.007,,832,518,240
00:38:48.044,,887,421,140
00:38:48.081,,965,413,106
00:38:48.118,,1249,566,117
00:38:48.156,,1226,609,77
00:38:48.193,,958,435,32
00:38:48.230,,828,426,60
00:38:48.267,,739,487,27
00:38:48.304,,847,491,-18
00:38:48.341,,1016,546,-39
00:38:48.378,,1036,492,-68
00:38:48.415,,927,393,-101
00:38:48.452,,874,519,-44
00:38:48.489,,856,569,-30
00:38:48.526,,813,633,-74
00:38:48.563,,757,644,-18
00:38:48.600,,665,610,-7
00:38:48.637,,618,616,17
00:38:48.674,,586,606,71
00:38:48.711,,547,582,85
00:38:48.748,,488,551,143
00:38:48.785,,541,528,159
00:38:48.822,,752,520,78
00:38:48.860,,878,538,107
00:38:48.897,,787,456,158
00:38:48.934,,871,474,113
00:38:48.971,,1040,520,98
00:38:49.008,,1038,447,18
00:38:49.045,,1008,471,95
00:38:49.082,,976,492,168
00:38:49.119,,886,457,81
00:38:49.156,,842,422,58
00:38:49.193,,817,425,48
00:38:49.230,,758,478,57
00:38:49.267,,740,520,123
00:38:49.304,,719,551,153
00:38:49.341,,762,578,218
00:38:49.378,,855,562,201
00:38:49.415,,940,475,99
00:38:49.452,,1087,507,95
00:38:49.489,,1271,625,101
00:38:49.526,,989,571,47
00:38:49.563,,840,445,52
00:38:49.601,,860,476,36
00:38:49.638,,967,567,-17
00:38:49.675,,1110,581,-44
00:38:49.712,,1084,513,-33
00:38:49.749,,973,441,-20
00:38:49.786,,938,500,31
00:38:49.823,,960,566,14
00:38:49.860,,915,562,2
00:38:49.897,,795,518,51
00:38:49.934,,719,477,33
00:38:49.971,,624,444,11
00:38:50.008,,554,402,29
00:38:50.045,,483,378,59
00:38:50.082,,572,414,66
00:38:50.119,,835,466,73
00:38:50.156,,923,468,71
00:38:50.193,,884,407,104
00:38:50.230,,1106,495,121
00:38:50.267,,1214,579,121
00:38:50.304,,1100,520,115
00:38:50.342,,971,447,178
00:38:50.379,,889,433,146
00:38:50.416,,846,426,72
00:38:50.453,,847,456,52
00:38:50.490,,804,493,88
00:38:50.527,,724,502,86
00:38:50.564,,705,526,141
00:38:50.601,,739,571,169
00:38:50.638,,825,596,230
00:38:50.675,,934,496,192
00:38:50.712,,967,437,128
00:38:50.749,,1227,541,115
00:38:50.786,,1293,642,53
00:38:50.823,,951,508,2
00:38:50.860,,839,443,44
00:38:50.897,,821,501,29
00:38:50.934,,935,530,-14
00:38:50.971,,1067,502,-21
00:38:51.008,,1094,432,-75
00:38:51.046,,991,420,-75
00:38:51.083,,911,489,3
00:38:51.120,,867,554,-22
00:38:51.157,,819,559,-18
00:38:51.194,,727,512,18
00:38:51.231,,672,472,4
00:38:51.268,,621,441,-1
00:38:51.305,,610,428,-5
00:38:51.342,,582,463,49
00:38:51.379,,741,493,94
00:38:51.416,,957,531,90
00:38:51.453,,909,508,124
00:38:51.490,,944,490,139
00:38:51.527,,929,544,148
00:38:51.564,,899,516,206
00:38:51.601,,977,467,175
00:38:51.638,,998,495,208
00:38:51.675,,877,447,181
00:38:51.713,,810,462,177
00:38:51.750,,801,462,166
00:38:51.787,,781,474,158
00:38:51.824,,746,482,194
00:38:51.861,,688,478,213
00:38:51.898,,695,488,245
00:38:51.935,,754,462,261
00:38:51.972,,884,429,210
00:38:52.009,,951,398,102
00:38:52.046,,1175,497,122
00:38:52.083,,1300,642,133
00:38:52.120,,919,491,71
00:38:52.157,,745,422,117
00:38:52.194,,750,478,65
00:38:52.231,,944,528,18
00:38:52.268,,1069,524,2
00:38:52.305,,1019,439,-57
00:38:52.342,,942,352,-68
00:38:52.379,,925,381,-65
00:38:52.416,,911,471,-108
00:38:52.454,,864,580,-120
00:38:52.491,,779,654,-134
00:38:52.528,,702,662,-76
00:38:52.565,,641,610,-19
00:38:52.602,,594,610,31
00:38:52.639,,530,617,66
00:38:52.676,,477,569,98
00:38:52.713,,523,522,83
00:38:52.750,,680,518,44
00:38:52.787,,788,564,43
00:38:52.824,,811,591,46
00:38:52.861,,922,695,85
00:38:52.898,,952,605,4
00:38:52.935,,967,495,5
00:38:52.972,,1038,521,91
00:38:53.009,,989,493,64
00:38:53.046,,884,443,32
00:38:53.083,,821,446,36
00:38:53.120,,761,467,22
00:38:53.157,,733,494,60
00:38:53.194,,728,498,84
00:38:53.232,,706,538,115
00:38:53.269,,732,552,181
00:38:53.306,,806,509,179
00:38:53.343,,929,461,122
00:38:53.380,,1016,476,96
00:38:53.417,,1234,576,101
00:38:53.454,,1165,564,79
00:38:53.491,,954,441,63
00:38:53.528,,820,448,80
00:38:53.565,,759,455,66
00:38:53.602,,916,460,61
00:38:53.639,,1107,473,24
00:38:53.676,,1063,366,-52
00:38:53.713,,892,321,-32
00:38:53.750,,834,370,15
00:38:53.787,,843,405,-11
00:38:53.824,,835,370,-28
00:38:53.861,,808,338,-8
00:38:53.898,,809,357,2
00:38:53.935,,805,377,0
00:38:53.972,,797,378,34
00:38:54.010,,868,379,44
00:38:54.047,,1223,464,-4
00:38:54.084,,1118,526,61
00:38:54.121,,837,509,236
00:38:54.158,,819,512,267
00:38:54.195,,839,366,85
00:38:54.232,,920,349,124
00:38:54.269,,999,430,162
00:38:54.306,,872,439,103
00:38:54.343,,760,410,99
00:38:54.380,,734,427,60
00:38:54.417,,761,451,63
00:38:54.454,,764,473,83
00:38:54.491,,717,483,135
00:38:54.528,,710,499,189
00:38:54.565,,785,496,207
00:38:54.602,,902,419,114
00:38:54.639,,1058,459,84
00:38:54.676,,1292,605,99
00:38:54.713,,1097,533,57
00:38:54.751,,885,455,99
00:38:54.788,,786,515,122
00:38:54.825,,821,476,42
00:38:54.862,,950,468,17
00:38:54.899,,1007,455,-16
00:38:54.936,,912,394,-54
00:38:54.973,,857,421,-25
00:38:55.010,,869,464,-26
00:38:55.047,,880,459,-67
00:38:55.084,,861,479,-67
00:38:55.121,,840,493,-41
00:38:55.158,,828,498,-55
00:38:55.195,,819,486,-69
00:38:55.232,,762,476,-24
00:38:55.269,,745,470,61
00:38:55.306,,988,483,67
00:38:55.343,,1143,488,0
00:38:55.380,,870,411,103
00:38:55.417,,683,410,231
00:38:55.454,,792,472,221
00:38:55.491,,889,418,146
00:38:55.529,,882,392,131
00:38:55.566,,830,392,175
00:38:55.603,,773,367,121
00:38:55.640,,767,411,122
00:38:55.677,,807,450,141
00:38:55.714,,807,471,155
00:38:55.751,,786,491,200
00:38:55.788,,772,511,245
00:38:55.825,,745,517,292
00:38:55.862,,891,486,262
00:38:55.899,,1032,410,104
00:38:55.936,,1154,442,61
00:38:55.973,,1293,582,112
00:38:56.010,,951,545,69
00:38:56.047,,799,440,55
00:38:56.084,,945,507,42
00:38:56.121,,1039,514,-13
00:38:56.158,,1001,414,-3
00:38:56.195,,928,389,24
00:38:56.232,,899,443,5
00:38:56.269,,911,438,-14
00:38:56.306,,870,434,-22
00:38:56.344,,819,459,7
00:38:56.381,,766,449,0
00:38:56.418,,694,430,-23
00:38:56.455,,710,501,-5
00:38:56.492,,747,547,89
00:38:56.529,,947,615,124
00:38:56.566,,1004,605,56
00:38:56.603,,682,511,66
00:38:56.640,,589,514,112
00:38:56.677,,623,565,135
00:38:56.714,,748,569,82
00:38:56.751,,807,571,140
00:38:56.788,,853,543,176
00:38:56.825,,842,526,141
00:38:56.862,,826,559,209
00:38:56.899,,833,517,261
00:38:56.936,,826,733,210
00:38:56.973,,781,651,168
00:38:57.010,,770,488,168
00:38:57.047,,837,482,146
00:38:57.085,,961,539,106
00:38:57.122,,1024,533,56
00:38:57.159,,1198,598,65
00:38:57.196,,1008,494,-22
00:38:57.233,,958,487,-34
00:38:57.270,,857,529,-46
00:38:57.307,,835,526,-31
00:38:57.344,,1000,586,-41
00:38:57.381,,1041,557,-78
00:38:57.418,,875,494,-54
00:38:57.455,,768,546,-19
00:38:57.492,,748,605,-22
00:38:57.529,,700,581,-27
00:38:57.566,,617,519,0
00:38:57.603,,563,592,8
00:38:57.640,,562,614,10
00:38:57.677,,570,638,32
00:38:57.714,,588,651,18
00:38:57.751,,832,664,-35
00:38:57.789,,881,754,3
00:38:57.826,,603,728,189
00:38:57.863,,589,617,199
00:38:57.900,,785,543,62
00:38:57.937,,852,515,81
00:38:57.974,,756,537,64
00:38:58.011,,640,542,79
00:38:58.048,,597,527,85
00:38:58.085,,625,572,47
00:38:58.122,,676,609,23
00:38:58.159,,689,795,74
00:38:58.196,,660,707,94
00:38:58.233,,694,632,144
00:38:58.270,,829,563,66
00:38:58.307,,953,542,9
00:38:58.344,,968,528,30
00:38:58.381,,1069,653,102
00:38:58.418,,1105,707,80
00:38:58.455,,945,619,38
00:38:58.492,,844,572,67
00:38:58.530,,840,571,42
00:38:58.567,,988,587,36
00:38:58.604,,1030,534,-4
00:38:58.641,,959,453,-22
00:38:58.678,,909,404,-17
00:38:58.715,,951,417,-31
00:38:58.752,,977,489,-38
00:38:58.789,,903,528,-45
00:38:58.826,,813,553,-5
00:38:58.863,,751,574,-5
00:38:58.900,,677,546,-24
00:38:58.937,,641,530,1
00:38:58.974,,598,547,65
00:38:59.011,,680,528,72
00:38:59.048,,836,549,49
00:38:59.085,,760,571,202
00:38:59.122,,775,547,270
00:38:59.159,,843,418,135
00:38:59.196,,871,320,97
00:38:59.233,,920,375,123
00:38:59.271,,927,461,157
00:38:59.308,,834,443,146
00:38:59.345,,781,399,83
00:38:59.382,,799,418,96
00:38:59.419,,803,467,116
00:38:59.456,,801,540,177
00:38:59.493,,811,569,229
00:38:59.530,,794,509,259
00:38:59.567,,904,461,239
00:38:59.604,,992,462,101
00:38:59.641,,966,511,99
00:38:59.678,,1205,645,157
00:38:59.715,,1173,666,59
00:38:59.752,,817,485,47
00:38:59.789,,732,444,105
00:38:59.826,,964,536,73
00:38:59.863,,1182,579,14
00:38:59.900,,1083,459,0
00:38:59.937,,921,361,56
00:38:59.974,,866,421,51
00:39:00.011,,877,463,96
00:39:00.048,,867,423,48
00:39:00.086,,803,375,50
00:39:00.123,,741,308,45
00:39:00.160,,836,351,8
00:39:00.197,,862,398,72
00:39:00.234,,935,342,50
00:39:00.271,,1109,429,23
00:39:00.308,,1004,484,147
00:39:00.345,,867,428,203
00:39:00.382,,854,385,157
00:39:00.419,,884,365,69
00:39:00.456,,942,451,107
00:39:00.493,,897,488,142
00:39:00.530,,773,436,98
00:39:00.567,,766,434,86
00:39:00.604,,792,452,74
00:39:00.641,,790,477,112
00:39:00.678,,724,513,152
00:39:00.715,,670,550,220
00:39:00.752,,715,534,220
00:39:00.790,,907,480,132
00:39:00.827,,1530,617,88
00:39:00.864,,1289,578,49
00:39:00.901,,954,478,98
00:39:00.938,,884,518,84
00:39:00.975,,912,527,-25
00:39:01.012,,958,517,-3
00:39:01.049,,899,547,59
00:39:01.086,,838,470,-3
00:39:01.123,,850,476,7
00:39:01.160,,862,518,37
00:39:01.197,,825,504,23
00:39:01.234,,754,483,32
00:39:01.271,,732,460,18
00:39:01.308,,749,451,12
00:39:01.345,,782,435,31
00:39:01.382,,1022,437,9
00:39:01.419,,1308,518,-31
00:39:01.456,,870,467,121
00:39:01.493,,725,459,266
00:39:01.530,,804,456,214
00:39:01.568,,800,341,68
00:39:01.605,,794,396,115
00:39:01.642,,816,466,207
00:39:01.679,,773,394,72
00:39:01.716,,807,420,71
00:39:01.753,,854,485,102
00:39:01.790,,834,523,153
00:39:01.827,,805,603,286
00:39:01.864,,746,486,301
00:39:01.901,,756,425,271
00:39:01.938,,861,435,231
00:39:01.975,,976,388,183
00:39:02.012,,1017,387,168
00:39:02.049,,1227,475,164
00:39:02.086,,1219,585,124
00:39:02.123,,906,475,64
00:39:02.160,,717,380,67
00:39:02.197,,789,457,31
00:39:02.234,,998,554,12
00:39:02.272,,1105,529,-41
00:39:02.309,,1013,456,-78
00:39:02.346,,897,419,3
00:39:02.383,,818,463,28
00:39:02.420,,792,515,3
00:39:02.457,,802,461,-14
00:39:02.494,,830,465,56
00:39:02.531,,893,504,123
00:39:02.568,,888,324,7
00:39:02.605,,961,241,-56
00:39:02.642,,1161,316,-91
00:39:02.679,,943,532,88
00:39:02.716,,820,510,324
00:39:02.753,,915,277,274
00:39:02.790,,891,115,167
00:39:02.827,,920,192,217
00:39:02.864,,922,321,263
00:39:02.901,,821,452,227
00:39:02.938,,744,442,177
00:39:02.976,,706,409,127
00:39:03.013,,682,391,77
00:39:03.050,,695,433,104
00:39:03.087,,735,479,173
00:39:03.124,,744,467,237
00:39:03.161,,859,446,241
00:39:03.198,,973,427,212
00:39:03.235,,963,492,195
00:39:03.272,,1098,594,205
00:39:03.309,,1209,641,209
00:39:03.346,,935,506,145
00:39:03.383,,828,430,96
00:39:03.420,,969,471,46
00:39:03.457,,1090,499,-7
00:39:03.494,,1087,406,-4
00:39:03.531,,977,403,9
00:39:03.568,,901,444,27
00:39:03.605,,899,457,31
00:39:03.643,,900,453,30
00:39:03.680,,829,489,45
00:39:03.717,,736,537,14
00:39:03.754,,694,512,-5
00:39:03.791,,679,424,-12
00:39:03.828,,632,499,-90
00:39:03.865,,603,511,-84
00:39:03.902,,739,373,96
00:39:03.939,,884,489,132
00:39:03.976,,1006,469,172
00:39:04.013,,971,574,286
00:39:04.050,,1016,701,369
00:39:04.087,,1018,497,89
00:39:04.124,,966,375,111
00:39:04.161,,906,337,159
00:39:04.198,,863,429,146
00:39:04.235,,801,385,144
00:39:04.272,,724,408,157
00:39:04.309,,656,380,177
00:39:04.347,,650,405,158
00:39:04.384,,684,428,163
00:39:04.421,,725,404,146
00:39:04.458,,851,427,171
00:39:04.495,,984,430,114
00:39:04.532,,1188,448,0
00:39:04.569,,1367,607,39
00:39:04.606,,1054,563,53
00:39:04.643,,774,497,82
00:39:04.680,,696,518,60
00:39:04.717,,817,494,32
00:39:04.754,,929,498,32
00:39:04.791,,917,446,-8
00:39:04.828,,830,441,-8
00:39:04.865,,860,424,9
00:39:04.902,,947,387,51
00:39:04.939,,961,387,15
00:39:04.976,,936,472,-5
00:39:05.014,,923,453,-31
00:39:05.051,,842,429,-36
00:39:05.088,,724,419,-46
00:39:05.125,,684,392,-60
00:39:05.162,,761,444,-32
00:39:05.199,,985,496,-52
00:39:05.236,,1149,470,-64
00:39:05.273,,986,479,49
00:39:05.310,,832,533,218
00:39:05.347,,858,472,211
00:39:05.384,,951,352,139
00:39:05.421,,947,359,229
00:39:05.458,,867,415,250
00:39:05.495,,750,379,188
00:39:05.532,,709,356,136
00:39:05.569,,756,382,127
00:39:05.606,,759,391,112
00:39:05.644,,721,400,123
00:39:05.681,,696,407,124
00:39:05.718,,703,408,187
00:39:05.755,,765,382,186
00:39:05.792,,906,404,130
00:39:05.829,,1030,400,64
00:39:05.866,,1309,533,96
00:39:05.903,,1177,632,141
00:39:05.940,,914,520,102
00:39:05.977,,909,508,85
00:39:06.014,,937,522,22
00:39:06.051,,918,473,15
00:39:06.088,,860,436,39
00:39:06.125,,792,385,53
00:39:06.162,,782,386,46
00:39:06.199,,842,395,37
00:39:06.236,,925,375,33
00:39:06.273,,958,346,19
00:39:06.310,,964,346,25
00:39:06.348,,975,356,11
00:39:06.385,,929,351,15
00:39:06.422,,992,354,64
00:39:06.459,,1312,389,-56
00:39:06.496,,1062,423,-27
00:39:06.533,,670,377,160
00:39:06.570,,697,426,304
00:39:06.607,,793,360,170
00:39:06.644,,835,309,105
00:39:06.681,,829,378,200
00:39:06.718,,748,395,179
00:39:06.755,,727,409,177
00:39:06.792,,760,438,183
00:39:06.829,,795,466,185
00:39:06.866,,801,466,234
00:39:06.903,,763,455,252
00:39:06.940,,809,491,292
00:39:06.977,,901,455,278
00:39:07.015,,994,358,129
00:39:07.052,,1126,552,111
00:39:07.089,,806,421,60
00:39:07.126,,778,473,88
00:39:07.163,,773,536,1
00:39:07.200,,879,495,-25
00:39:07.237,,1014,485,-35
00:39:07.274,,994,426,-71
00:39:07.311,,954,367,-55
00:39:07.348,,960,385,-46
00:39:07.385,,973,418,-60
00:39:07.422,,960,445,-71
00:39:07.459,,920,471,-35
00:39:07.496,,893,573,-10
00:39:07.533,,812,645,-28
00:39:07.570,,663,650,-23
00:39:07.607,,512,640,5
00:39:07.644,,431,645,22
00:39:07.682,,440,650,37
00:39:07.719,,530,629,35
00:39:07.756,,731,614,38
00:39:07.793,,728,569,43
00:39:07.830,,713,506,143
00:39:07.867,,952,564,258
00:39:07.904,,1140,497,134
00:39:07.941,,1094,368,58
00:39:07.978,,1042,360,122
00:39:08.015,,961,397,127
00:39:08.052,,845,409,74
00:39:08.089,,797,404,70
00:39:08.126,,757,393,22
00:39:08.163,,734,426,50
00:39:08.200,,715,430,76
00:39:08.237,,686,444,106
00:39:08.274,,757,450,155
00:39:08.312,,845,463,167
00:39:08.349,,838,433,204
00:39:08.386,,804,389,175
00:39:08.423,,855,412,125
00:39:08.460,,1194,528,83
00:39:08.497,,1246,688,27
00:39:08.534,,1084,602,24
00:39:08.571,,893,596,121
00:39:08.608,,735,526,63
00:39:08.645,,810,403,1
00:39:08.682,,1086,434,-27
00:39:08.719,,1242,448,-48
00:39:08.756,,1110,368,-44
00:39:08.793,,1008,472,-64
00:39:08.830,,998,707,-154
00:39:08.867,,962,826,-156
00:39:08.905,,804,614,-124
00:39:08.942,,600,443,-60
00:39:08.979,,446,404,-14
00:39:09.016,,366,364,23
00:39:09.053,,333,346,80
00:39:09.090,,395,428,102
00:39:09.127,,588,530,46
00:39:09.164,,800,725,-39
00:39:09.201,,764,852,-5
00:39:09.238,,733,796,82
00:39:09.275,,878,701,131
00:39:09.312,,1088,574,43
00:39:09.349,,1181,445,-16
00:39:09.386,,1124,451,30
00:39:09.423,,975,463,81
00:39:09.460,,850,452,19
00:39:09.497,,850,438,-23
00:39:09.535,,831,432,-52
00:39:09.572,,771,459,-38
00:39:09.609,,727,459,9
00:39:09.646,,643,473,70
00:39:09.683,,699,515,164
00:39:09.720,,786,492,168
00:39:09.757,,1038,412,95
00:39:09.794,,1359,542,93
00:39:09.831,,1111,506,32
00:39:09.868,,917,458,105
00:39:09.905,,781,480,47
00:39:09.942,,794,470,-13
00:39:09.979,,937,444,-24
00:39:10.016,,968,456,-47
00:39:10.053,,875,416,-60
00:39:10.090,,867,448,-37
00:39:10.127,,879,451,-49
00:39:10.165,,857,372,-69
00:39:10.202,,880,383,-42
00:39:10.239,,913,369,-86
00:39:10.276,,944,369,-130
00:39:10.313,,964,390,-138
00:39:10.350,,944,428,-112
00:39:10.387,,975,401,-92
00:39:10.424,,1219,372,-106
00:39:10.461,,1033,422,-63
00:39:10.498,,739,536,134
00:39:10.535,,632,554,282
00:39:10.572,,679,433,217
00:39:10.609,,751,310,147
00:39:10.646,,841,380,220
00:39:10.683,,830,429,206
00:39:10.720,,791,411,156
00:39:10.757,,820,424,140
00:39:10.795,,818,439,121
00:39:10.832,,768,443,116
00:39:10.869,,721,464,146
00:39:10.906,,658,474,153
00:39:10.943,,715,471,185
00:39:10.980,,928,439,107
00:39:11.017,,1273,398,-21
00:39:11.054,,1341,467,-14
00:39:11.091,,1313,527,-24
00:39:11.128,,1010,488,-21
00:39:11.165,,727,478,-4
00:39:11.202,,740,316,9
00:39:11.239,,862,276,-21
00:39:11.276,,940,444,-65
00:39:11.313,,849,397,-90
00:39:11.350,,823,348,-68
00:39:11.387,,827,409,-39
00:39:11.424,,816,469,-51
00:39:11.462,,799,478,-37
00:39:11.499,,786,479,-7
00:39:11.536,,806,472,-14
00:39:11.573,,836,484,-13
00:39:11.610,,865,474,-14
00:39:11.647,,860,498,3
00:39:11.684,,869,503,17
00:39:11.721,,1074,496,-35
00:39:11.758,,1172,494,-72
00:39:11.795,,867,467,22
00:39:11.832,,768,555,181
00:39:11.869,,849,549,172
00:39:11.906,,853,396,84
00:39:11.943,,888,316,107
00:39:11.980,,941,371,90
00:39:12.017,,877,377,55
00:39:12.054,,806,362,71
00:39:12.091,,799,375,58
00:39:12.129,,779,370,87
00:39:12.166,,717,329,107
00:39:12.203,,692,344,122
00:39:12.240,,637,306,236
00:39:12.277,,747,369,317
00:39:12.314,,925,446,142
00:39:12.351,,1014,368,73
00:39:12.388,,971,435,99
00:39:12.425,,1102,454,24
00:39:12.462,,1226,501,-66
00:39:12.499,,861,517,-68
00:39:12.536,,663,479,5
00:39:12.573,,825,472,-18
00:39:12.610,,914,372,-213
00:39:12.647,,899,571,80
00:39:12.684,,837,373,0
00:39:12.721,,835,534,-38
00:39:12.758,,842,633,-33
00:39:12.796,,838,491,-57
00:39:12.833,,842,457,-55
00:39:12.870,,851,511,-47
00:39:12.907,,846,500,-66
00:39:12.944,,860,485,-82
00:39:12.981,,871,471,-76
00:39:13.018,,937,399,-149
00:39:13.055,,1145,387,-245
00:39:13.092,,1125,490,-161
00:39:13.129,,825,534,48
00:39:13.166,,915,494,57
00:39:13.203,,1004,397,218
00:39:13.240,,1076,170,247
00:39:13.277,,1016,61,209
00:39:13.314,,868,149,247
00:39:13.351,,713,239,240
00:39:13.388,,683,260,178
00:39:13.426,,716,208,166
00:39:13.463,,738,233,94
00:39:13.500,,747,336,107
00:39:13.537,,744,389,128
00:39:13.574,,773,519,211
00:39:13.611,,884,779,365
00:39:13.648,,873,1507,393
00:39:13.685,,1156,877,40
00:39:13.722,,1188,694,-122
00:39:13.759,,922,224,-110
00:39:13.796,,735,226,-54
00:39:13.833,,597,306,-51
00:39:13.870,,710,420,-82
00:39:13.907,,864,511,-129
00:39:13.944,,824,569,-178
00:39:13.981,,754,533,-195
00:39:14.018,,782,556,-180
00:39:14.056,,769,534,-191
00:39:14.093,,738,546,-155
00:39:14.130,,722,564,-108
00:39:14.167,,715,537,-113
00:39:14.204,,728,573,-86
00:39:14.241,,802,623,-18
00:39:14.278,,865,940,405
00:39:14.315,,1072,659,200
00:39:14.352,,1156,485,9
00:39:14.389,,930,457,40
00:39:14.426,,809,495,48
00:39:14.463,,790,509,-20
00:39:14.500,,793,410,-59
00:39:14.537,,833,367,-42
00:39:14.574,,945,359,-62
00:39:14.611,,876,351,-80
00:39:14.648,,749,331,-82
00:39:14.685,,725,342,-85
00:39:14.723,,780,448,-35
00:39:14.760,,793,415,57
00:39:14.797,,738,402,153
00:39:14.834,,707,433,310
00:39:14.871,,863,677,665
00:39:14.908,,917,736,550
00:39:14.945,,1083,435,179
00:39:14.982,,926,400,63
00:39:15.019,,868,315,-86
00:39:15.056,,1171,470,-224
00:39:15.093,,946,534,-249
00:39:15.130,,634,340,-213
00:39:15.167,,629,710,-106
00:39:15.204,,837,614,-162
00:39:15.241,,891,484,-205
00:39:15.278,,829,422,-146
00:39:15.315,,780,456,-106
00:39:15.352,,784,486,-84
00:39:15.389,,821,459,-44
00:39:15.427,,830,443,-28
00:39:15.464,,803,449,-5
00:39:15.501,,812,424,13
00:39:15.538,,926,461,54
00:39:15.575,,1016,487,42
00:39:15.612,,920,405,40
00:39:15.649,,903,416,41
00:39:15.686,,972,512,39
00:39:15.723,,1006,553,55
00:39:15.760,,935,500,101
00:39:15.797,,871,447,180
00:39:15.834,,864,370,231
00:39:15.871,,793,323,131
00:39:15.908,,811,451,86
00:39:15.945,,876,504,66
00:39:15.982,,873,435,51
00:39:16.019,,806,384,50
00:39:16.056,,772,393,38
00:39:16.093,,807,371,94
00:39:16.131,,801,393,28
00:39:16.168,,734,520,54
00:39:16.205,,691,562,121
00:39:16.242,,678,488,106
00:39:16.279,,709,493,99
00:39:16.316,,784,474,89
00:39:16.353,,851,491,56
00:39:16.390,,1015,519,2
00:39:16.427,,1024,536,-30
00:39:16.464,,1018,537,-48
00:39:16.501,,1026,540,-84
00:39:16.538,,831,493,-62
00:39:16.575,,820,484,-48
00:39:16.612,,997,481,-55
00:39:16.649,,1007,434,-67
00:39:16.686,,910,381,-15
00:39:16.723,,862,375,-5
00:39:16.760,,843,403,0
00:39:16.798,,863,413,4
00:39:16.835,,876,398,15
00:39:16.872,,866,383,8
00:39:16.909,,811,341,-21
00:39:16.946,,749,362,13
00:39:16.983,,836,492,67
00:39:17.020,,1063,460,-6
00:39:17.057,,1031,444,1
00:39:17.094,,895,398,134
00:39:17.131,,1083,521,181
00:39:17.168,,991,435,105
00:39:17.205,,721,335,135
00:39:17.242,,732,477,102
00:39:17.279,,861,472,77
00:39:17.316,,904,420,88
00:39:17.353,,799,417,89
00:39:17.390,,763,446,107
00:39:17.427,,775,465,156
00:39:17.465,,769,488,165
00:39:17.502,,755,521,215
00:39:17.539,,729,521,227
00:39:17.576,,691,518,275
00:39:17.613,,724,520,313
00:39:17.650,,857,530,311
00:39:17.687,,1119,587,261
00:39:17.724,,1087,536,188
00:39:17.761,,983,555,171
00:39:17.798,,805,492,153
00:39:17.835,,717,427,112
00:39:17.872,,889,464,94
00:39:17.909,,1001,464,58
00:39:17.946,,925,449,41
00:39:17.983,,878,487,49
00:39:18.020,,894,490,50
00:39:18.057,,897,458,48
00:39:18.095,,883,453,52
00:39:18.132,,861,405,36
00:39:18.169,,850,549,18
00:39:18.206,,638,527,107
00:39:18.243,,636,559,30
00:39:18.280,,677,455,117
00:39:18.317,,718,464,109
00:39:18.354,,798,530,96
00:39:18.391,,913,462,131
00:39:18.428,,1156,526,118
00:39:18.465,,1094,474,122
00:39:18.502,,945,488,322
00:39:18.539,,962,528,298
00:39:18.576,,929,392,236
00:39:18.613,,773,430,253
00:39:18.650,,837,499,210
00:39:18.687,,892,437,169
00:39:18.724,,810,327,117
00:39:18.762,,750,335,160
00:39:18.799,,763,271,125
00:39:18.836,,772,325,168
00:39:18.873,,806,351,207
00:39:18.910,,812,371,252
00:39:18.947,,778,410,327
00:39:18.984,,779,313,277
00:39:19.021,,811,341,295
00:39:19.058,,816,401,298
00:39:19.095,,1044,306,173
00:39:19.132,,938,449,334
00:39:19.169,,1011,364,164
00:39:19.206,,1205,482,98
00:39:19.243,,968,493,108
00:39:19.280,,726,423,139
00:39:19.317,,763,416,150
00:39:19.354,,922,401,160
00:39:19.391,,988,358,132
00:39:19.428,,916,306,106
00:39:19.466,,847,353,115
00:39:19.503,,848,383,113
00:39:19.540,,879,381,109
00:39:19.577,,895,395,112
00:39:19.614,,856,406,88
00:39:19.651,,835,424,67
00:39:19.688,,803,428,62
00:39:19.725,,810,460,74
00:39:19.762,,874,434,116
00:39:19.799,,974,458,146
00:39:19.836,,1069,490,128
00:39:19.873,,906,451,123
00:39:19.910,,802,488,138
00:39:19.947,,748,484,153
00:39:19.984,,822,453,189
00:39:20.021,,885,452,173
00:39:20.058,,865,469,164
00:39:20.095,,853,468,168
00:39:20.132,,842,494,181
00:39:20.170,,884,493,216
00:39:20.207,,893,458,214
00:39:20.244,,884,402,224
00:39:20.281,,960,423,178
00:39:20.318,,1039,431,140
00:39:20.355,,969,418,132
00:39:20.392,,855,351,141
00:39:20.429,,790,353,132
00:39:20.466,,733,337,188
00:39:20.503,,703,297,212
00:39:20.540,,743,301,230
00:39:20.577,,850,338,260
00:39:20.614,,860,323,262
00:39:20.651,,914,302,222
00:39:20.688,,916,356,137
00:39:20.725,,883,401,107
00:39:20.762,,828,433,115
00:39:20.800,,906,440,108
00:39:20.837,,1064,443,71
00:39:20.874,,1130,424,43
00:39:20.911,,1024,428,61
00:39:20.948,,895,417,83
00:39:20.985,,865,211,-52
00:39:21.022,,944,708,222
00:39:21.059,,829,251,55
00:39:21.096,,804,412,65
00:39:21.133,,784,468,113
00:39:21.170,,798,367,66
00:39:21.207,,841,440,97
00:39:21.244,,886,419,117
00:39:21.281,,877,457,189
00:39:21.318,,808,379,210
00:39:21.355,,806,367,243
00:39:21.392,,871,406,206
00:39:21.429,,908,423,194
00:39:21.467,,924,458,169
00:39:21.504,,918,494,174
00:39:21.541,,903,446,141
00:39:21.578,,892,437,142
00:39:21.615,,889,420,109
00:39:21.652,,903,420,84
00:39:21.689,,929,412,58
00:39:21.726,,915,404,36
00:39:21.763,,884,396,54
00:39:21.800,,886,369,46
00:39:21.837,,875,374,59
00:39:21.874,,875,364,60
00:39:21.911,,887,371,68
00:39:21.948,,879,382,83
00:39:21.985,,881,387,92
00:39:22.022,,871,398,101
00:39:22.059,,873,404,128
00:39:22.096,,883,389,103
00:39:22.134,,890,423,124
00:39:22.171,,904,408,115
00:39:22.208,,895,422,108
00:39:22.245,,895,421,108
00:39:22.282,,896,422,93
00:39:22.319,,890,421,81
00:39:22.356,,886,406,66
00:39:22.393,,871,426,65
00:39:22.430,,869,387,28
00:39:22.467,,881,384,-8
00:39:22.504,,882,387,-13
00:39:22.541,,894,380,10
00:39:22.578,,879,383,24
00:39:22.615,,890,393,41
00:39:22.652,,894,367,72
00:39:22.689,,890,413,88
00:39:22.727,,896,433,86
00:39:22.764,,882,451,79
00:39:22.801,,887,399,54
00:39:22.838,,902,378,43
00:39:22.875,,891,370,29
00:39:22.912,,885,377,23
00:39:22.949,,886,362,14
00:39:22.986,,923,420,-100
00:39:23.023,,851,410,251
00:39:23.060,,826,356,48
00:39:23.097,,895,421,13
00:39:23.134,,911,417,21
00:39:23.171,,916,318,27
00:39:23.208,,924,304,65
00:39:23.245,,894,405,44
00:39:23.282,,860,399,0
00:39:23.319,,869,495,-4
00:39:23.357,,865,514,-61
00:39:23.394,,856,503,-39
00:39:23.431,,847,533,-80
00:39:23.468,,849,460,-97
00:39:23.505,,862,442,-96
00:39:23.542,,852,451,-118
00:39:23.579,,848,404,-117
00:39:23.616,,854,401,-132
00:39:23.653,,876,393,-180
00:39:23.690,,889,448,-191
00:39:23.727,,864,521,-305
00:39:23.764,,765,876,-255
00:39:23.801,,936,1058,-422
00:39:23.838,,1152,1633,-693
00:39:23.875,,1469,1797,-586
00:39:23.912,,1357,1418,-16
00:39:23.950,,1030,1050,152
00:39:23.987,,641,534,371
00:39:24.024,,357,428,405
00:39:24.061,,147,152,355
00:39:24.098,,-112,125,264
00:39:24.135,,-217,36,169
00:39:24.172,,-297,-91,96
00:39:24.209,,-368,-101,199
00:39:24.246,,-420,-34,451
00:39:24.283,,-438,77,818
00:39:24.320,,-484,97,987
00:39:24.357,,-566,30,1001
00:39:24.394,,-626,-86,916
00:39:24.431,,-623,-109,890
00:39:24.468,,-615,-59,913
00:39:24.505,,-607,-12,890
00:39:24.542,,-590,24,890
00:39:24.580,,-569,47,866
00:39:24.617,,-556,49,844
00:39:24.654,,-552,45,845
00:39:24.691,,-549,23,836
00:39:24.728,,-544,22,839
00:39:24.765,,-538,36,849
00:39:24.802,,-531,32,857
00:39:24.839,,-534,17,858
00:39:24.876,,-553,9,859
00:39:24.913,,-575,25,842
00:39:24.950,,-585,53,868
00:39:24.987,,-569,73,899
00:39:25.024,,-526,97,904
00:39:25.061,,-495,97,888
00:39:25.098,,-485,69,849
00:39:25.135,,-494,43,836
00:39:25.172,,-501,27,826
00:39:25.210,,-507,27,865
00:39:25.247,,-510,47,898
00:39:25.284,,-520,58,916
00:39:25.321,,-537,49,910
00:39:25.358,,-555,45,881
00:39:25.395,,-555,53,858
00:39:25.432,,-549,59,844
00:39:25.469,,-539,79,840
00:39:25.506,,-535,95,854
00:39:25.543,,-534,95,861
00:39:25.580,,-533,91,862
00:39:25.617,,-529,80,855
00:39:25.654,,-520,60,819
00:39:25.691,,-505,44,806
00:39:25.728,,-473,83,823
00:39:25.765,,-452,106,866
00:39:25.802,,-462,107,875
00:39:25.840,,-490,119,891
00:39:25.877,,-508,125,895
00:39:25.914,,-517,135,885
00:39:25.951,,-518,143,903
00:39:25.988,,-525,151,921
00:39:26.025,,-518,159,901
00:39:26.062,,-495,171,885
00:39:26.099,,-477,174,828
00:39:26.136,,-459,175,805
00:39:26.173,,-449,221,842
00:39:26.210,,-447,251,854
00:39:26.247,,-454,301,878
00:39:26.284,,-473,304,882
00:39:26.321,,-478,293,848
00:39:26.358,,-474,314,856
00:39:26.395,,-471,328,835
00:39:26.432,,-464,339,827
00:39:26.470,,-465,349,831
00:39:26.507,,-459,375,831
00:39:26.544,,-447,381,840
00:39:26.581,,-432,376,844
00:39:26.618,,-412,364,858
00:39:26.655,,-392,349,874
00:39:26.692,,-376,318,858
00:39:26.729,,-386,295,788
00:39:26.766,,-411,303,720
00:39:26.803,,-410,343,655
00:39:26.840,,-389,426,578
00:39:26.877,,-360,526,628
00:39:26.914,,-344,633,653
00:39:26.951,,-328,752,666
00:39:26.988,,-304,796,643
00:39:27.025,,-290,945,556
00:39:27.062,,-214,1124,502
00:39:27.100,,-149,1101,255
00:39:27.137,,-140,1102,152
00:39:27.174,,-86,1079,45
00:39:27.211,,-67,1010,-3
00:39:27.248,,-77,929,-30
00:39:27.285,,-66,920,-18
00:39:27.322,,-60,904,-26
00:39:27.359,,-5,752,-293
00:39:27.396,,-114,1029,-253
00:39:27.433,,-143,1055,-264
00:39:27.470,,-136,852,-383
00:39:27.507,,-140,851,-438
00:39:27.544,,-139,900,-432
00:39:27.581,,-125,851,-479
00:39:27.618,,-136,819,-494
00:39:27.655,,-136,869,-489
00:39:27.692,,-123,858,-488
00:39:27.730,,-124,864,-469
00:39:27.767,,-118,867,-527
00:39:27.804,,-135,820,-605
00:39:27.841,,-153,804,-604
00:39:27.878,,-135,775,-589
00:39:27.915,,-107,788,-534
00:39:27.952,,-79,814,-446
00:39:27.989,,-37,812,-421
00:39:28.026,,-6,754,-481
00:39:28.063,,-6,772,-550
00:39:28.100,,5,765,-653
00:39:28.137,,18,669,-661
00:39:28.174,,40,650,-677
00:39:28.211,,46,620,-659
00:39:28.248,,51,678,-687
00:39:28.285,,40,606,-799
00:39:28.323,,27,590,-836
00:39:28.360,,42,500,-895
00:39:28.397,,25,417,-900
00:39:28.434,,13,307,-928
00:39:28.471,,12,237,-945
00:39:28.508,,36,221,-959
00:39:28.545,,41,293,-929
00:39:28.582,,19,359,-919
00:39:28.619,,14,367,-1004
00:39:28.656,,29,227,-983
00:39:28.693,,43,245,-946
00:39:28.730,,58,255,-917
00:39:28.767,,64,239,-894
00:39:28.804,,55,246,-886
00:39:28.841,,19,278,-901
00:39:28.878,,-10,315,-924
00:39:28.916,,-36,318,-939
00:39:28.953,,-46,303,-956
00:39:28.990,,-36,283,-951
00:39:29.027,,-28,269,-937
00:39:29.064,,-14,267,-932
00:39:29.101,,-12,260,-931
00:39:29.138,,-14,271,-932
00:39:29.175,,-17,312,-943
00:39:29.212,,-10,335,-945
00:39:29.249,,-2,316,-935
00:39:29.286,,-1,299,-937
00:39:29.323,,0,282,-918
00:39:29.360,,-7,276,-910
00:39:29.397,,-18,278,-929
00:39:29.434,,-27,290,-928
00:39:29.471,,-30,303,-941
00:39:29.508,,-23,306,-951
00:39:29.546,,-21,303,-942
00:39:29.583,,-20,285,-933
00:39:29.620,,-26,285,-928
00:39:29.657,,-20,279,-929
00:39:29.694,,-22,277,-928
00:39:29.731,,-31,289,-934
