Sensors' Acquisition [Hz]: Acc@26.0 
hh:mm:ss.ms, Annotation , AccX [mg], AccY, AccZ
18:20:52.360,,-540,649,-532
18:20:52.397,,-639,694,-569
18:20:52.420,>walk,,,
18:20:52.434,,-781,746,-623
18:20:52.471,,-766,781,-535
18:20:52.508,,-690,730,-475
18:20:52.544,,-648,635,-470
18:20:52.581,,-613,624,-466
18:20:52.618,,-593,618,-426
18:20:52.655,,-606,701,-348
18:20:52.692,,-632,697,-292
18:20:52.729,,-664,597,-258
18:20:52.766,,-680,549,-258
18:20:52.803,,-688,508,-236
18:20:52.840,,-694,479,-250
18:20:52.876,,-682,504,-239
18:20:52.913,,-688,604,-266
18:20:52.950,,-660,801,-458
18:20:52.987,,-460,839,-560
18:20:53.024,,-312,1034,-484
18:20:53.061,,-420,1092,-329
18:20:53.098,,-599,877,-341
18:20:53.135,,-682,815,-332
18:20:53.171,,-557,660,-257
18:20:53.208,,-480,573,-238
18:20:53.245,,-471,601,-243
18:20:53.282,,-514,679,-241
18:20:53.319,,-567,824,-196
18:20:53.356,,-556,974,-92
18:20:53.393,,-495,955,-51
18:20:53.430,,-423,816,-10
18:20:53.466,,-396,766,27
18:20:53.503,,-415,771,54
18:20:53.540,,-473,795,52
18:20:53.577,,-539,895,63
18:20:53.614,,-646,940,61
18:20:53.651,,-727,966,45
18:20:53.688,,-764,974,-124
18:20:53.725,,-776,815,-428
18:20:53.762,,-690,686,-500
18:20:53.798,,-563,903,-135
18:20:53.835,,-523,945,-91
18:20:53.872,,-412,850,-125
18:20:53.909,,-297,670,-53
18:20:53.946,,-289,553,-48
18:20:53.983,,-330,573,-51
18:20:54.020,,-404,605,-38
18:20:54.056,,-484,778,-35
18:20:54.093,,-561,921,-53
18:20:54.130,,-619,967,-124
18:20:54.167,,-621,982,-126
18:20:54.204,,-631,1022,-15
18:20:54.241,,-622,1082,26
18:20:54.278,,-635,905,-200
18:20:54.315,,-581,752,-363
18:20:54.352,,-393,877,-253
18:20:54.388,,-368,936,-159
18:20:54.425,,-522,915,-130
18:20:54.462,,-589,837,-121
18:20:54.499,,-449,727,-37
18:20:54.536,,-288,646,25
18:20:54.573,,-252,675,76
18:20:54.610,,-328,643,48
18:20:54.646,,-415,756,-27
18:20:54.683,,-466,855,-30
18:20:54.720,,-533,1081,6
18:20:54.757,,-606,1197,53
18:20:54.794,,-649,1239,5
18:20:54.831,,-709,1036,-301
18:20:54.868,,-806,630,-352
18:20:54.905,,-846,795,-178
18:20:54.942,,-722,852,-102
18:20:54.978,,-475,722,-108
18:20:55.015,,-359,542,-34
18:20:55.052,,-360,422,-36
18:20:55.089,,-369,408,-30
18:20:55.126,,-442,625,-26
18:20:55.163,,-595,853,-79
18:20:55.200,,-643,903,-45
18:20:55.236,,-661,982,-56
18:20:55.273,,-596,945,-57
18:20:55.310,,-577,958,37
18:20:55.347,,-587,976,99
18:20:55.384,,-653,928,-254
18:20:55.421,,-553,756,-431
18:20:55.458,,-376,1019,-275
18:20:55.495,,-386,1048,-178
18:20:55.531,,-522,883,-129
18:20:55.568,,-528,823,-90
18:20:55.605,,-374,694,-50
18:20:55.642,,-259,642,-48
18:20:55.679,,-269,644,-5
18:20:55.716,,-351,715,2
18:20:55.753,,-446,775,-50
18:20:55.790,,-504,861,-98
18:20:55.826,,-580,992,-126
18:20:55.863,,-614,1100,-124
18:20:55.900,,-684,1226,-322
18:20:55.937,,-812,961,-471
18:20:55.974,,-914,881,-284
18:20:56.011,,-819,802,-327
18:20:56.048,,-591,600,-211
18:20:56.085,,-359,662,-188
18:20:56.122,,-519,322,20
18:20:56.159,,-469,404,3
18:20:56.196,,-425,284,-11
18:20:56.233,,-437,643,-97
18:20:56.270,,-750,1052,-106
18:20:56.306,,-759,840,149
18:20:56.343,,-659,835,-51
18:20:56.380,,-678,867,-31
18:20:56.417,,-713,966,-107
18:20:56.454,,-850,1118,-313
18:20:56.491,,-408,986,-279
18:20:56.528,,-429,871,-293
18:20:56.565,,-489,764,-188
18:20:56.602,,-467,641,-123
18:20:56.639,,-398,536,-98
18:20:56.676,,-330,622,-98
18:20:56.713,,-374,566,-58
18:20:56.750,,-458,713,-65
18:20:56.787,,-546,786,-87
18:20:56.824,,-610,907,-135
18:20:56.861,,-672,944,-205
18:20:56.898,,-657,1019,-102
18:20:56.935,,-636,1062,-85
18:20:56.972,,-842,966,-364
18:20:57.008,,-966,567,-441
18:20:57.045,,-816,796,-219
18:20:57.082,,-615,768,-127
18:20:57.119,,-524,590,-102
18:20:57.156,,-493,497,-80
18:20:57.193,,-489,409,-68
18:20:57.230,,-474,447,-40
18:20:57.267,,-511,594,-20
18:20:57.304,,-640,732,-80
18:20:57.341,,-704,730,-93
18:20:57.378,,-736,912,-79
18:20:57.415,,-736,965,-60
18:20:57.452,,-766,1006,-14
18:20:57.489,,-775,1004,-378
18:20:57.526,,-584,753,-473
18:20:57.563,,-372,946,-219
18:20:57.600,,-451,978,-161
18:20:57.636,,-558,778,-165
18:20:57.673,,-505,671,-118
18:20:57.710,,-428,524,-52
18:20:57.747,,-359,584,-75
18:20:57.784,,-402,649,-59
18:20:57.821,,-459,702,-67
18:20:57.858,,-524,779,-69
18:20:57.895,,-603,853,-128
18:20:57.932,,-652,912,-153
18:20:57.969,,-704,1070,-10
18:20:58.006,,-873,1177,-299
18:20:58.043,,-859,959,-408
18:20:58.080,,-843,805,-252
18:20:58.117,,-749,714,-268
18:20:58.154,,-590,569,-154
18:20:58.191,,-447,512,-108
18:20:58.227,,-370,444,-83
18:20:58.264,,-408,473,-126
18:20:58.301,,-481,490,-103
18:20:58.338,,-500,621,-58
18:20:58.375,,-616,714,-30
18:20:58.412,,-692,817,-48
18:20:58.449,,-757,899,-199
18:20:58.486,,-730,910,-130
18:20:58.523,,-847,1223,-484
18:20:58.560,,-674,823,-755
18:20:58.597,,-491,1199,-285
18:20:58.634,,-635,1233,-145
18:20:58.671,,-653,753,-192
18:20:58.708,,-466,517,-110
18:20:58.745,,-372,358,-4
18:20:58.782,,-243,336,-47
18:20:58.819,,-325,394,-69
18:20:58.856,,-436,621,-51
18:20:58.893,,-580,757,-110
18:20:58.929,,-821,929,-191
18:20:58.966,,-794,1024,-157
18:20:59.003,,-846,1156,-128
18:20:59.040,,-914,1089,-509
18:20:59.077,,-819,654,-521
18:20:59.114,,-780,923,-313
18:20:59.151,,-706,697,-281
18:20:59.188,,-518,551,-209
18:20:59.225,,-404,443,-154
18:20:59.262,,-343,405,-124
18:20:59.299,,-376,381,-142
18:20:59.336,,-442,493,-150
18:20:59.373,,-533,710,-159
18:20:59.410,,-689,853,-203
18:20:59.446,,-782,979,-244
18:20:59.483,,-786,956,-275
18:20:59.520,,-850,1048,-429
18:20:59.557,,-785,786,-727
18:20:59.594,,-492,926,-581
18:20:59.631,,-536,1110,-435
18:20:59.668,,-611,900,-316
18:20:59.705,,-516,650,-228
18:20:59.742,,-337,337,-73
18:20:59.779,,-272,243,-30
18:20:59.815,,-223,391,-22
18:20:59.852,,-347,629,-113
18:20:59.889,,-584,843,-133
18:20:59.926,,-708,932,-224
18:20:59.963,,-803,1045,-246
18:21:00.000,,-871,1043,-114
18:21:00.037,,-819,986,-355
18:21:00.074,,-968,800,-644
18:21:00.111,,-861,710,-462
18:21:00.147,,-811,822,-262
18:21:00.184,,-587,589,-208
18:21:00.221,,-454,435,-125
18:21:00.258,,-326,360,-97
18:21:00.295,,-317,347,-105
18:21:00.332,,-402,428,-97
18:21:00.369,,-557,707,-126
18:21:00.406,,-681,846,-125
18:21:00.443,,-744,1007,-148
18:21:00.479,,-801,960,-174
18:21:00.516,,-928,1102,-205
18:21:00.553,,-873,988,-647
18:21:00.590,,-422,800,-443
18:21:00.627,,-526,1173,-266
18:21:00.664,,-646,826,-309
18:21:00.701,,-576,649,-171
18:21:00.738,,-368,487,-73
18:21:00.775,,-302,345,-43
18:21:00.812,,-277,443,-61
18:21:00.848,,-350,529,-67
18:21:00.885,,-512,744,-90
18:21:00.922,,-643,824,-160
18:21:00.959,,-760,998,-203
18:21:00.996,,-849,1126,-139
18:21:01.033,,-919,1295,-364
18:21:01.070,,-878,838,-608
18:21:01.107,,-816,781,-355
18:21:01.144,,-777,748,-257
18:21:01.180,,-601,562,-193
18:21:01.217,,-442,492,-134
18:21:01.254,,-370,437,-105
18:21:01.291,,-302,349,-99
18:21:01.328,,-402,452,-94
18:21:01.365,,-499,590,-109
18:21:01.402,,-692,714,-108
18:21:01.439,,-801,928,-135
18:21:01.476,,-801,972,-200
18:21:01.513,,-815,1012,-206
18:21:01.549,,-896,1116,-613
18:21:01.586,,-439,807,-641
18:21:01.623,,-366,1141,-443
18:21:01.660,,-583,1018,-292
18:21:01.697,,-566,673,-241
18:21:01.734,,-353,531,-130
18:21:01.771,,-296,439,-47
18:21:01.808,,-276,384,-84
18:21:01.845,,-367,504,-127
18:21:01.882,,-499,646,-148
18:21:01.918,,-629,875,-224
18:21:01.955,,-822,974,-274
18:21:01.992,,-861,1049,-202
18:21:02.029,,-925,1104,-431
18:21:02.066,,-1001,843,-738
18:21:02.103,,-936,683,-551
18:21:02.140,,-767,610,-426
18:21:02.177,,-597,548,-228
18:21:02.213,,-396,439,-167
18:21:02.250,,-294,345,-138
18:21:02.287,,-296,310,-132
18:21:02.324,,-394,389,-196
18:21:02.361,,-541,606,-189
18:21:02.398,,-687,822,-174
18:21:02.435,,-772,993,-210
18:21:02.472,,-796,1036,-278
18:21:02.509,,-766,1024,-261
18:21:02.546,,-707,1142,-707
18:21:02.582,,-752,640,-680
18:21:02.619,,-457,1024,-474
18:21:02.656,,-679,994,-422
18:21:02.693,,-646,719,-250
18:21:02.730,,-432,499,-114
18:21:02.767,,-253,304,-78
18:21:02.804,,-205,318,-60
18:21:02.841,,-288,528,-66
18:21:02.878,,-440,661,-55
18:21:02.915,,-640,797,-145
18:21:02.952,,-777,912,-186
18:21:02.988,,-778,1119,-104
18:21:03.025,,-866,1211,-142
18:21:03.062,,-1028,1109,-614
18:21:03.099,,-930,668,-455
18:21:03.136,,-752,845,-201
18:21:03.173,,-619,739,-94
18:21:03.210,,-460,483,-12
18:21:03.246,,-402,374,-45
18:21:03.283,,-352,322,-23
18:21:03.320,,-358,348,6
18:21:03.357,,-443,590,43
18:21:03.394,,-571,788,34
18:21:03.431,,-687,917,-2
18:21:03.468,,-812,1050,-98
18:21:03.504,,-872,1034,-68
18:21:03.541,,-950,1162,-462
18:21:03.578,,-728,794,-645
18:21:03.615,,-486,1093,-387
18:21:03.652,,-638,1104,-281
18:21:03.689,,-680,782,-201
18:21:03.726,,-474,441,-114
18:21:03.763,,-270,322,-37
18:21:03.799,,-202,271,-24
18:21:03.836,,-270,384,-10
18:21:03.873,,-459,596,-41
18:21:03.910,,-690,859,-116
18:21:03.947,,-860,1079,-170
18:21:03.984,,-832,1146,-88
18:21:04.021,,-877,1108,-170
18:21:04.057,,-984,909,-630
18:21:04.094,,-900,651,-432
18:21:04.131,,-836,848,-311
18:21:04.168,,-703,677,-211
18:21:04.205,,-533,431,-145
18:21:04.242,,-385,357,-105
18:21:04.279,,-343,323,-72
18:21:04.316,,-392,334,-98
18:21:04.352,,-557,521,-84
18:21:04.389,,-669,741,-75
18:21:04.426,,-799,887,-100
18:21:04.463,,-825,890,-204
18:21:04.500,,-854,925,-172
18:21:04.537,,-985,1103,-440
18:21:04.574,,-875,750,-718
18:21:04.611,,-553,902,-553
18:21:04.648,,-577,1019,-359
18:21:04.684,,-686,784,-264
18:21:04.721,,-588,477,-166
18:21:04.758,,-358,375,-64
18:21:04.795,,-248,339,-82
18:21:04.832,,-269,366,-84
18:21:04.869,,-412,590,-45
18:21:04.906,,-612,862,-144
18:21:04.943,,-749,851,-183
18:21:04.980,,-820,1059,-226
18:21:05.017,,-865,1173,-103
18:21:05.053,,-988,1047,-505
18:21:05.090,,-924,676,-665
18:21:05.127,,-843,790,-416
18:21:05.164,,-796,703,-290
18:21:05.201,,-561,552,-170
18:21:05.238,,-373,357,-80
18:21:05.275,,-322,337,-76
18:21:05.312,,-369,295,3
18:21:05.349,,-445,480,-158
18:21:05.386,,-612,618,-92
18:21:05.423,,-795,847,-95
18:21:05.460,,-898,993,-175
18:21:05.497,,-924,988,-277
18:21:05.534,,-980,1047,-531
18:21:05.571,,-788,782,-786
18:21:05.608,,-440,942,-435
18:21:05.644,,-531,1017,-395
18:21:05.681,,-622,752,-348
18:21:05.718,,-497,437,-201
18:21:05.755,,-357,386,-102
18:21:05.792,,-291,370,-26
18:21:05.829,,-325,463,-109
18:21:05.866,,-453,575,-111
18:21:05.903,,-584,745,-128
18:21:05.940,,-729,846,-213
18:21:05.977,,-808,945,-238
18:21:06.014,,-909,1171,-116
18:21:06.051,,-1059,1146,-467
18:21:06.088,,-887,753,-612
18:21:06.125,,-820,699,-394
18:21:06.162,,-778,633,-268
18:21:06.199,,-580,479,-142
18:21:06.235,,-399,354,-82
18:21:06.272,,-320,328,-92
18:21:06.309,,-372,251,-61
18:21:06.346,,-491,414,-112
18:21:06.383,,-646,726,-111
18:21:06.420,,-765,771,-98
18:21:06.457,,-868,1008,-157
18:21:06.494,,-947,998,-234
18:21:06.531,,-1047,1044,-514
18:21:06.568,,-835,790,-781
18:21:06.605,,-434,964,-437
18:21:06.642,,-553,1091,-349
18:21:06.679,,-649,705,-280
18:21:06.716,,-496,409,-189
18:21:06.753,,-313,347,-86
18:21:06.790,,-254,333,-45
18:21:06.827,,-310,448,-99
18:21:06.863,,-499,604,-91
18:21:06.900,,-668,717,-167
18:21:06.937,,-768,826,-222
18:21:06.974,,-840,1090,-225
18:21:07.011,,-945,1232,-298
18:21:07.048,,-1044,1005,-762
18:21:07.085,,-891,727,-588
18:21:07.122,,-805,806,-366
18:21:07.159,,-659,590,-219
18:21:07.196,,-423,401,-132
18:21:07.233,,-288,338,-108
18:21:07.270,,-279,296,-111
18:21:07.307,,-360,379,-115
18:21:07.344,,-554,579,-163
18:21:07.381,,-735,763,-148
18:21:07.418,,-838,961,-154
18:21:07.455,,-896,986,-254
18:21:07.491,,-883,989,-208
18:21:07.528,,-942,1056,-647
18:21:07.565,,-460,917,-401
18:21:07.602,,-611,949,-330
18:21:07.639,,-634,646,-242
18:21:07.676,,-438,479,-125
18:21:07.713,,-322,312,4
18:21:07.750,,-248,378,-45
18:21:07.787,,-330,496,-111
18:21:07.824,,-518,675,-130
18:21:07.861,,-672,883,-187
18:21:07.898,,-783,976,-251
18:21:07.935,,-871,1048,-290
18:21:07.972,,-932,1126,-402
18:21:08.009,,-977,890,-723
18:21:08.046,,-870,685,-553
18:21:08.082,,-791,649,-346
18:21:08.119,,-638,472,-248
18:21:08.156,,-448,362,-181
18:21:08.193,,-337,328,-132
18:21:08.230,,-359,356,-130
18:21:08.267,,-484,424,-144
18:21:08.304,,-638,545,-169
18:21:08.341,,-732,727,-169
18:21:08.378,,-833,943,-189
18:21:08.415,,-846,929,-251
18:21:08.452,,-905,925,-245
18:21:08.489,,-961,987,-639
18:21:08.526,,-622,691,-643
18:21:08.563,,-426,995,-367
18:21:08.599,,-617,899,-332
18:21:08.636,,-628,661,-253
18:21:08.673,,-401,469,-143
18:21:08.710,,-260,449,-120
18:21:08.747,,-257,445,-126
18:21:08.784,,-353,572,-145
18:21:08.821,,-493,673,-152
18:21:08.858,,-653,804,-192
18:21:08.895,,-781,928,-296
18:21:08.932,,-840,1071,-228
18:21:08.969,,-1023,1200,-537
18:21:09.005,,-996,781,-770
18:21:09.042,,-817,711,-422
18:21:09.079,,-738,640,-354
18:21:09.116,,-600,450,-204
18:21:09.153,,-432,345,-164
18:21:09.190,,-321,330,-111
18:21:09.227,,-340,345,-132
18:21:09.264,,-464,474,-174
18:21:09.301,,-621,621,-186
18:21:09.338,,-739,774,-187
18:21:09.375,,-842,1003,-225
18:21:09.411,,-853,925,-270
18:21:09.448,,-988,1113,-427
18:21:09.485,,-877,791,-745
18:21:09.522,,-456,811,-507
18:21:09.559,,-442,979,-429
18:21:09.596,,-595,814,-360
18:21:09.633,,-538,526,-218
18:21:09.670,,-359,419,-128
18:21:09.707,,-275,393,-124
18:21:09.744,,-330,468,-145
18:21:09.780,,-493,637,-182
18:21:09.817,,-578,729,-197
18:21:09.854,,-662,856,-253
18:21:09.891,,-776,960,-284
18:21:09.928,,-860,1069,-245
18:21:09.965,,-949,1040,-559
18:21:10.002,,-855,728,-592
18:21:10.039,,-800,656,-440
18:21:10.076,,-760,657,-318
18:21:10.113,,-596,524,-193
18:21:10.149,,-408,397,-126
18:21:10.186,,-353,378,-129
18:21:10.223,,-401,353,-130
18:21:10.260,,-521,438,-164
18:21:10.297,,-619,600,-133
18:21:10.334,,-768,789,-149
18:21:10.371,,-846,935,-212
18:21:10.408,,-896,936,-223
18:21:10.445,,-980,1062,-288
18:21:10.482,,-945,824,-682
18:21:10.519,,-526,751,-529
18:21:10.555,,-437,868,-375
18:21:10.592,,-645,813,-333
18:21:10.629,,-625,626,-210
18:21:10.666,,-406,466,-137
18:21:10.703,,-327,390,-165
18:21:10.740,,-340,420,-152
18:21:10.777,,-469,587,-136
18:21:10.814,,-587,715,-130
18:21:10.851,,-747,810,-238
18:21:10.887,,-829,889,-309
18:21:10.924,,-901,1125,-183
18:21:10.961,,-1010,1072,-456
18:21:10.998,,-923,577,-696
18:21:11.035,,-797,574,-461
18:21:11.072,,-711,670,-314
18:21:11.109,,-569,642,-212
18:21:11.146,,-386,449,-149
18:21:11.183,,-343,395,-149
18:21:11.219,,-415,377,-149
18:21:11.256,,-551,451,-142
18:21:11.293,,-665,679,-114
18:21:11.330,,-795,776,-135
18:21:11.367,,-890,1017,-245
18:21:11.404,,-998,1036,-273
18:21:11.441,,-982,1016,-577
18:21:11.478,,-695,649,-807
18:21:11.515,,-378,847,-504
18:21:11.552,,-538,959,-423
18:21:11.588,,-635,685,-310
18:21:11.625,,-499,407,-179
18:21:11.662,,-318,325,-138
18:21:11.699,,-294,352,-130
18:21:11.736,,-373,513,-154
18:21:11.773,,-535,648,-169
18:21:11.810,,-644,800,-223
18:21:11.847,,-818,917,-297
18:21:11.884,,-930,1148,-296
18:21:11.921,,-976,1164,-309
18:21:11.957,,-919,807,-613
18:21:11.994,,-777,495,-636
18:21:12.031,,-689,533,-432
18:21:12.068,,-671,587,-314
18:21:12.105,,-536,505,-205
18:21:12.142,,-409,401,-156
18:21:12.179,,-393,397,-190
18:21:12.216,,-472,421,-172
18:21:12.253,,-567,525,-154
18:21:12.290,,-649,657,-116
18:21:12.326,,-735,778,-127
18:21:12.363,,-880,887,-221
18:21:12.400,,-966,927,-304
18:21:12.437,,-1059,1049,-434
18:21:12.474,,-879,847,-662
18:21:12.511,,-525,764,-579
18:21:12.548,,-456,759,-435
18:21:12.585,,-545,726,-300
18:21:12.622,,-520,551,-191
18:21:12.659,,-409,394,-134
18:21:12.696,,-335,367,-142
18:21:12.732,,-346,437,-132
18:21:12.769,,-461,601,-135
18:21:12.806,,-603,779,-186
18:21:12.843,,-723,845,-224
18:21:12.880,,-830,930,-304
18:21:12.917,,-925,1057,-196
18:21:12.954,,-971,1136,-352
18:21:12.991,,-906,740,-612
18:21:13.028,,-820,455,-546
18:21:13.064,,-750,548,-406
18:21:13.101,,-691,551,-292
18:21:13.138,,-565,497,-170
18:21:13.175,,-464,397,-131
18:21:13.212,,-454,336,-180
18:21:13.249,,-464,296,-163
18:21:13.286,,-568,422,-155
18:21:13.323,,-660,565,-104
18:21:13.360,,-757,761,-95
18:21:13.397,,-823,778,-176
18:21:13.434,,-920,858,-339
18:21:13.471,,-975,989,-251
18:21:13.507,,-1037,1081,-515
18:21:13.544,,-824,620,-863
18:21:13.581,,-415,774,-702
18:21:13.618,,-472,842,-571
18:21:13.655,,-652,765,-435
18:21:13.692,,-690,580,-252
18:21:13.729,,-531,414,-184
18:21:13.766,,-375,424,-167
18:21:13.803,,-370,412,-186
18:21:13.840,,-416,462,-228
18:21:13.877,,-532,635,-307
18:21:13.914,,-694,815,-393
18:21:13.951,,-891,1079,-416
18:21:13.988,,-1087,1300,-432
18:21:14.024,,-906,1048,-462
18:21:14.061,,-697,732,-725
18:21:14.098,,-677,453,-952
18:21:14.135,,-672,474,-972
18:21:14.172,,-633,603,-746
18:21:14.209,,-652,602,-556
18:21:14.246,,-650,546,-421
18:21:14.283,,-587,497,-319
18:21:14.320,,-496,391,-282
18:21:14.357,,-385,318,-213
18:21:14.394,,-330,284,-197
18:21:14.431,,-331,305,-156
18:21:14.468,,-442,423,-161
18:21:14.505,,-581,523,-185
18:21:14.542,,-714,646,-225
18:21:14.579,,-785,758,-291
18:21:14.616,,-889,978,-322
18:21:14.652,,-947,1125,-407
18:21:14.689,,-979,1023,-639
18:21:14.726,,-681,862,-582
18:21:14.763,,-430,666,-587
18:21:14.800,,-306,499,-522
18:21:14.837,,-388,601,-348
18:21:14.874,,-572,651,-354
18:21:14.911,,-503,566,-275
18:21:14.948,,-381,469,-241
18:21:14.985,,-340,457,-237
18:21:15.022,,-416,484,-242
18:21:15.059,,-514,604,-219
18:21:15.096,,-609,769,-290
18:21:15.133,,-702,807,-337
18:21:15.170,,-792,955,-421
18:21:15.206,,-905,1085,-348
18:21:15.243,,-983,1108,-543
18:21:15.280,,-819,690,-691
18:21:15.317,,-635,434,-628
18:21:15.354,,-643,241,-499
18:21:15.391,,-670,341,-320
18:21:15.428,,-608,473,-279
18:21:15.465,,-482,442,-237
18:21:15.502,,-488,422,-235
18:21:15.539,,-583,378,-225
18:21:15.576,,-651,447,-237
18:21:15.613,,-744,624,-264
18:21:15.649,,-814,786,-267
18:21:15.686,,-834,848,-362
18:21:15.723,,-890,905,-400
18:21:15.760,,-986,985,-490
18:21:15.797,,-866,711,-746
18:21:15.834,,-407,711,-645
18:21:15.871,,-340,674,-507
18:21:15.908,,-496,635,-389
18:21:15.945,,-597,556,-288
18:21:15.982,,-462,528,-236
18:21:16.019,,-311,459,-211
18:21:16.055,,-293,448,-216
18:21:16.092,,-368,549,-220
18:21:16.129,,-522,750,-238
18:21:16.166,,-656,933,-285
18:21:16.203,,-759,991,-394
18:21:16.240,,-830,1090,-408
18:21:16.277,,-876,1101,-557
18:21:16.314,,-836,700,-667
18:21:16.351,,-757,428,-625
18:21:16.388,,-754,372,-504
18:21:16.425,,-713,480,-334
18:21:16.461,,-540,595,-290
18:21:16.498,,-421,501,-225
18:21:16.535,,-400,410,-183
18:21:16.572,,-479,359,-204
18:21:16.609,,-581,488,-200
18:21:16.646,,-685,684,-228
18:21:16.683,,-768,852,-247
18:21:16.720,,-800,915,-323
18:21:16.757,,-803,898,-355
18:21:16.794,,-867,1040,-364
18:21:16.831,,-842,798,-604
18:21:16.868,,-564,661,-635
18:21:16.904,,-377,681,-538
18:21:16.941,,-508,659,-403
18:21:16.978,,-605,663,-263
18:21:17.015,,-549,558,-217
18:21:17.052,,-413,434,-201
18:21:17.089,,-343,419,-194
18:21:17.126,,-375,506,-177
18:21:17.163,,-482,696,-176
18:21:17.200,,-580,883,-233
18:21:17.237,,-647,945,-306
18:21:17.274,,-734,1038,-370
18:21:17.311,,-822,1093,-362
18:21:17.348,,-891,989,-519
18:21:17.384,,-806,700,-586
18:21:17.421,,-718,449,-556
18:21:17.458,,-688,394,-439
18:21:17.495,,-640,486,-282
18:21:17.532,,-522,540,-236
18:21:17.569,,-439,531,-189
18:21:17.606,,-485,458,-179
18:21:17.643,,-552,443,-204
18:21:17.680,,-645,552,-219
18:21:17.717,,-717,722,-221
18:21:17.754,,-758,842,-262
18:21:17.791,,-779,928,-332
18:21:17.828,,-825,987,-310
18:21:17.865,,-916,1036,-508
18:21:17.901,,-724,737,-654
18:21:17.938,,-391,717,-612
18:21:17.975,,-405,627,-494
18:21:18.012,,-581,635,-341
18:21:18.049,,-609,646,-234
18:21:18.086,,-435,547,-201
18:21:18.123,,-320,462,-207
18:21:18.160,,-320,451,-198
18:21:18.197,,-429,566,-200
18:21:18.234,,-547,772,-217
18:21:18.271,,-612,936,-257
18:21:18.308,,-682,1041,-327
18:21:18.345,,-749,1064,-313
18:21:18.382,,-845,1103,-372
18:21:18.418,,-845,861,-520
18:21:18.455,,-735,638,-517
18:21:18.492,,-691,424,-506
18:21:18.529,,-703,374,-384
18:21:18.566,,-638,501,-259
18:21:18.603,,-507,542,-173
18:21:18.640,,-506,475,-169
18:21:18.677,,-570,489,-169
18:21:18.714,,-640,573,-160
18:21:18.751,,-716,710,-148
18:21:18.788,,-776,844,-183
18:21:18.825,,-790,929,-270
18:21:18.862,,-852,988,-242
18:21:18.899,,-969,1101,-315
18:21:18.936,,-799,808,-516
18:21:18.973,,-442,751,-512
18:21:19.009,,-293,653,-471
18:21:19.046,,-405,622,-319
18:21:19.083,,-599,642,-238
18:21:19.120,,-580,603,-208
18:21:19.157,,-445,550,-203
18:21:19.194,,-378,543,-195
18:21:19.231,,-410,579,-180
18:21:19.268,,-492,663,-152
18:21:19.305,,-572,814,-179
18:21:19.342,,-630,914,-231
18:21:19.379,,-734,967,-311
18:21:19.416,,-795,1044,-217
18:21:19.453,,-917,1100,-323
18:21:19.490,,-838,836,-519
18:21:19.527,,-694,543,-525
18:21:19.564,,-637,473,-453
18:21:19.601,,-612,530,-266
18:21:19.638,,-568,624,-207
18:21:19.675,,-485,597,-165
18:21:19.712,,-465,499,-168
18:21:19.748,,-511,417,-181
18:21:19.785,,-562,474,-150
18:21:19.822,,-621,610,-117
18:21:19.859,,-695,822,-112
18:21:19.896,,-765,930,-196
18:21:19.933,,-807,1001,-254
18:21:19.970,,-877,1004,-206
18:21:20.007,,-964,1018,-354
18:21:20.044,,-692,794,-444
18:21:20.081,,-410,718,-466
18:21:20.118,,-370,613,-364
18:21:20.155,,-498,597,-231
18:21:20.192,,-585,617,-178
18:21:20.229,,-512,551,-153
18:21:20.266,,-418,527,-171
18:21:20.303,,-401,533,-170
18:21:20.340,,-480,639,-153
18:21:20.377,,-565,788,-127
18:21:20.414,,-643,908,-167
18:21:20.451,,-755,902,-267
18:21:20.488,,-807,940,-238
18:21:20.525,,-863,1069,-186
18:21:20.562,,-874,1002,-383
18:21:20.599,,-820,712,-468
18:21:20.636,,-726,477,-473
18:21:20.673,,-695,389,-391
18:21:20.710,,-628,487,-229
18:21:20.747,,-523,575,-165
18:21:20.783,,-470,562,-133
18:21:20.820,,-511,474,-145
18:21:20.857,,-575,432,-187
18:21:20.894,,-640,505,-153
18:21:20.931,,-732,704,-120
18:21:20.968,,-803,835,-133
18:21:21.005,,-826,860,-260
18:21:21.042,,-870,906,-257
18:21:21.079,,-913,1119,-211
18:21:21.116,,-867,863,-440
18:21:21.153,,-552,756,-524
18:21:21.190,,-379,649,-484
18:21:21.227,,-450,635,-305
18:21:21.264,,-587,620,-223
18:21:21.301,,-560,572,-185
18:21:21.338,,-434,499,-175
18:21:21.375,,-395,473,-206
18:21:21.412,,-444,552,-177
18:21:21.449,,-533,684,-137
18:21:21.486,,-635,811,-136
18:21:21.523,,-770,913,-228
18:21:21.560,,-887,913,-317
18:21:21.597,,-882,1006,-203
18:21:21.634,,-947,1031,-396
18:21:21.671,,-844,709,-489
18:21:21.708,,-730,508,-473
18:21:21.745,,-707,399,-427
18:21:21.782,,-653,515,-248
18:21:21.819,,-502,612,-166
18:21:21.856,,-441,560,-112
18:21:21.893,,-458,457,-114
18:21:21.930,,-551,390,-173
18:21:21.967,,-627,488,-168
18:21:22.004,,-708,674,-137
18:21:22.041,,-790,822,-136
18:21:22.078,,-829,885,-211
18:21:22.115,,-856,884,-277
18:21:22.152,,-933,1007,-300
18:21:22.189,,-914,965,-469
18:21:22.226,,-618,850,-492
18:21:22.263,,-411,663,-485
18:21:22.300,,-423,556,-362
18:21:22.337,,-535,579,-214
18:21:22.374,,-546,566,-161
18:21:22.411,,-491,505,-162
18:21:22.448,,-442,470,-169
18:21:22.485,,-498,566,-135
18:21:22.522,,-567,710,-90
18:21:22.559,,-669,847,-82
18:21:22.596,,-764,884,-191
18:21:22.633,,-835,878,-213
18:21:22.670,,-831,951,-116
18:21:22.706,,-888,902,-355
18:21:22.743,,-886,671,-449
18:21:22.780,,-812,556,-414
18:21:22.817,,-713,531,-334
18:21:22.854,,-644,557,-224
18:21:22.891,,-535,558,-214
18:21:22.928,,-479,586,-177
18:21:22.965,,-497,513,-180
18:21:23.002,,-526,472,-165
18:21:23.039,,-571,553,-164
18:21:23.076,,-638,679,-159
18:21:23.113,,-673,744,-114
18:21:23.150,,-730,752,-216
18:21:23.187,,-785,769,-290
18:21:23.224,,-874,956,-264
18:21:23.261,,-949,1040,-438
18:21:23.298,,-783,760,-581
18:21:23.335,,-513,749,-561
18:21:23.372,,-423,602,-443
18:21:23.409,,-538,581,-300
18:21:23.446,,-622,546,-267
18:21:23.483,,-536,539,-227
18:21:23.520,,-433,513,-246
18:21:23.557,,-432,526,-241
18:21:23.594,,-482,607,-193
18:21:23.631,,-552,726,-183
18:21:23.668,,-636,827,-200
18:21:23.705,,-736,859,-276
18:21:23.742,,-798,898,-305
18:21:23.779,,-835,969,-277
18:21:23.816,,-912,857,-570
18:21:23.853,,-862,538,-641
18:21:23.890,,-767,537,-448
18:21:23.927,,-725,594,-355
18:21:23.964,,-617,569,-278
18:21:24.001,,-486,539,-242
18:21:24.038,,-480,477,-224
18:21:24.075,,-470,434,-195
18:21:24.112,,-471,502,-174
18:21:24.149,,-490,637,-156
18:21:24.186,,-575,730,-162
18:21:24.223,,-645,800,-229
18:21:24.260,,-762,814,-314
18:21:24.297,,-902,1037,-370
18:21:24.334,,-912,881,-709
18:21:24.371,,-683,696,-698
18:21:24.408,,-518,800,-523
18:21:24.445,,-596,775,-425
18:21:24.482,,-679,750,-326
18:21:24.519,,-602,635,-289
18:21:24.556,,-447,494,-256
18:21:24.593,,-405,486,-219
18:21:24.630,,-431,498,-178
18:21:24.667,,-470,589,-140
18:21:24.704,,-512,684,-131
18:21:24.741,,-575,841,-222
18:21:24.778,,-660,928,-247
18:21:24.815,,-677,1004,-215
18:21:24.852,,-733,1003,-264
18:21:24.889,,-753,876,-521
18:21:24.926,,-698,619,-557
18:21:24.963,,-694,784,-437
18:21:25.000,,-759,785,-372
18:21:25.037,,-675,778,-333
18:21:25.074,,-546,634,-282
18:21:25.111,,-474,484,-255
18:21:25.148,,-434,433,-257
18:21:25.185,,-471,490,-293
18:21:25.222,,-553,652,-353
18:21:25.259,,-698,819,-356
18:21:25.296,,-786,1019,-260
18:21:25.333,,-820,879,-316
18:21:25.370,,-721,637,-379
18:21:25.407,,-550,615,-342
18:21:25.444,,-453,620,-357
18:21:25.481,,-458,623,-275
18:21:25.518,,-499,694,-290
18:21:25.555,,-516,762,-292
18:21:25.592,,-592,831,-339
18:21:25.629,,-592,902,-326
18:21:25.666,,-531,815,-300
18:21:25.703,,-486,689,-283
18:21:25.740,,-503,634,-273
18:21:25.777,,-553,717,-300
18:21:25.814,,-595,855,-344
18:21:25.851,,-609,866,-339
18:21:25.888,,-627,825,-262
18:21:25.925,,-592,730,-252
18:21:25.962,,-533,633,-269
18:21:25.999,,-524,625,-266
18:21:26.036,,-577,714,-257
18:21:26.073,,-630,783,-236
18:21:26.110,,-627,814,-240
18:21:26.147,,-582,771,-247
18:21:26.184,,-542,720,-240
18:21:26.221,,-553,712,-232
18:21:26.258,,-594,726,-222
18:21:26.295,,-623,755,-231
18:21:26.332,,-632,756,-232
18:21:26.369,,-640,737,-232
18:21:26.406,,-624,717,-241
18:21:26.443,,-615,730,-236
18:21:26.480,,-610,744,-231
18:21:26.517,,-604,760,-233
18:21:26.554,,-599,738,-242
18:21:26.591,,-600,720,-246
18:21:26.628,,-602,731,-240
18:21:26.665,,-611,741,-231
18:21:26.702,,-617,741,-228
18:21:26.739,,-619,746,-239
18:21:26.776,,-613,724,-237
18:21:26.813,,-606,732,-232
18:21:26.850,,-602,730,-232
18:21:26.887,,-605,727,-229
18:21:26.924,,-615,734,-250
18:21:26.961,,-618,736,-257
18:21:26.998,,-611,745,-265
18:21:27.035,,-606,749,-254
18:21:27.072,,-608,753,-238
18:21:27.109,,-600,746,-227
18:21:27.146,,-606,725,-227
18:21:27.183,,-625,723,-233
18:21:27.220,,-637,710,-247
18:21:27.257,,-639,710,-252
18:21:27.294,,-624,723,-245
18:21:27.331,,-611,724,-227
18:21:27.368,,-611,727,-243
18:21:27.405,,-619,724,-241
18:21:27.442,,-634,712,-246
18:21:27.479,,-646,706,-245
18:21:27.516,,-638,705,-230
18:21:27.553,,-628,701,-236
18:21:27.590,,-633,709,-231
18:21:27.627,,-643,705,-259
18:21:27.664,,-642,726,-266
18:21:27.701,,-626,722,-262
18:21:27.738,,-614,714,-249
18:21:27.775,,-618,691,-253
18:21:27.812,,-657,660,-281
18:21:27.849,,-687,653,-280
18:21:27.886,,-675,667,-278
18:21:27.923,,-631,699,-259
18:21:27.960,,-568,720,-244
18:21:27.997,,-540,749,-231
18:21:28.034,,-538,758,-218
18:21:28.071,,-568,785,-227
18:21:28.108,,-621,754,-262
18:21:28.145,,-659,667,-335
18:21:28.182,,-688,650,-334
18:21:28.219,,-664,633,-327
18:21:28.256,,-615,726,-284
18:21:28.293,,-638,691,-293
18:21:28.330,,-663,742,-338
18:21:28.367,,-687,757,-342
18:21:28.404,,-710,686,-347
18:21:28.441,,-693,700,-329
18:21:28.478,,-602,699,-319
18:21:28.515,,-541,728,-311
18:21:28.552,,-546,759,-254
18:21:28.589,,-611,722,-292
18:21:28.626,,-670,708,-487
18:21:28.663,,-484,612,-396
18:21:28.700,,-434,851,-321
18:21:28.737,,-489,951,-255
18:21:28.774,,-541,746,-276
18:21:28.811,,-550,794,-289
18:21:28.848,,-514,727,-246
18:21:28.885,,-517,768,-221
18:21:28.922,,-577,840,-204
18:21:28.959,,-657,826,-207
18:21:28.996,,-676,763,-192
18:21:29.032,,-630,737,-173
18:21:29.069,,-544,717,-162
18:21:29.106,,-505,718,-186
18:21:29.143,,-530,724,-187
18:21:29.181,,-584,757,-187
18:21:29.217,,-645,750,-193
18:21:29.255,,-686,763,-207
18:21:29.292,,-671,777,-215
18:21:29.328,,-643,747,-202
18:21:29.366,,-620,756,-180
18:21:29.403,,-632,798,-193
18:21:29.440,,-667,775,-288
18:21:29.477,,-658,766,-301
18:21:29.514,,-585,717,-206
18:21:29.551,,-561,691,-206
18:21:29.588,,-549,701,-209
18:21:29.625,,-568,743,-230
18:21:29.662,,-644,819,-167
18:21:29.699,,-655,775,-161
18:21:29.736,,-616,728,-218
18:21:29.773,,-607,671,-204
18:21:29.810,,-612,717,-177
18:21:29.847,,-658,758,-186
18:21:29.884,,-705,758,-191
18:21:29.921,,-730,726,-227
18:21:29.958,,-755,769,-248
18:21:29.995,,-745,866,-290
18:21:30.032,,-694,976,-327
18:21:30.069,,-730,1183,-378
18:21:30.105,,-668,1048,-323
18:21:30.143,,-456,829,-310
18:21:30.179,,-306,622,-321
18:21:30.216,,-240,654,-286
18:21:30.254,,-252,750,-201
18:21:30.290,,-402,866,-191
18:21:30.328,,-515,921,-182
18:21:30.365,,-504,927,-214
18:21:30.402,,-418,817,-216
18:21:30.439,,-362,738,-152
18:21:30.476,,-330,724,-130
18:21:30.513,,-339,733,-82
18:21:30.550,,-365,705,-109
18:21:30.587,,-388,696,-117
18:21:30.624,,-363,728,-108
18:21:30.661,,-368,789,-111
18:21:30.698,,-391,855,-92
18:21:30.735,,-433,892,-123
18:21:30.772,,-437,954,-148
18:21:30.809,,-433,1040,-147
18:21:30.846,,-466,1076,-166
18:21:30.883,,-602,1046,-396
18:21:30.920,,-734,822,-435
18:21:30.957,,-704,733,-391
18:21:30.994,,-695,589,-414
18:21:31.031,,-669,578,-341
18:21:31.068,,-612,677,-299
18:21:31.105,,-536,665,-225
18:21:31.142,,-533,623,-189
18:21:31.179,,-527,550,-193
18:21:31.216,,-555,561,-209
18:21:31.253,,-620,683,-215
18:21:31.290,,-657,758,-213
18:21:31.327,,-673,792,-210
18:21:31.364,,-687,791,-217
18:21:31.401,,-673,719,-178
18:21:31.438,,-679,718,-149
18:21:31.475,,-735,724,-131
18:21:31.512,,-887,700,-215
18:21:31.549,,-1033,751,-371
18:21:31.586,,-901,759,-416
18:21:31.623,,-668,657,-459
18:21:31.660,,-428,518,-450
18:21:31.697,,-339,525,-380
18:21:31.734,,-443,609,-320
18:21:31.771,,-578,697,-301
18:21:31.808,,-619,745,-308
18:21:31.845,,-550,739,-347
18:21:31.882,,-500,680,-327
18:21:31.919,,-500,711,-283
18:21:31.956,,-500,754,-263
18:21:31.993,,-506,777,-276
18:21:32.029,,-521,838,-333
18:21:32.066,,-546,876,-345
18:21:32.103,,-557,916,-307
18:21:32.140,,-668,924,-304
18:21:32.177,,-803,891,-512
18:21:32.215,,-707,559,-452
18:21:32.251,,-682,473,-398
18:21:32.288,,-633,487,-368
18:21:32.325,,-551,546,-285
18:21:32.362,,-533,625,-318
18:21:32.399,,-546,610,-293
18:21:32.436,,-604,588,-318
18:21:32.473,,-642,531,-339
18:21:32.511,,-718,647,-372
18:21:32.547,,-793,798,-400
18:21:32.585,,-807,945,-438
18:21:32.621,,-796,1112,-485
18:21:32.659,,-798,1011,-514
18:21:32.696,,-760,806,-674
18:21:32.732,,-521,620,-764
18:21:32.770,,-315,757,-624
18:21:32.807,,-302,831,-498
18:21:32.843,,-441,706,-445
18:21:32.880,,-509,554,-405
18:21:32.917,,-436,525,-338
18:21:32.954,,-355,529,-301
18:21:32.991,,-381,587,-319
18:21:33.028,,-480,706,-346
18:21:33.065,,-582,810,-389
18:21:33.102,,-688,888,-428
18:21:33.139,,-699,908,-450
18:21:33.176,,-765,893,-575
18:21:33.213,,-737,678,-656
18:21:33.250,,-673,436,-547
18:21:33.287,,-643,522,-382
18:21:33.324,,-558,538,-265
18:21:33.361,,-443,500,-282
18:21:33.398,,-408,457,-249
18:21:33.435,,-465,453,-247
18:21:33.472,,-527,477,-272
18:21:33.509,,-655,568,-302
18:21:33.546,,-710,698,-352
18:21:33.583,,-774,843,-416
18:21:33.620,,-782,962,-447
18:21:33.657,,-820,957,-552
18:21:33.694,,-765,866,-711
18:21:33.731,,-513,745,-656
18:21:33.768,,-334,782,-562
18:21:33.805,,-295,759,-440
18:21:33.842,,-360,640,-391
18:21:33.879,,-430,576,-365
18:21:33.916,,-392,586,-328
18:21:33.953,,-372,604,-320
18:21:33.990,,-385,621,-300
18:21:34.027,,-457,707,-331
18:21:34.064,,-569,803,-378
18:21:34.101,,-661,906,-428
18:21:34.138,,-718,892,-478
18:21:34.175,,-780,946,-622
18:21:34.212,,-758,645,-661
18:21:34.249,,-676,450,-571
18:21:34.286,,-643,484,-411
18:21:34.323,,-571,570,-344
18:21:34.360,,-508,583,-339
18:21:34.397,,-460,518,-277
18:21:34.434,,-521,482,-277
18:21:34.471,,-561,492,-286
18:21:34.508,,-609,610,-358
18:21:34.545,,-672,744,-462
18:21:34.582,,-730,877,-484
18:21:34.619,,-773,998,-543
18:21:34.656,,-668,769,-698
18:21:34.693,,-448,635,-671
18:21:34.730,,-299,770,-523
18:21:34.767,,-370,818,-432
18:21:34.804,,-491,641,-404
18:21:34.841,,-483,552,-366
18:21:34.878,,-371,529,-303
18:21:34.915,,-323,590,-287
18:21:34.952,,-343,649,-299
18:21:34.989,,-417,730,-311
18:21:35.026,,-529,831,-391
18:21:35.063,,-664,898,-497
18:21:35.100,,-734,1002,-513
18:21:35.137,,-804,933,-637
18:21:35.174,,-748,606,-697
18:21:35.211,,-691,429,-635
18:21:35.248,,-698,479,-456
18:21:35.285,,-596,579,-362
18:21:35.322,,-492,528,-378
18:21:35.359,,-436,488,-291
18:21:35.396,,-489,471,-281
18:21:35.433,,-543,510,-307
18:21:35.470,,-605,592,-347
18:21:35.507,,-670,744,-439
18:21:35.544,,-747,822,-513
18:21:35.581,,-743,916,-575
18:21:35.618,,-670,806,-739
18:21:35.655,,-463,733,-737
18:21:35.692,,-312,783,-594
18:21:35.730,,-367,780,-514
18:21:35.766,,-449,586,-425
18:21:35.804,,-440,503,-387
18:21:35.840,,-350,505,-352
18:21:35.878,,-308,508,-317
18:21:35.915,,-369,608,-358
18:21:35.952,,-461,692,-382
18:21:35.989,,-528,855,-471
18:21:36.026,,-652,976,-581
18:21:36.062,,-678,1015,-558
18:21:36.100,,-680,878,-700
18:21:36.136,,-635,579,-731
18:21:36.174,,-584,448,-655
18:21:36.211,,-620,497,-463
18:21:36.248,,-596,644,-337
18:21:36.285,,-508,622,-323
18:21:36.322,,-402,462,-276
18:21:36.359,,-339,360,-261
18:21:36.396,,-359,329,-230
18:21:36.433,,-430,422,-221
18:21:36.470,,-550,553,-248
18:21:36.507,,-681,712,-284
18:21:36.544,,-749,820,-334
18:21:36.581,,-726,865,-380
18:21:36.618,,-710,849,-373
18:21:36.655,,-745,848,-527
18:21:36.692,,-582,818,-503
18:21:36.729,,-408,929,-488
18:21:36.766,,-215,705,-477
18:21:36.803,,-99,681,-463
18:21:36.840,,-182,725,-466
18:21:36.877,,-383,767,-515
18:21:36.914,,-388,825,-480
18:21:36.951,,-270,803,-428
18:21:36.988,,-250,700,-389
18:21:37.025,,-333,716,-419
18:21:37.062,,-461,741,-440
18:21:37.099,,-525,859,-482
18:21:37.136,,-563,982,-481
18:21:37.173,,-630,988,-517
18:21:37.210,,-672,830,-806
18:21:37.247,,-499,517,-636
18:21:37.284,,-404,640,-535
18:21:37.321,,-400,709,-448
18:21:37.358,,-390,666,-341
18:21:37.395,,-469,564,-343
18:21:37.432,,-518,410,-374
18:21:37.469,,-552,403,-352
18:21:37.506,,-631,569,-311
18:21:37.543,,-697,766,-311
18:21:37.580,,-669,862,-355
18:21:37.617,,-677,860,-427
18:21:37.654,,-730,855,-539
18:21:37.691,,-785,974,-597
18:21:37.728,,-760,1058,-640
18:21:37.765,,-639,727,-836
18:21:37.802,,-345,500,-894
18:21:37.839,,-137,623,-861
18:21:37.876,,-179,737,-802
18:21:37.913,,-293,719,-756
18:21:37.950,,-331,657,-664
18:21:37.987,,-242,624,-533
18:21:38.024,,-166,556,-477
18:21:38.061,,-159,498,-454
18:21:38.098,,-261,542,-469
18:21:38.135,,-375,599,-489
18:21:38.172,,-463,798,-532
18:21:38.209,,-513,931,-539
18:21:38.246,,-554,967,-560
18:21:38.283,,-600,848,-607
18:21:38.320,,-683,770,-720
18:21:38.357,,-765,628,-785
18:21:38.394,,-752,546,-688
18:21:38.431,,-642,487,-593
18:21:38.468,,-589,469,-461
18:21:38.505,,-546,485,-402
18:21:38.542,,-486,479,-363
18:21:38.579,,-414,394,-322
18:21:38.616,,-405,409,-303
18:21:38.653,,-477,445,-337
18:21:38.690,,-519,531,-377
18:21:38.727,,-598,707,-420
18:21:38.764,,-675,803,-473
18:21:38.801,,-756,906,-519
18:21:38.838,,-803,920,-601
18:21:38.875,,-784,913,-826
18:21:38.912,,-578,714,-802
18:21:38.949,,-381,681,-689
18:21:38.986,,-290,671,-597
18:21:39.023,,-321,646,-471
18:21:39.060,,-414,523,-418
18:21:39.097,,-429,515,-396
18:21:39.134,,-386,461,-412
18:21:39.171,,-380,487,-394
18:21:39.208,,-441,628,-448
18:21:39.245,,-522,714,-490
18:21:39.282,,-591,847,-557
18:21:39.319,,-672,841,-597
18:21:39.356,,-748,843,-836
18:21:39.393,,-761,506,-885
18:21:39.430,,-751,455,-669
18:21:39.467,,-685,545,-504
18:21:39.504,,-502,453,-456
18:21:39.541,,-313,335,-397
18:21:39.578,,-272,341,-317
18:21:39.615,,-392,422,-300
18:21:39.652,,-502,541,-384
18:21:39.689,,-597,672,-458
18:21:39.726,,-738,846,-607
18:21:39.763,,-811,933,-706
18:21:39.800,,-700,934,-833
18:21:39.837,,-499,762,-912
18:21:39.874,,-332,692,-753
18:21:39.911,,-309,744,-645
18:21:39.948,,-359,645,-519
18:21:39.985,,-404,513,-432
18:21:40.022,,-380,422,-376
18:21:40.059,,-308,443,-318
18:21:40.096,,-308,503,-348
18:21:40.133,,-378,589,-376
18:21:40.170,,-500,695,-450
18:21:40.207,,-641,783,-561
18:21:40.244,,-734,875,-624
18:21:40.281,,-800,934,-687
18:21:40.318,,-775,781,-765
18:21:40.355,,-707,465,-718
18:21:40.392,,-707,356,-664
18:21:40.429,,-665,406,-486
18:21:40.466,,-513,440,-402
18:21:40.503,,-443,451,-356
18:21:40.540,,-436,415,-323
18:21:40.577,,-512,481,-370
18:21:40.614,,-552,563,-450
18:21:40.651,,-660,719,-543
18:21:40.688,,-748,823,-631
18:21:40.725,,-699,941,-631
18:21:40.762,,-537,804,-816
18:21:40.799,,-359,653,-813
18:21:40.836,,-285,738,-637
18:21:40.873,,-460,609,-462
18:21:40.910,,-453,518,-443
18:21:40.947,,-404,469,-389
18:21:40.984,,-428,532,-393
18:21:41.021,,-475,597,-429
18:21:41.058,,-564,705,-495
18:21:41.095,,-628,761,-530
18:21:41.132,,-714,784,-595
18:21:41.169,,-781,717,-799
18:21:41.206,,-808,428,-837
18:21:41.243,,-781,407,-643
18:21:41.280,,-711,493,-432
18:21:41.317,,-516,471,-384
18:21:41.354,,-386,383,-346
18:21:41.391,,-373,348,-292
18:21:41.428,,-428,421,-318
18:21:41.465,,-547,502,-367
18:21:41.502,,-724,709,-443
18:21:41.539,,-805,831,-534
18:21:41.576,,-798,904,-617
18:21:41.613,,-798,915,-772
18:21:41.650,,-605,696,-846
18:21:41.687,,-386,716,-704
18:21:41.724,,-285,730,-564
18:21:41.761,,-355,693,-477
18:21:41.798,,-454,479,-460
18:21:41.835,,-455,446,-437
18:21:41.872,,-362,461,-374
18:21:41.909,,-335,543,-339
18:21:41.946,,-410,608,-391
18:21:41.983,,-483,673,-453
18:21:42.020,,-567,797,-536
18:21:42.057,,-631,810,-553
18:21:42.094,,-688,841,-649
18:21:42.131,,-683,745,-813
18:21:42.168,,-710,653,-802
18:21:42.205,,-672,645,-629
18:21:42.242,,-651,602,-469
18:21:42.279,,-561,555,-382
18:21:42.316,,-447,435,-304
18:21:42.353,,-391,350,-249
18:21:42.390,,-365,324,-246
18:21:42.427,,-378,329,-227
18:21:42.464,,-444,446,-263
18:21:42.501,,-513,574,-266
18:21:42.538,,-671,726,-323
18:21:42.575,,-764,840,-374
18:21:42.612,,-722,881,-410
18:21:42.649,,-672,804,-428
18:21:42.686,,-678,717,-526
18:21:42.723,,-658,780,-590
18:21:42.760,,-517,990,-547
18:21:42.797,,-260,878,-551
18:21:42.834,,-103,719,-548
18:21:42.871,,-147,681,-529
18:21:42.908,,-339,689,-512
18:21:42.945,,-425,709,-497
18:21:42.982,,-334,740,-446
18:21:43.019,,-295,663,-419
18:21:43.056,,-322,600,-425
18:21:43.093,,-422,674,-423
18:21:43.130,,-512,758,-425
18:21:43.167,,-563,848,-454
18:21:43.204,,-610,922,-494
18:21:43.241,,-665,1019,-479
18:21:43.278,,-721,920,-627
18:21:43.315,,-603,636,-750
18:21:43.352,,-500,433,-638
18:21:43.389,,-482,508,-548
18:21:43.426,,-538,658,-417
18:21:43.463,,-546,704,-369
18:21:43.500,,-523,648,-368
18:21:43.537,,-522,490,-366
18:21:43.574,,-498,434,-332
18:21:43.611,,-565,449,-305
18:21:43.648,,-721,586,-249
18:21:43.685,,-799,805,-322
18:21:43.722,,-761,849,-375
18:21:43.759,,-734,1019,-447
18:21:43.796,,-740,1064,-488
18:21:43.833,,-759,1030,-596
18:21:43.870,,-630,825,-831
18:21:43.907,,-388,701,-914
18:21:43.944,,-304,745,-786
18:21:43.981,,-370,788,-638
18:21:44.018,,-432,638,-545
18:21:44.055,,-414,525,-466
18:21:44.092,,-360,444,-381
18:21:44.129,,-322,456,-349
18:21:44.166,,-367,540,-370
18:21:44.203,,-495,695,-449
18:21:44.240,,-654,794,-574
18:21:44.277,,-709,832,-595
18:21:44.314,,-753,821,-621
18:21:44.351,,-761,595,-765
18:21:44.388,,-725,438,-588
18:21:44.425,,-687,557,-437
18:21:44.462,,-585,581,-351
18:21:44.499,,-433,488,-292
18:21:44.536,,-388,377,-268
18:21:44.573,,-388,292,-259
18:21:44.610,,-453,386,-274
18:21:44.647,,-608,619,-374
18:21:44.684,,-755,820,-488
18:21:44.721,,-875,1130,-609
18:21:44.758,,-776,1052,-556
18:21:44.795,,-690,822,-722
18:21:44.832,,-487,631,-703
18:21:44.869,,-346,633,-620
18:21:44.906,,-342,709,-548
18:21:44.943,,-391,687,-453
18:21:44.980,,-462,597,-439
18:21:45.017,,-434,533,-399
18:21:45.054,,-393,533,-369
18:21:45.091,,-383,567,-340
18:21:45.128,,-477,626,-370
18:21:45.165,,-574,687,-456
18:21:45.202,,-647,772,-538
18:21:45.239,,-742,844,-567
18:21:45.276,,-817,879,-717
18:21:45.313,,-784,602,-712
18:21:45.350,,-742,432,-599
18:21:45.387,,-703,409,-493
18:21:45.424,,-612,436,-394
18:21:45.461,,-510,413,-376
18:21:45.498,,-431,441,-340
18:21:45.535,,-445,458,-319
18:21:45.572,,-501,566,-374
18:21:45.609,,-623,677,-451
18:21:45.646,,-693,761,-532
18:21:45.683,,-742,880,-584
18:21:45.720,,-704,909,-677
18:21:45.757,,-539,734,-870
18:21:45.794,,-367,783,-748
18:21:45.831,,-342,805,-549
18:21:45.868,,-420,676,-445
18:21:45.905,,-455,453,-412
18:21:45.942,,-393,367,-386
18:21:45.979,,-321,426,-330
18:21:46.016,,-351,571,-341
18:21:46.053,,-446,642,-374
18:21:46.090,,-526,710,-419
18:21:46.127,,-625,790,-537
18:21:46.164,,-712,874,-565
18:21:46.201,,-802,945,-632
18:21:46.238,,-756,779,-740
18:21:46.275,,-732,495,-688
18:21:46.312,,-711,480,-589
18:21:46.349,,-638,512,-431
18:21:46.386,,-527,562,-387
18:21:46.423,,-449,484,-332
18:21:46.460,,-437,445,-297
18:21:46.497,,-448,415,-274
18:21:46.534,,-510,485,-318
18:21:46.571,,-632,674,-409
18:21:46.608,,-728,785,-518
18:21:46.645,,-850,961,-593
18:21:46.683,,-828,951,-687
18:21:46.719,,-594,784,-756
18:21:46.757,,-387,687,-662
18:21:46.794,,-311,703,-559
18:21:46.831,,-338,718,-466
18:21:46.868,,-428,598,-421
18:21:46.905,,-437,499,-391
18:21:46.942,,-377,479,-335
18:21:46.979,,-368,525,-328
18:21:47.016,,-412,635,-351
18:21:47.053,,-494,720,-371
18:21:47.090,,-593,778,-470
18:21:47.127,,-672,848,-518
18:21:47.164,,-705,907,-589
18:21:47.201,,-743,919,-738
18:21:47.238,,-655,623,-721
18:21:47.275,,-589,440,-653
18:21:47.312,,-562,468,-479
18:21:47.349,,-498,528,-369
18:21:47.386,,-454,495,-388
18:21:47.423,,-450,525,-342
18:21:47.460,,-499,516,-363
18:21:47.497,,-539,505,-352
18:21:47.534,,-621,614,-397
18:21:47.571,,-704,686,-482
18:21:47.608,,-775,847,-574
18:21:47.645,,-756,890,-650
18:21:47.682,,-643,905,-749
18:21:47.719,,-396,759,-698
18:21:47.756,,-280,786,-560
18:21:47.793,,-299,747,-500
18:21:47.830,,-394,643,-472
18:21:47.867,,-403,536,-411
18:21:47.904,,-332,486,-368
18:21:47.941,,-271,468,-303
18:21:47.978,,-270,480,-299
18:21:48.015,,-342,532,-289
18:21:48.052,,-407,639,-366
18:21:48.089,,-537,840,-447
18:21:48.126,,-627,1039,-502
18:21:48.163,,-746,1180,-541
18:21:48.200,,-731,1153,-596
18:21:48.237,,-696,887,-720
18:21:48.274,,-657,645,-793
18:21:48.311,,-561,521,-735
18:21:48.348,,-531,477,-522
18:21:48.385,,-533,581,-353
18:21:48.422,,-529,597,-360
18:21:48.459,,-470,484,-295
18:21:48.496,,-437,381,-277
18:21:48.533,,-407,300,-219
18:21:48.570,,-379,300,-189
18:21:48.607,,-436,420,-212
18:21:48.644,,-563,600,-255
18:21:48.681,,-728,804,-360
18:21:48.718,,-770,936,-428
18:21:48.755,,-760,1053,-449
18:21:48.792,,-783,1005,-400
18:21:48.829,,-781,926,-506
18:21:48.866,,-597,739,-666
18:21:48.903,,-303,771,-540
18:21:48.940,,-178,787,-471
18:21:48.977,,-191,729,-399
18:21:49.014,,-357,655,-354
18:21:49.051,,-484,636,-317
18:21:49.088,,-465,638,-270
18:21:49.125,,-393,625,-248
18:21:49.162,,-355,583,-232
18:21:49.199,,-371,649,-234
18:21:49.236,,-425,790,-218
18:21:49.273,,-498,904,-212
18:21:49.310,,-576,950,-277
18:21:49.347,,-620,942,-321
18:21:49.384,,-601,992,-363
18:21:49.421,,-665,1135,-323
18:21:49.458,,-789,1096,-442
18:21:49.495,,-724,807,-574
18:21:49.532,,-562,460,-551
18:21:49.569,,-437,352,-406
18:21:49.606,,-428,491,-184
18:21:49.643,,-476,579,-180
18:21:49.680,,-471,648,-226
18:21:49.717,,-516,643,-233
18:21:49.754,,-566,593,-231
18:21:49.791,,-584,619,-201
18:21:49.828,,-598,708,-188
18:21:49.865,,-612,803,-182
18:21:49.902,,-606,844,-246
18:21:49.939,,-617,913,-341
18:21:49.976,,-701,1022,-435
18:21:50.013,,-785,1180,-576
18:21:50.050,,-592,1002,-683
18:21:50.087,,-363,792,-595
18:21:50.124,,-294,650,-502
18:21:50.161,,-362,597,-342
18:21:50.198,,-461,541,-314
18:21:50.235,,-441,528,-260
18:21:50.272,,-355,585,-240
18:21:50.309,,-314,561,-226
18:21:50.346,,-342,640,-234
18:21:50.383,,-423,781,-244
18:21:50.420,,-544,943,-310
18:21:50.457,,-679,1067,-369
18:21:50.494,,-753,1077,-362
18:21:50.531,,-803,1101,-491
18:21:50.568,,-749,798,-636
18:21:50.605,,-645,530,-557
18:21:50.642,,-641,491,-518
18:21:50.679,,-586,555,-373
18:21:50.716,,-495,644,-294
18:21:50.753,,-448,598,-247
18:21:50.790,,-457,463,-207
18:21:50.827,,-506,375,-226
18:21:50.864,,-553,428,-258
18:21:50.901,,-612,652,-308
18:21:50.938,,-676,841,-298
18:21:50.975,,-717,964,-357
18:21:51.012,,-676,960,-430
18:21:51.049,,-645,913,-382
18:21:51.086,,-733,965,-547
18:21:51.123,,-701,688,-782
18:21:51.160,,-424,698,-642
18:21:51.197,,-345,705,-533
18:21:51.234,,-381,670,-396
18:21:51.271,,-511,682,-367
18:21:51.308,,-513,610,-320
18:21:51.345,,-413,598,-275
18:21:51.382,,-351,583,-252
18:21:51.419,,-355,607,-220
18:21:51.456,,-434,719,-209
18:21:51.493,,-512,823,-248
18:21:51.530,,-593,887,-300
18:21:51.567,,-660,944,-349
18:21:51.604,,-714,1005,-322
18:21:51.641,,-827,1051,-522
18:21:51.678,,-733,794,-527
18:21:51.715,,-645,539,-464
18:21:51.752,,-615,422,-415
18:21:51.789,,-583,510,-263
18:21:51.826,,-522,628,-278
18:21:51.863,,-460,645,-260
18:21:51.900,,-503,619,-256
18:21:51.937,,-536,542,-264
18:21:51.974,,-594,652,-260
18:21:52.011,,-663,762,-252
18:21:52.048,,-690,885,-306
18:21:52.085,,-683,945,-357
18:21:52.122,,-707,929,-361
18:21:52.159,,-729,857,-576
18:21:52.196,,-550,717,-616
18:21:52.233,,-363,752,-518
18:21:52.270,,-331,787,-403
18:21:52.307,,-437,804,-375
18:21:52.344,,-516,714,-349
18:21:52.381,,-494,641,-302
18:21:52.418,,-432,640,-274
18:21:52.455,,-397,655,-245
18:21:52.492,,-423,694,-221
18:21:52.529,,-438,745,-242
18:21:52.566,,-458,829,-268
18:21:52.603,,-510,905,-273
18:21:52.640,,-550,892,-288
18:21:52.677,,-616,871,-352
18:21:52.714,,-692,881,-459
18:21:52.751,,-622,962,-458
18:21:52.788,,-574,856,-400
18:21:52.825,,-586,693,-416
18:21:52.862,,-535,598,-385
18:21:52.899,,-495,642,-357
18:21:52.936,,-455,695,-329
18:21:52.973,,-461,658,-343
18:21:53.010,,-505,616,-371
18:21:53.047,,-567,655,-414
18:21:53.084,,-610,746,-432
18:21:53.121,,-589,828,-399
18:21:53.158,,-561,772,-362
18:21:53.195,,-569,688,-343
18:21:53.232,,-615,636,-362
18:21:53.269,,-635,642,-356
18:21:53.306,,-638,670,-352
18:21:53.343,,-621,684,-372
18:21:53.380,,-597,684,-374
18:21:53.417,,-591,710,-370
18:21:53.454,,-596,746,-363
18:21:53.491,,-592,785,-350
18:21:53.528,,-567,786,-340
18:21:53.565,,-572,754,-325
18:21:53.602,,-588,727,-321
18:21:53.639,,-606,710,-314
18:21:53.676,,-620,745,-291
18:21:53.713,,-626,785,-262
18:21:53.750,,-602,777,-265
18:21:53.787,,-563,721,-272
18:21:53.824,,-514,665,-275
18:21:53.861,,-486,653,-276
18:21:53.898,,-494,731,-260
18:21:53.935,,-527,843,-266
18:21:53.972,,-541,891,-266
18:21:54.009,,-536,879,-261
18:21:54.046,,-511,787,-252
18:21:54.083,,-488,706,-244
18:21:54.120,,-495,697,-242
18:21:54.157,,-533,726,-269
18:21:54.194,,-571,770,-302
18:21:54.231,,-580,783,-324
18:21:54.268,,-576,762,-334
18:21:54.305,,-572,755,-342
18:21:54.342,,-563,746,-334
18:21:54.379,,-598,771,-392
18:21:54.416,,-628,686,-427
18:21:54.453,,-641,575,-332
18:21:54.490,,-682,551,-357
18:21:54.527,,-677,607,-388
18:21:54.564,,-619,688,-424
18:21:54.601,,-636,773,-345
18:21:54.638,,-697,732,-307
18:21:54.675,,-732,622,-329
18:21:54.712,,-695,536,-372
18:21:54.749,,-657,579,-385
18:21:54.786,,-632,667,-353
18:21:54.823,,-622,714,-328
18:21:54.860,,-628,719,-332
18:21:54.897,,-665,680,-343
18:21:54.934,,-688,654,-335
18:21:54.971,,-688,634,-308
18:21:55.008,,-737,654,-389
18:21:55.045,,-652,582,-428
18:21:55.082,,-550,629,-400
18:21:55.119,,-489,663,-377
18:21:55.156,,-487,734,-386
18:21:55.194,,-593,828,-395
18:21:55.231,,-648,846,-351
18:21:55.268,,-597,799,-300
18:21:55.305,,-540,712,-274
18:21:55.342,,-501,640,-243
18:21:55.379,,-503,640,-228
18:21:55.416,,-550,702,-218
18:21:55.453,,-606,788,-218
18:21:55.490,,-613,816,-242
18:21:55.527,,-587,765,-256
18:21:55.564,,-557,741,-266
18:21:55.601,,-561,787,-253
18:21:55.638,,-637,854,-251
18:21:55.675,,-793,872,-399
18:21:55.712,,-873,800,-520
18:21:55.749,,-764,761,-387
18:21:55.786,,-627,541,-342
18:21:55.823,,-586,394,-360
18:21:55.860,,-601,329,-359
18:21:55.897,,-598,479,-330
18:21:55.934,,-617,630,-296
18:21:55.971,,-658,724,-270
18:21:56.008,,-672,665,-298
18:21:56.045,,-630,613,-311
18:21:56.082,,-631,650,-264
18:21:56.119,,-640,736,-244
18:21:56.156,,-636,799,-253
18:21:56.193,,-648,845,-275
18:21:56.230,,-700,862,-265
18:21:56.267,,-771,853,-304
18:21:56.304,,-806,858,-483
18:21:56.341,,-668,697,-465
18:21:56.378,,-563,645,-497
18:21:56.415,,-430,576,-443
18:21:56.452,,-406,654,-337
18:21:56.489,,-462,703,-304
18:21:56.526,,-516,686,-263
18:21:56.563,,-530,685,-263
18:21:56.600,,-519,618,-266
18:21:56.637,,-526,631,-239
18:21:56.674,,-519,705,-197
18:21:56.711,,-526,794,-223
18:21:56.748,,-555,851,-257
18:21:56.785,,-638,859,-262
18:21:56.822,,-689,862,-275
18:21:56.859,,-731,920,-231
18:21:56.896,,-819,964,-410
18:21:56.933,,-769,847,-581
18:21:56.970,,-599,610,-398
18:21:57.007,,-554,448,-322
18:21:57.044,,-515,406,-280
18:21:57.081,,-489,453,-273
18:21:57.118,,-531,498,-306
18:21:57.155,,-653,683,-269
18:21:57.192,,-775,750,-278
18:21:57.229,,-756,688,-284
18:21:57.266,,-682,601,-255
18:21:57.303,,-640,570,-225
18:21:57.340,,-624,622,-239
18:21:57.377,,-646,695,-290
18:21:57.414,,-707,838,-331
18:21:57.451,,-763,958,-307
18:21:57.488,,-849,1020,-447
18:21:57.525,,-764,768,-594
18:21:57.562,,-560,654,-507
18:21:57.599,,-421,609,-474
18:21:57.636,,-396,562,-371
18:21:57.673,,-508,610,-333
18:21:57.710,,-568,633,-295
18:21:57.747,,-560,663,-298
18:21:57.784,,-514,645,-319
18:21:57.821,,-484,641,-298
18:21:57.858,,-492,691,-299
18:21:57.895,,-501,741,-265
18:21:57.932,,-535,821,-271
18:21:57.969,,-587,819,-281
18:21:58.006,,-632,804,-300
18:21:58.043,,-680,791,-320
18:21:58.080,,-731,871,-311
18:21:58.117,,-801,924,-430
18:21:58.154,,-722,848,-538
18:21:58.191,,-577,600,-419
18:21:58.228,,-565,435,-389
18:21:58.265,,-559,415,-333
18:21:58.302,,-551,542,-291
18:21:58.339,,-543,636,-333
18:21:58.376,,-595,711,-322
18:21:58.413,,-636,691,-324
18:21:58.450,,-650,653,-311
18:21:58.487,,-633,651,-281
18:21:58.524,,-622,643,-235
18:21:58.561,,-641,661,-284
18:21:58.598,,-661,684,-318
18:21:58.635,,-707,723,-332
18:21:58.672,,-725,828,-288
18:21:58.709,,-718,900,-287
18:21:58.746,,-762,924,-485
18:21:58.783,,-661,746,-507
18:21:58.820,,-517,612,-429
18:21:58.857,,-466,566,-414
18:21:58.894,,-500,565,-332
18:21:58.931,,-593,595,-291
18:21:58.968,,-667,653,-283
18:21:59.005,,-658,688,-297
18:21:59.042,,-611,667,-297
18:21:59.079,,-579,636,-271
18:21:59.116,,-559,662,-254
18:21:59.153,,-562,709,-246
18:21:59.190,,-600,766,-261
18:21:59.227,,-622,746,-275
18:21:59.264,,-681,740,-298
18:21:59.301,,-708,717,-284
18:21:59.338,,-681,747,-245
18:21:59.375,,-688,771,-204
18:21:59.412,,-826,732,-386
18:21:59.449,,-911,651,-501
18:21:59.486,,-775,648,-400
18:21:59.523,,-674,569,-390
18:21:59.560,,-624,465,-419
18:21:59.597,,-620,385,-449
18:21:59.634,,-639,432,-490
18:21:59.671,,-688,595,-500
18:21:59.708,,-700,705,-506
18:21:59.745,,-687,710,-500
18:21:59.782,,-675,636,-471
18:21:59.819,,-656,555,-474
18:21:59.856,,-635,542,-465
18:21:59.893,,-629,597,-459
18:21:59.930,,-631,640,-440
18:21:59.967,,-612,670,-443
18:22:00.004,,-596,688,-407
18:22:00.041,,-585,704,-352
18:22:00.078,,-586,712,-312
18:22:00.115,,-567,689,-292
18:22:00.152,,-551,640,-290
18:22:00.189,,-520,687,-316
18:22:00.226,,-537,784,-413
18:22:00.263,,-429,840,-438
18:22:00.300,,-420,894,-345
18:22:00.337,,-502,857,-368
18:22:00.374,,-588,785,-365
18:22:00.411,,-639,791,-325
18:22:00.449,,-649,764,-288
18:22:00.486,,-600,700,-282
18:22:00.523,,-567,659,-283
18:22:00.560,,-552,629,-273
18:22:00.597,,-557,665,-255
18:22:00.634,,-547,729,-248
18:22:00.671,,-547,805,-242
18:22:00.708,,-564,838,-254
18:22:00.745,,-600,835,-311
18:22:00.782,,-630,808,-320
18:22:00.819,,-666,824,-285
18:22:00.856,,-763,829,-367
18:22:00.893,,-848,801,-443
18:22:00.930,,-752,786,-434
18:22:00.967,,-615,685,-373
18:22:01.004,,-561,429,-350
18:22:01.041,,-553,341,-341
18:22:01.078,,-567,406,-319
18:22:01.115,,-593,550,-288
18:22:01.152,,-635,718,-259
18:22:01.189,,-677,749,-269
18:22:01.226,,-672,688,-338
18:22:01.263,,-622,605,-335
18:22:01.300,,-613,625,-278
18:22:01.337,,-637,680,-243
18:22:01.374,,-669,730,-239
18:22:01.411,,-692,718,-283
18:22:01.448,,-712,697,-299
18:22:01.485,,-722,711,-308
18:22:01.522,,-740,774,-294
18:22:01.559,,-795,836,-345
18:22:01.596,,-828,828,-502
18:22:01.633,,-647,684,-527
18:22:01.670,,-460,550,-460
18:22:01.707,,-394,543,-430
18:22:01.744,,-424,582,-370
18:22:01.781,,-593,624,-360
18:22:01.818,,-713,715,-354
18:22:01.855,,-678,760,-331
18:22:01.892,,-577,668,-321
18:22:01.929,,-516,605,-286
18:22:01.966,,-503,628,-242
18:22:02.003,,-510,717,-198
18:22:02.040,,-536,796,-205
18:22:02.077,,-573,802,-271
18:22:02.114,,-641,789,-308
18:22:02.151,,-681,770,-356
18:22:02.188,,-675,782,-285
18:22:02.225,,-742,854,-233
18:22:02.262,,-821,898,-398
18:22:02.299,,-738,788,-506
18:22:02.336,,-594,601,-387
18:22:02.373,,-548,454,-335
18:22:02.410,,-543,394,-319
18:22:02.447,,-551,468,-328
18:22:02.484,,-582,609,-361
18:22:02.521,,-637,753,-327
18:22:02.558,,-673,805,-288
18:22:02.595,,-646,695,-292
18:22:02.632,,-612,581,-297
18:22:02.669,,-608,573,-261
18:22:02.706,,-631,642,-257
18:22:02.743,,-644,716,-275
18:22:02.780,,-670,748,-326
18:22:02.817,,-706,762,-344
18:22:02.854,,-722,808,-313
18:22:02.891,,-742,839,-294
18:22:02.928,,-752,839,-377
18:22:02.965,,-716,744,-515
18:22:03.002,,-544,592,-535
18:22:03.039,,-407,560,-436
18:22:03.076,,-548,633,-357
18:22:03.113,,-701,702,-336
18:22:03.150,,-691,700,-338
18:22:03.187,,-600,644,-329
18:22:03.224,,-521,596,-305
18:22:03.261,,-493,605,-283
18:22:03.298,,-504,673,-260
18:22:03.335,,-535,759,-232
18:22:03.372,,-575,812,-262
18:22:03.409,,-605,796,-293
18:22:03.446,,-653,762,-336
18:22:03.483,,-678,755,-329
18:22:03.520,,-694,796,-281
18:22:03.557,,-776,862,-357
18:22:03.594,,-800,884,-521
18:22:03.631,,-657,688,-460
18:22:03.668,,-566,494,-380
18:22:03.705,,-550,399,-337
18:22:03.742,,-542,421,-305
18:22:03.779,,-567,559,-320
18:22:03.816,,-618,691,-347
18:22:03.853,,-643,824,-308
18:22:03.890,,-639,787,-314
18:22:03.927,,-616,654,-304
18:22:03.964,,-594,594,-270
18:22:04.001,,-616,619,-257
18:22:04.038,,-641,653,-270
18:22:04.075,,-662,705,-304
18:22:04.112,,-683,728,-329
18:22:04.149,,-690,743,-313
18:22:04.186,,-697,754,-294
18:22:04.223,,-737,777,-348
18:22:04.260,,-786,799,-471
18:22:04.297,,-702,756,-563
18:22:04.334,,-541,581,-444
18:22:04.371,,-499,538,-448
18:22:04.408,,-487,503,-425
18:22:04.445,,-593,563,-361
18:22:04.482,,-750,647,-357
18:22:04.519,,-777,676,-367
18:22:04.556,,-677,635,-369
18:22:04.593,,-621,562,-356
18:22:04.630,,-611,548,-321
18:22:04.667,,-623,576,-313
18:22:04.704,,-638,643,-331
18:22:04.741,,-655,684,-360
18:22:04.778,,-670,681,-379
18:22:04.815,,-693,681,-385
18:22:04.852,,-708,689,-377
18:22:04.889,,-702,685,-357
18:22:04.926,,-697,680,-334
18:22:04.963,,-688,661,-343
18:22:05.000,,-741,665,-496
18:22:05.037,,-737,606,-514
18:22:05.074,,-659,587,-410
18:22:05.111,,-587,505,-366
18:22:05.148,,-555,409,-358
18:22:05.185,,-566,345,-444
18:22:05.222,,-658,378,-495
18:22:05.259,,-810,571,-527
18:22:05.296,,-857,739,-532
18:22:05.333,,-768,746,-495
18:22:05.370,,-675,630,-464
18:22:05.408,,-640,524,-437
18:22:05.445,,-624,520,-434
18:22:05.482,,-630,602,-428
18:22:05.519,,-637,682,-415
18:22:05.556,,-625,716,-390
18:22:05.593,,-604,689,-371
18:22:05.630,,-588,646,-351
18:22:05.667,,-606,629,-334
18:22:05.704,,-645,623,-334
18:22:05.741,,-680,613,-343
18:22:05.778,,-677,621,-350
18:22:05.815,,-673,640,-342
18:22:05.852,,-681,665,-334
18:22:05.889,,-729,708,-370
18:22:05.926,,-707,732,-372
18:22:05.963,,-699,712,-400
18:22:06.000,,-704,646,-453
18:22:06.037,,-676,559,-467
18:22:06.074,,-596,565,-467
18:22:06.111,,-497,577,-473
18:22:06.148,,-453,649,-454
18:22:06.185,,-500,727,-426
18:22:06.222,,-554,735,-412
18:22:06.259,,-549,691,-408
18:22:06.296,,-529,622,-398
18:22:06.333,,-536,614,-393
18:22:06.370,,-574,649,-385
18:22:06.407,,-600,717,-386
18:22:06.444,,-613,744,-389
18:22:06.481,,-596,732,-383
18:22:06.518,,-585,712,-372
18:22:06.555,,-600,709,-347
18:22:06.592,,-609,723,-346
18:22:06.629,,-607,724,-366
18:22:06.666,,-606,746,-377
18:22:06.703,,-621,769,-345
18:22:06.740,,-709,805,-387
18:22:06.777,,-807,791,-516
18:22:06.814,,-767,725,-532
18:22:06.851,,-599,644,-390
18:22:06.888,,-507,498,-304
18:22:06.925,,-522,362,-320
18:22:06.962,,-611,319,-365
18:22:06.999,,-721,476,-338
18:22:07.036,,-758,680,-353
18:22:07.073,,-679,793,-289
18:22:07.110,,-634,697,-287
18:22:07.147,,-629,538,-289
18:22:07.184,,-651,478,-280
18:22:07.221,,-718,563,-277
18:22:07.258,,-767,675,-284
18:22:07.295,,-743,755,-341
18:22:07.332,,-692,722,-368
18:22:07.369,,-696,728,-358
18:22:07.406,,-734,734,-370
18:22:07.443,,-810,770,-537
18:22:07.480,,-770,716,-638
18:22:07.517,,-664,626,-512
18:22:07.554,,-580,587,-477
18:22:07.591,,-450,464,-453
18:22:07.628,,-392,482,-472
18:22:07.665,,-446,567,-407
18:22:07.702,,-610,669,-397
18:22:07.739,,-707,774,-378
18:22:07.776,,-683,690,-378
18:22:07.813,,-645,575,-395
18:22:07.850,,-597,525,-350
18:22:07.887,,-586,577,-321
18:22:07.924,,-620,663,-313
18:22:07.961,,-671,721,-329
18:22:07.998,,-707,718,-347
18:22:08.035,,-721,679,-361
18:22:08.072,,-705,684,-372
18:22:08.109,,-658,704,-336
18:22:08.146,,-624,723,-307
18:22:08.183,,-710,702,-439
18:22:08.220,,-790,568,-480
18:22:08.257,,-815,613,-468
18:22:08.294,,-733,583,-457
18:22:08.331,,-630,422,-411
18:22:08.368,,-592,312,-430
18:22:08.405,,-628,329,-461
18:22:08.442,,-694,425,-471
18:22:08.479,,-774,574,-470
18:22:08.516,,-808,652,-474
18:22:08.553,,-775,630,-495
18:22:08.590,,-744,499,-506
18:22:08.627,,-722,423,-511
18:22:08.664,,-714,436,-517
18:22:08.701,,-714,511,-485
18:22:08.738,,-716,575,-455
18:22:08.775,,-696,593,-430
18:22:08.812,,-686,565,-405
18:22:08.849,,-672,532,-396
18:22:08.886,,-678,500,-404
18:22:08.923,,-747,551,-467
18:22:08.960,,-727,709,-559
18:22:08.997,,-627,642,-454
18:22:09.034,,-651,632,-484
18:22:09.071,,-585,499,-528
18:22:09.108,,-525,511,-554
18:22:09.145,,-538,618,-517
18:22:09.182,,-604,707,-429
18:22:09.219,,-604,698,-407
18:22:09.256,,-590,606,-429
18:22:09.293,,-583,576,-432
18:22:09.330,,-602,610,-422
18:22:09.367,,-610,655,-415
18:22:09.404,,-598,706,-409
18:22:09.441,,-573,712,-399
18:22:09.478,,-563,712,-368
18:22:09.515,,-571,714,-332
18:22:09.552,,-601,753,-300
18:22:09.589,,-618,768,-298
18:22:09.627,,-634,753,-301
18:22:09.664,,-674,728,-292
18:22:09.701,,-725,758,-285
18:22:09.738,,-787,793,-279
18:22:09.775,,-852,798,-373
18:22:09.812,,-825,740,-491
18:22:09.849,,-677,539,-461
18:22:09.886,,-597,421,-450
18:22:09.923,,-525,379,-406
18:22:09.960,,-473,535,-352
18:22:09.997,,-462,722,-354
18:22:10.034,,-497,820,-347
18:22:10.071,,-529,888,-289
18:22:10.108,,-576,798,-296
18:22:10.145,,-580,653,-298
18:22:10.182,,-566,616,-297
18:22:10.219,,-570,630,-295
18:22:10.256,,-594,682,-296
18:22:10.293,,-645,726,-308
18:22:10.330,,-672,773,-300
18:22:10.367,,-665,750,-288
18:22:10.404,,-646,693,-282
18:22:10.441,,-645,665,-287
18:22:10.478,,-658,693,-276
18:22:10.515,,-715,732,-316
18:22:10.552,,-751,804,-427
18:22:10.589,,-667,856,-468
18:22:10.626,,-529,826,-453
18:22:10.663,,-436,683,-401
18:22:10.700,,-364,601,-396
18:22:10.737,,-361,589,-411
18:22:10.774,,-438,650,-400
18:22:10.811,,-512,792,-403
18:22:10.848,,-505,895,-415
18:22:10.885,,-459,837,-422
18:22:10.922,,-442,726,-423
18:22:10.959,,-431,686,-411
18:22:10.996,,-444,724,-405
18:22:11.033,,-458,776,-397
18:22:11.070,,-481,801,-407
18:22:11.107,,-491,770,-417
18:22:11.144,,-507,747,-393
18:22:11.181,,-515,736,-374
18:22:11.218,,-517,741,-368
18:22:11.255,,-504,767,-369
18:22:11.292,,-500,776,-375
18:22:11.329,,-496,780,-367
18:22:11.366,,-506,776,-360
18:22:11.403,,-519,746,-362
18:22:11.440,,-534,731,-365
18:22:11.477,,-536,721,-369
18:22:11.514,,-541,721,-377
18:22:11.551,,-537,736,-383
18:22:11.588,,-545,738,-380
18:22:11.625,,-537,746,-378
18:22:11.662,,-539,733,-387
18:22:11.699,,-544,727,-382
18:22:11.736,,-546,714,-383
18:22:11.773,,-550,728,-383
18:22:11.810,,-555,715,-392
18:22:11.847,,-566,706,-389
18:22:11.884,,-565,722,-385
18:22:11.921,,-572,707,-372
18:22:11.958,,-569,708,-387
18:22:11.995,,-568,695,-383
18:22:12.032,,-563,698,-381
18:22:12.069,,-569,710,-380
18:22:12.106,,-577,708,-383
18:22:12.143,,-588,698,-384
18:22:12.180,,-586,698,-379
18:22:12.217,,-577,686,-386
18:22:12.254,,-567,692,-374
18:22:12.291,,-557,706,-380
18:22:12.328,,-564,699,-379
18:22:12.365,,-584,700,-402
18:22:12.402,,-592,709,-408
18:22:12.439,,-569,717,-398
18:22:12.476,,-541,737,-376
18:22:12.513,,-521,721,-371
18:22:12.550,,-521,704,-372
18:22:12.587,,-564,695,-374
18:22:12.624,,-573,713,-374
18:22:12.662,,-558,761,-378
18:22:12.699,,-521,754,-378
18:22:12.736,,-509,744,-369
18:22:12.773,,-511,721,-375
18:22:12.810,,-553,713,-377
18:22:12.847,,-578,730,-391
18:22:12.884,,-575,745,-374
18:22:12.921,,-564,722,-350
18:22:12.958,,-572,702,-347
18:22:12.995,,-563,696,-360
18:22:13.032,,-540,672,-373
18:22:13.069,,-532,684,-382
18:22:13.106,,-513,703,-384
18:22:13.143,,-518,742,-386
18:22:13.180,,-532,761,-378
18:22:13.217,,-548,772,-389
18:22:13.254,,-546,758,-372
18:22:13.291,,-563,745,-359
18:22:13.328,,-574,701,-372
18:22:13.365,,-578,703,-384
18:22:13.402,,-561,739,-395
18:22:13.439,,-536,787,-389
18:22:13.476,,-525,819,-370
18:22:13.513,,-533,824,-342
18:22:13.550,,-571,792,-341
18:22:13.587,,-587,741,-381
18:22:13.624,,-560,662,-401
18:22:13.661,,-517,610,-362
18:22:13.698,,-500,599,-340
18:22:13.735,,-529,618,-355
18:22:13.772,,-588,679,-396
18:22:13.809,,-641,739,-389
18:22:13.846,,-700,828,-323
18:22:13.883,,-713,821,-305
18:22:13.920,,-667,682,-320
18:22:13.957,,-632,587,-327
18:22:13.994,,-602,587,-331
18:22:14.031,,-605,596,-315
18:22:14.068,,-678,591,-280
18:22:14.105,,-758,667,-311
18:22:14.142,,-608,764,-291
18:22:14.179,,-535,805,-323
18:22:14.216,,-544,756,-310
18:22:14.253,,-533,839,-270
18:22:14.290,,-520,890,-258
18:22:14.327,,-483,854,-270
18:22:14.364,,-441,805,-285
18:22:14.401,,-418,758,-258
18:22:14.438,,-394,744,-229
18:22:14.475,,-393,754,-232
18:22:14.512,,-419,773,-248
18:22:14.549,,-476,799,-282
18:22:14.586,,-529,810,-306
18:22:14.623,,-567,799,-317
18:22:14.660,,-578,801,-307
18:22:14.697,,-564,799,-312
18:22:14.734,,-533,797,-310
18:22:14.771,,-493,779,-308
18:22:14.808,,-461,798,-322
18:22:14.845,,-458,807,-325
18:22:14.882,,-488,861,-347
18:22:14.919,,-548,894,-457
18:22:14.956,,-561,835,-538
18:22:14.993,,-532,746,-463
18:22:15.030,,-480,633,-433
18:22:15.067,,-490,550,-471
18:22:15.104,,-510,562,-499
18:22:15.141,,-568,717,-443
18:22:15.178,,-558,796,-403
18:22:15.215,,-511,737,-383
18:22:15.252,,-468,666,-389
18:22:15.289,,-470,673,-355
18:22:15.326,,-516,745,-311
18:22:15.363,,-569,801,-303
18:22:15.400,,-616,793,-315
18:22:15.437,,-655,729,-341
18:22:15.474,,-677,678,-402
18:22:15.511,,-686,649,-381
18:22:15.548,,-684,685,-352
18:22:15.585,,-701,707,-390
18:22:15.622,,-664,717,-427
18:22:15.659,,-599,760,-450
18:22:15.697,,-545,698,-384
18:22:15.734,,-503,634,-351
18:22:15.771,,-445,584,-345
18:22:15.808,,-415,611,-343
18:22:15.845,,-456,732,-344
18:22:15.882,,-589,830,-354
18:22:15.919,,-673,834,-368
18:22:15.956,,-650,737,-360
18:22:15.993,,-567,637,-351
18:22:16.030,,-496,598,-316
18:22:16.067,,-471,625,-285
18:22:16.104,,-489,709,-299
18:22:16.141,,-557,768,-320
18:22:16.178,,-621,843,-336
18:22:16.215,,-655,805,-346
18:22:16.252,,-670,757,-363
18:22:16.289,,-613,750,-352
18:22:16.326,,-543,767,-301
18:22:16.363,,-591,800,-381
18:22:16.400,,-646,725,-510
18:22:16.437,,-626,677,-477
18:22:16.474,,-571,700,-398
18:22:16.511,,-532,624,-379
18:22:16.548,,-545,579,-430
18:22:16.585,,-558,617,-446
18:22:16.622,,-576,752,-363
18:22:16.659,,-588,806,-305
18:22:16.696,,-571,703,-318
18:22:16.733,,-532,607,-355
18:22:16.770,,-532,599,-361
18:22:16.807,,-564,646,-369
18:22:16.844,,-599,731,-413
18:22:16.881,,-623,769,-428
18:22:16.918,,-630,754,-456
18:22:16.955,,-643,659,-460
18:22:16.992,,-622,586,-432
18:22:17.029,,-627,573,-480
18:22:17.066,,-506,689,-539
18:22:17.103,,-389,849,-468
18:22:17.140,,-369,968,-481
18:22:17.177,,-368,840,-514
18:22:17.214,,-398,752,-505
18:22:17.251,,-445,730,-457
18:22:17.288,,-455,760,-387
18:22:17.325,,-446,760,-378
18:22:17.362,,-439,716,-416
18:22:17.399,,-478,690,-439
18:22:17.436,,-527,698,-447
18:22:17.473,,-557,712,-446
18:22:17.510,,-556,736,-433
18:22:17.547,,-550,741,-420
18:22:17.584,,-549,754,-402
18:22:17.621,,-540,743,-379
18:22:17.658,,-523,717,-348
18:22:17.695,,-510,695,-338
18:22:17.732,,-523,683,-320
18:22:17.769,,-601,714,-374
18:22:17.806,,-649,656,-366
18:22:17.843,,-631,659,-301
18:22:17.880,,-611,620,-308
18:22:17.917,,-638,599,-348
18:22:17.954,,-696,711,-406
18:22:17.991,,-684,831,-395
18:22:18.028,,-633,861,-312
18:22:18.065,,-611,739,-306
18:22:18.102,,-592,577,-305
18:22:18.139,,-579,532,-306
18:22:18.176,,-594,578,-281
18:22:18.213,,-623,698,-277
18:22:18.250,,-647,808,-332
18:22:18.287,,-661,826,-395
18:22:18.324,,-684,913,-445
18:22:18.361,,-622,495,-241
18:22:18.398,,-631,744,-293
18:22:18.436,,-652,768,-283
18:22:18.473,,-709,738,-245
18:22:18.510,,-632,867,-216
18:22:18.547,,-550,787,-243
18:22:18.584,,-499,736,-223
18:22:18.621,,-490,716,-226
18:22:18.658,,-487,725,-218
18:22:18.695,,-481,759,-205
18:22:18.732,,-469,787,-206
18:22:18.769,,-451,824,-217
18:22:18.806,,-450,818,-227
18:22:18.843,,-498,827,-249
18:22:18.880,,-510,853,-229
18:22:18.917,,-536,857,-232
18:22:18.954,,-540,840,-220
18:22:18.991,,-529,800,-219
18:22:19.028,,-512,777,-234
18:22:19.065,,-513,769,-221
18:22:19.102,,-520,798,-218
18:22:19.139,,-536,812,-209
18:22:19.176,,-558,821,-203
18:22:19.213,,-572,795,-210
18:22:19.250,,-564,786,-202
18:22:19.287,,-568,763,-212
18:22:19.324,,-555,774,-203
18:22:19.361,,-540,784,-196
18:22:19.398,,-546,802,-195
18:22:19.435,,-527,803,-182
18:22:19.472,,-532,790,-190
18:22:19.509,,-531,790,-172
18:22:19.546,,-550,784,-190
18:22:19.583,,-557,778,-195
18:22:19.620,,-563,792,-212
18:22:19.657,,-562,824,-231
18:22:19.694,,-543,849,-254
18:22:19.731,,-523,838,-272
18:22:19.768,,-499,828,-252
18:22:19.805,,-480,801,-241
18:22:19.842,,-492,796,-252
18:22:19.879,,-499,789,-259
18:22:19.916,,-517,798,-268
18:22:19.953,,-520,783,-280
18:22:19.990,,-520,747,-286
18:22:20.027,,-502,711,-286
18:22:20.064,,-520,695,-293
18:22:20.101,,-559,740,-283
18:22:20.138,,-607,841,-266
18:22:20.175,,-602,917,-240
18:22:20.212,,-578,878,-242
18:22:20.249,,-555,770,-254
18:22:20.286,,-553,679,-259
18:22:20.323,,-597,700,-263
18:22:20.360,,-637,740,-242
18:22:20.397,,-656,823,-237
18:22:20.434,,-609,834,-281
18:22:20.471,,-547,699,-306
18:22:20.508,,-498,571,-309
18:22:20.545,,-475,565,-257
18:22:20.582,,-512,721,-233
18:22:20.619,,-595,880,-233
18:22:20.656,,-663,952,-228
18:22:20.693,,-632,922,-243
18:22:20.730,,-559,798,-246
18:22:20.767,,-532,715,-238
18:22:20.804,,-554,687,-215
18:22:20.841,,-597,736,-175
18:22:20.878,,-630,828,-207
18:22:20.915,,-640,834,-213
18:22:20.952,,-652,823,-194
18:22:20.989,,-622,737,-205
18:22:21.026,,-554,660,-231
18:22:21.063,,-486,674,-231
18:22:21.100,,-488,710,-185
18:22:21.137,,-536,789,-174
18:22:21.174,,-599,810,-197
18:22:21.211,,-618,768,-195
18:22:21.248,,-642,734,-217
18:22:21.285,,-630,711,-224
18:22:21.322,,-600,722,-239
18:22:21.359,,-552,770,-241
18:22:21.396,,-521,826,-231
18:22:21.433,,-500,855,-222
18:22:21.470,,-502,853,-202
18:22:21.507,,-502,823,-208
18:22:21.544,,-517,801,-216
18:22:21.581,,-517,788,-218
18:22:21.618,,-520,784,-218
18:22:21.655,,-525,765,-218
18:22:21.692,,-533,760,-223
18:22:21.729,,-530,795,-229
18:22:21.766,,-530,807,-231
18:22:21.803,,-530,811,-228
18:22:21.840,,-529,797,-230
18:22:21.877,,-524,795,-241
18:22:21.914,,-521,794,-242
18:22:21.951,,-521,798,-250
18:22:21.988,,-509,802,-248
18:22:22.025,,-517,808,-245
18:22:22.062,,-515,809,-233
18:22:22.099,,-529,809,-230
18:22:22.136,,-539,778,-244
18:22:22.173,,-548,756,-256
18:22:22.210,,-543,769,-246
18:22:22.247,,-538,785,-257
18:22:22.284,,-538,780,-257
18:22:22.321,,-530,793,-259
18:22:22.358,,-531,785,-268
18:22:22.395,,-524,798,-261
18:22:22.432,,-533,801,-274
18:22:22.469,,-536,795,-266
18:22:22.506,,-542,779,-266
18:22:22.543,,-544,762,-273
18:22:22.580,,-546,759,-270
18:22:22.617,,-540,764,-270
18:22:22.654,,-538,776,-267
18:22:22.691,,-528,790,-278
18:22:22.728,,-526,793,-275
18:22:22.765,,-527,793,-269
18:22:22.802,,-526,769,-264
18:22:22.839,,-535,746,-260
18:22:22.876,,-551,728,-273
18:22:22.913,,-546,742,-275
18:22:22.950,,-536,801,-292
18:22:22.987,,-533,830,-291
18:22:23.024,,-520,838,-284
18:22:23.061,,-531,795,-275
18:22:23.098,,-546,752,-278
18:22:23.135,,-568,744,-282
18:22:23.172,,-577,744,-258
18:22:23.209,,-602,739,-276
18:22:23.246,,-611,731,-288
18:22:23.283,,-582,712,-297
18:22:23.320,,-573,721,-304
18:22:23.357,,-539,728,-315
18:22:23.394,,-538,754,-320
18:22:23.431,,-539,779,-297
18:22:23.468,,-556,786,-301
18:22:23.505,,-572,763,-314
18:22:23.542,,-568,752,-320
18:22:23.579,,-553,764,-320
18:22:23.616,,-542,765,-318
18:22:23.653,,-537,756,-317
18:22:23.691,,-533,761,-309
18:22:23.728,,-543,736,-301
18:22:23.765,,-566,730,-295
18:22:23.802,,-585,738,-293
18:22:23.839,,-578,738,-291
18:22:23.876,,-580,732,-300
18:22:23.913,,-570,716,-310
18:22:23.950,,-578,711,-319
18:22:23.987,,-578,727,-332
18:22:24.024,,-554,758,-307
18:22:24.061,,-533,781,-303
18:22:24.098,,-538,798,-312
18:22:24.135,,-546,820,-301
18:22:24.172,,-523,822,-276
18:22:24.209,,-513,765,-262
18:22:24.246,,-520,701,-278
18:22:24.283,,-563,684,-293
18:22:24.320,,-594,712,-317
18:22:24.357,,-595,753,-325
18:22:24.394,,-577,760,-341
18:22:24.431,,-555,763,-349
18:22:24.468,,-521,778,-331
18:22:24.505,,-508,778,-317
18:22:24.542,,-511,753,-327
18:22:24.579,,-534,744,-343
18:22:24.616,,-536,758,-338
18:22:24.653,,-538,776,-336
18:22:24.690,,-535,755,-335
18:22:24.727,,-542,740,-337
18:22:24.764,,-541,741,-325
18:22:24.801,,-543,755,-315
18:22:24.838,,-539,767,-331
18:22:24.875,,-527,769,-340
18:22:24.912,,-513,764,-334
18:22:24.949,,-521,761,-317
18:22:24.986,,-541,755,-312
18:22:25.023,,-569,754,-331
18:22:25.060,,-569,750,-341
18:22:25.097,,-551,747,-327
18:22:25.134,,-536,739,-317
18:22:25.171,,-546,720,-311
18:22:25.208,,-556,715,-322
18:22:25.245,,-557,770,-328
18:22:25.282,,-531,791,-325
18:22:25.319,,-527,791,-311
18:22:25.356,,-531,761,-302
18:22:25.393,,-542,745,-295
18:22:25.430,,-554,755,-289
18:22:25.467,,-549,752,-292
18:22:25.504,,-532,741,-309
18:22:25.541,,-515,716,-314
18:22:25.578,,-526,704,-327
18:22:25.615,,-554,745,-341
18:22:25.652,,-581,786,-367
18:22:25.689,,-605,801,-391
18:22:25.726,,-584,798,-395
18:22:25.763,,-560,768,-363
18:22:25.800,,-533,715,-370
18:22:25.837,,-490,690,-356
18:22:25.874,,-478,694,-332
18:22:25.911,,-477,692,-302
18:22:25.948,,-501,687,-306
18:22:25.985,,-525,725,-340
18:22:26.022,,-560,788,-366
18:22:26.059,,-592,841,-378
18:22:26.096,,-606,838,-358
18:22:26.133,,-608,774,-337
18:22:26.170,,-590,708,-317
18:22:26.207,,-549,683,-320
18:22:26.244,,-537,680,-311
18:22:26.281,,-534,697,-309
18:22:26.318,,-530,684,-325
18:22:26.355,,-521,641,-348
18:22:26.392,,-552,622,-399
18:22:26.429,,-594,590,-470
18:22:26.466,,-596,542,-471
18:22:26.503,,-647,514,-473
18:22:26.540,,-709,612,-513
18:22:26.577,,-738,706,-576
18:22:26.614,,-718,746,-554
18:22:26.651,,-711,748,-485
18:22:26.688,,-713,675,-486
18:22:26.725,,-692,543,-488
18:22:26.762,,-681,439,-476
18:22:26.799,,-684,421,-475
18:22:26.836,,-692,431,-464
18:22:26.873,,-696,466,-470
18:22:26.910,,-710,477,-485
18:22:26.947,,-738,517,-470
18:22:26.984,,-765,536,-459
18:22:27.021,,-757,515,-429
18:22:27.058,,-745,483,-408
18:22:27.095,,-738,518,-484
18:22:27.132,,-620,579,-559
18:22:27.169,,-464,777,-624
18:22:27.206,,-389,898,-608
18:22:27.243,,-415,952,-534
18:22:27.280,,-427,919,-501
18:22:27.318,,-378,787,-439
18:22:27.355,,-296,674,-357
18:22:27.392,,-274,656,-356
18:22:27.429,,-301,715,-356
18:22:27.466,,-384,798,-371
18:22:27.503,,-476,834,-381
18:22:27.540,,-534,821,-377
18:22:27.577,,-535,781,-356
18:22:27.614,,-521,757,-368
18:22:27.651,,-486,729,-333
18:22:27.688,,-471,743,-332
18:22:27.725,,-488,763,-338
18:22:27.762,,-533,807,-360
18:22:27.799,,-594,899,-382
18:22:27.836,,-659,946,-351
18:22:27.873,,-745,980,-410
18:22:27.910,,-745,901,-623
18:22:27.947,,-551,587,-610
18:22:27.984,,-444,415,-497
18:22:28.021,,-440,458,-429
18:22:28.058,,-458,560,-310
18:22:28.095,,-469,654,-322
18:22:28.132,,-498,676,-357
18:22:28.169,,-531,643,-363
18:22:28.206,,-579,631,-360
18:22:28.243,,-598,685,-316
18:22:28.280,,-592,722,-278
18:22:28.317,,-608,693,-306
18:22:28.354,,-633,697,-362
18:22:28.391,,-672,706,-415
18:22:28.428,,-689,845,-433
18:22:28.465,,-696,993,-386
18:22:28.502,,-680,1034,-501
18:22:28.539,,-544,820,-622
18:22:28.576,,-331,599,-595
18:22:28.613,,-226,588,-521
18:22:28.650,,-263,668,-383
18:22:28.687,,-486,646,-360
18:22:28.724,,-639,621,-389
18:22:28.761,,-569,663,-363
18:22:28.798,,-457,677,-358
18:22:28.835,,-409,660,-335
18:22:28.872,,-412,659,-295
18:22:28.909,,-476,707,-266
18:22:28.946,,-544,803,-293
18:22:28.983,,-627,837,-343
18:22:29.020,,-718,874,-398
18:22:29.057,,-764,937,-377
18:22:29.094,,-834,955,-449
18:22:29.131,,-814,805,-588
18:22:29.168,,-653,559,-550
18:22:29.205,,-576,383,-476
18:22:29.242,,-563,332,-422
18:22:29.279,,-561,427,-332
18:22:29.316,,-528,528,-330
18:22:29.353,,-536,575,-326
18:22:29.390,,-595,610,-336
18:22:29.427,,-624,580,-382
18:22:29.464,,-614,595,-375
18:22:29.501,,-621,680,-324
18:22:29.538,,-644,733,-333
18:22:29.575,,-628,769,-390
18:22:29.612,,-617,827,-418
18:22:29.649,,-644,940,-369
18:22:29.686,,-743,1009,-432
18:22:29.723,,-758,818,-609
18:22:29.760,,-554,629,-637
18:22:29.797,,-360,561,-590
18:22:29.834,,-304,573,-493
18:22:29.871,,-408,637,-401
18:22:29.908,,-598,666,-341
18:22:29.945,,-629,674,-314
18:22:29.982,,-544,653,-311
18:22:30.019,,-493,585,-341
18:22:30.056,,-471,589,-340
18:22:30.093,,-482,646,-308
18:22:30.130,,-547,740,-307
18:22:30.167,,-616,790,-333
18:22:30.204,,-654,789,-361
18:22:30.241,,-661,750,-362
18:22:30.278,,-643,738,-308
18:22:30.315,,-679,802,-324
18:22:30.352,,-744,829,-489
18:22:30.389,,-775,726,-514
18:22:30.426,,-707,569,-414
18:22:30.463,,-688,407,-434
18:22:30.500,,-663,344,-431
18:22:30.537,,-643,458,-388
18:22:30.574,,-613,595,-346
18:22:30.612,,-629,671,-301
18:22:30.649,,-661,593,-339
18:22:30.686,,-672,498,-385
18:22:30.723,,-682,508,-385
18:22:30.760,,-705,583,-345
18:22:30.797,,-733,651,-366
18:22:30.834,,-727,669,-397
18:22:30.871,,-738,691,-415
18:22:30.908,,-747,774,-437
18:22:30.945,,-763,770,-524
18:22:30.982,,-733,724,-584
18:22:31.019,,-570,570,-477
18:22:31.056,,-491,550,-494
18:22:31.093,,-472,546,-461
18:22:31.130,,-583,597,-403
18:22:31.167,,-730,661,-379
18:22:31.204,,-705,670,-344
18:22:31.241,,-629,573,-362
18:22:31.278,,-580,516,-379
18:22:31.315,,-548,518,-364
18:22:31.352,,-548,602,-357
18:22:31.389,,-558,718,-369
18:22:31.426,,-548,778,-374
18:22:31.463,,-534,794,-362
18:22:31.500,,-518,780,-347
18:22:31.537,,-516,760,-340
18:22:31.574,,-522,760,-342
18:22:31.611,,-555,791,-337
18:22:31.648,,-599,830,-309
18:22:31.685,,-660,858,-293
18:22:31.722,,-690,850,-329
18:22:31.759,,-714,803,-430
18:22:31.796,,-705,707,-449
18:22:31.833,,-645,662,-406
18:22:31.870,,-599,536,-369
18:22:31.907,,-570,427,-441
18:22:31.944,,-607,411,-459
18:22:31.981,,-626,507,-386
18:22:32.018,,-635,673,-325
18:22:32.055,,-692,690,-253
18:22:32.092,,-597,623,-337
18:22:32.129,,-643,601,-305
18:22:32.166,,-624,625,-271
18:22:32.203,,-665,739,-226
18:22:32.240,,-693,727,-207
18:22:32.277,,-677,724,-218
18:22:32.314,,-664,723,-226
18:22:32.351,,-671,703,-237
18:22:32.388,,-714,670,-275
18:22:32.425,,-746,729,-249
18:22:32.462,,-783,769,-270
18:22:32.499,,-753,863,-284
18:22:32.536,,-692,847,-316
18:22:32.573,,-616,692,-300
18:22:32.610,,-541,669,-277
18:22:32.647,,-511,623,-281
18:22:32.684,,-492,636,-226
18:22:32.721,,-554,663,-185
18:22:32.758,,-628,882,-113
18:22:32.795,,-634,728,-96
18:22:32.832,,-811,658,-178
18:22:32.869,,-685,601,-157
18:22:32.906,,-695,573,-195
18:22:32.943,,-666,725,-200
18:22:32.980,,-649,594,-156
18:22:33.017,,-698,721,-130
18:22:33.054,,-703,790,-88
18:22:33.091,,-696,734,-103
18:22:33.128,,-688,765,-83
18:22:33.165,,-668,822,-68
18:22:33.202,,-701,795,-43
18:22:33.239,,-678,801,-109
18:22:33.276,,-635,729,-121
18:22:33.313,,-589,728,-63
18:22:33.350,,-531,854,48
18:22:33.387,,-631,805,83
18:22:33.425,,-702,732,-224
18:22:33.462,,-597,588,-196
18:22:33.499,,-519,711,-209
18:22:33.536,,-523,775,-177
18:22:33.573,,-538,686,-292
18:22:33.610,,-579,644,-209
18:22:33.647,,-561,826,-275
18:22:33.684,,-544,824,-385
18:22:33.721,,-532,765,-384
18:22:33.758,,-566,679,-326
18:22:33.795,,-590,803,-370
18:22:33.832,,-579,848,-451
18:22:33.869,,-567,799,-406
18:22:33.906,,-568,747,-368
18:22:33.943,,-582,742,-457
18:22:33.980,,-566,690,-455
18:22:34.017,,-498,547,-360
18:22:34.054,,-372,581,-470
18:22:34.091,,-206,743,-525
18:22:34.128,,-227,668,-422
18:22:34.165,,-251,704,-528
18:22:34.202,,-348,636,-547
18:22:34.239,,-484,654,-553
18:22:34.276,,-486,660,-597
18:22:34.313,,-456,732,-624
18:22:34.350,,-367,582,-593
18:22:34.387,,-333,547,-568
18:22:34.424,,-288,437,-651
18:22:34.461,,-224,532,-711
18:22:34.498,,-198,716,-696
18:22:34.535,,-191,679,-608
18:22:34.572,,-105,767,-669
18:22:34.609,,-117,927,-601
18:22:34.646,,-122,624,-739
18:22:34.683,,-2,834,-713
18:22:34.720,,-4,763,-434
18:22:34.757,,123,826,-415
18:22:34.794,,123,1138,-364
18:22:34.831,,202,1015,-288
18:22:34.868,,188,1180,-282
18:22:34.905,,185,1048,-219
18:22:34.942,,107,1120,-175
18:22:34.979,,106,994,21
18:22:35.016,,96,1120,104
18:22:35.053,,80,964,207
18:22:35.090,,94,959,249
18:22:35.127,,114,904,343
18:22:35.164,,179,635,402
18:22:35.201,,356,1057,251
18:22:35.238,,496,899,435
18:22:35.275,,563,1095,361
18:22:35.312,,377,995,-6
18:22:35.349,,274,840,-443
18:22:35.386,,364,1018,-348
18:22:35.423,,387,914,-381
18:22:35.460,,324,783,-546
18:22:35.497,,231,692,-439
18:22:35.534,,174,573,-463
18:22:35.571,,118,621,-482
18:22:35.608,,84,727,-534
18:22:35.645,,31,839,-437
18:22:35.682,,15,842,-510
18:22:35.719,,-60,978,-519
18:22:35.756,,-56,933,-553
18:22:35.793,,-60,1012,-643
18:22:35.830,,-9,942,-651
18:22:35.867,,56,986,-643
18:22:35.904,,111,736,-650
18:22:35.941,,173,841,-671
18:22:35.978,,183,670,-647
18:22:36.015,,223,703,-658
18:22:36.052,,274,790,-653
18:22:36.089,,317,631,-590
18:22:36.126,,299,642,-621
18:22:36.163,,215,565,-640
18:22:36.200,,208,658,-713
18:22:36.237,,187,655,-709
18:22:36.274,,197,693,-739
18:22:36.311,,229,643,-665
18:22:36.348,,192,715,-645
18:22:36.385,,217,636,-650
18:22:36.422,,188,695,-701
18:22:36.459,,150,673,-730
18:22:36.496,,134,622,-742
18:22:36.533,,119,574,-797
18:22:36.570,,185,641,-776
18:22:36.607,,259,630,-737
18:22:36.644,,269,609,-684
18:22:36.681,,247,567,-651
18:22:36.718,,236,582,-728
18:22:36.755,,232,583,-817
18:22:36.792,,206,584,-799
18:22:36.829,,153,527,-793
18:22:36.866,,125,559,-732
18:22:36.903,,163,549,-740
18:22:36.940,,166,511,-787
18:22:36.977,,97,580,-819
18:22:37.014,,81,550,-831
18:22:37.051,,62,605,-770
18:22:37.088,,43,586,-799
18:22:37.125,,64,525,-778
18:22:37.162,,61,523,-766
18:22:37.199,,73,561,-770
18:22:37.236,,103,538,-796
18:22:37.273,,151,508,-819
18:22:37.310,,199,515,-799
18:22:37.348,,218,494,-790
18:22:37.385,,227,516,-776
18:22:37.422,,233,518,-831
18:22:37.459,,253,545,-832
18:22:37.496,,280,512,-776
18:22:37.533,,234,540,-804
18:22:37.570,,200,524,-768
18:22:37.607,,192,538,-791
18:22:37.644,,191,537,-789
18:22:37.681,,205,548,-780
18:22:37.718,,185,555,-785
18:22:37.755,,228,529,-780
18:22:37.792,,205,549,-786
18:22:37.829,,183,577,-754
18:22:37.866,,184,619,-728
18:22:37.903,,214,606,-711
18:22:37.940,,261,665,-659
18:22:37.977,,298,684,-644
18:22:38.014,,342,794,-668
18:22:38.051,,307,811,-592
18:22:38.088,,195,1045,-473
18:22:38.125,,30,963,-511
18:22:38.162,,-112,1025,-434
18:22:38.199,,-120,1060,-432
18:22:38.236,,-114,803,-349
18:22:38.273,,-31,816,-391
18:22:38.310,,54,914,-260
18:22:38.347,,114,790,-215
18:22:38.384,,204,785,-252
18:22:38.421,,319,937,-252
18:22:38.458,,359,896,-321
18:22:38.495,,450,1227,-126
18:22:38.532,,325,833,-176
18:22:38.569,,261,806,-184
18:22:38.606,,227,962,-157
18:22:38.643,,211,985,-92
18:22:38.680,,212,879,-28
18:22:38.717,,214,828,-29
18:22:38.754,,220,905,-44
18:22:38.791,,280,920,-79
18:22:38.828,,345,1077,-209
18:22:38.865,,370,1134,-166
18:22:38.902,,336,1041,-168
18:22:38.939,,218,955,-159
18:22:38.976,,115,899,-116
18:22:39.013,,63,830,-136
18:22:39.050,,78,883,-179
18:22:39.087,,112,1019,-172
18:22:39.124,,118,931,-197
18:22:39.161,,150,910,-229
18:22:39.198,,143,920,-232
18:22:39.235,,125,906,-203
18:22:39.272,,124,922,-186
18:22:39.309,,124,934,-177
18:22:39.346,,109,921,-193
18:22:39.383,,100,940,-208
18:22:39.420,,78,941,-190
18:22:39.457,,58,949,-196
18:22:39.494,,64,997,-192
18:22:39.531,,64,984,-195
18:22:39.568,,47,961,-206
18:22:39.605,,42,965,-205
18:22:39.642,,42,921,-239
18:22:39.679,,35,923,-235
18:22:39.716,,41,941,-225
18:22:39.753,,53,921,-231
18:22:39.790,,57,889,-221
18:22:39.827,,67,890,-231
18:22:39.864,,82,890,-219
18:22:39.901,,98,903,-220
18:22:39.938,,107,913,-213
18:22:39.975,,88,928,-203
18:22:40.012,,77,940,-203
18:22:40.049,,45,947,-180
18:22:40.086,,17,976,-188
18:22:40.123,,-12,958,-189
18:22:40.160,,-20,996,-188
18:22:40.197,,-42,978,-212
18:22:40.234,,-50,988,-224
18:22:40.271,,-30,999,-213
18:22:40.308,,-1,998,-213
18:22:40.345,,31,1008,-212
18:22:40.382,,82,1020,-201
18:22:40.419,,141,1015,-188
18:22:40.456,,176,987,-177
18:22:40.493,,173,928,-161
18:22:40.530,,156,869,-148
18:22:40.567,,143,886,-177
18:22:40.604,,140,899,-218
18:22:40.641,,138,921,-231
18:22:40.678,,122,936,-251
18:22:40.715,,111,942,-252
18:22:40.752,,106,928,-257
18:22:40.789,,110,927,-261
18:22:40.826,,111,930,-256
18:22:40.863,,116,921,-261
18:22:40.900,,112,904,-254
18:22:40.937,,104,907,-253
18:22:40.974,,101,900,-265
18:22:41.011,,101,909,-259
18:22:41.048,,104,923,-269
18:22:41.085,,114,937,-279
18:22:41.122,,128,956,-276
18:22:41.159,,138,967,-289
18:22:41.196,,137,969,-294
18:22:41.233,,108,937,-278
18:22:41.270,,78,930,-266
18:22:41.307,,56,913,-252
18:22:41.344,,45,921,-256
18:22:41.381,,43,919,-264
18:22:41.418,,41,935,-263
18:22:41.455,,48,942,-274
18:22:41.492,,55,940,-266
18:22:41.529,,66,937,-257
18:22:41.566,,74,931,-255
18:22:41.603,,84,925,-263
18:22:41.640,,86,925,-264
18:22:41.677,,76,920,-261
18:22:41.714,,67,925,-265
18:22:41.751,,63,938,-267
18:22:41.788,,64,952,-277
18:22:41.825,,67,960,-287
18:22:41.862,,64,959,-274
18:22:41.899,,53,946,-270
18:22:41.936,,45,934,-273
18:22:41.973,,43,922,-263
18:22:42.010,,34,936,-276
18:22:42.047,,11,944,-274
18:22:42.084,,-20,918,-289
18:22:42.121,,0,887,-310
18:22:42.158,,28,893,-304
18:22:42.195,,59,922,-288
18:22:42.232,,94,957,-264
18:22:42.269,,102,948,-250
18:22:42.306,,91,945,-253
18:22:42.344,,77,920,-244
18:22:42.381,,69,928,-231
18:22:42.418,,63,940,-225
18:22:42.455,,68,958,-228
18:22:42.492,,79,973,-238
18:22:42.529,,98,984,-249
18:22:42.566,,96,944,-252
18:22:42.603,,81,929,-256
18:22:42.640,,68,934,-255
18:22:42.677,,65,935,-259
18:22:42.714,,76,936,-259
18:22:42.751,,81,920,-267
18:22:42.788,,81,937,-275
18:22:42.825,,85,940,-270
18:22:42.862,,84,934,-271
18:22:42.899,,71,921,-266
18:22:42.936,,57,927,-258
18:22:42.973,,53,946,-254
18:22:43.010,,43,928,-250
18:22:43.047,,41,918,-242
18:22:43.084,,38,919,-236
18:22:43.121,,37,925,-245
18:22:43.158,,44,928,-242
18:22:43.195,,55,945,-244
18:22:43.232,,61,950,-242
18:22:43.269,,68,951,-237
18:22:43.306,,75,943,-226
18:22:43.343,,76,925,-218
18:22:43.380,,73,927,-218
18:22:43.417,,71,938,-234
18:22:43.454,,69,945,-253
18:22:43.491,,66,955,-260
18:22:43.528,,65,956,-247
18:22:43.565,,74,952,-243
18:22:43.602,,88,949,-236
18:22:43.639,,103,947,-232
18:22:43.676,,104,938,-238
18:22:43.713,,89,920,-236
18:22:43.750,,68,923,-229
18:22:43.787,,46,923,-232
18:22:43.824,,34,933,-234
18:22:43.861,,33,953,-236
18:22:43.898,,36,957,-241
18:22:43.935,,42,948,-233
18:22:43.972,,47,952,-231
18:22:44.009,,48,936,-236
18:22:44.046,,47,937,-244
18:22:44.083,,49,941,-244
18:22:44.120,,54,942,-252
18:22:44.157,,60,940,-257
18:22:44.194,,64,935,-252
18:22:44.231,,65,932,-254
18:22:44.268,,68,928,-255
18:22:44.305,,67,934,-251
18:22:44.342,,68,930,-259
18:22:44.379,,60,920,-259
18:22:44.416,,45,922,-263
18:22:44.453,,37,925,-266
18:22:44.490,,39,934,-271
18:22:44.527,,48,942,-275
18:22:44.564,,58,946,-268
18:22:44.601,,90,985,-265
18:22:44.638,,108,958,-255
18:22:44.675,,113,938,-249
18:22:44.712,,109,935,-253
18:22:44.749,,82,908,-273
18:22:44.786,,39,894,-285
18:22:44.823,,-5,903,-299
18:22:44.860,,-41,932,-311
18:22:44.897,,-51,955,-317
18:22:44.934,,-70,933,-315
18:22:44.971,,-85,945,-330
18:22:45.008,,-98,933,-350
18:22:45.045,,-87,956,-355
18:22:45.082,,-76,954,-357
18:22:45.119,,-64,953,-364
18:22:45.156,,-50,927,-351
18:22:45.193,,-36,905,-341
18:22:45.230,,-33,876,-325
18:22:45.267,,-42,858,-323
18:22:45.304,,-58,842,-318
18:22:45.341,,-77,850,-336
18:22:45.378,,-84,863,-359
18:22:45.415,,-101,868,-361
18:22:45.452,,-116,924,-378
18:22:45.489,,-88,978,-391
18:22:45.526,,-56,948,-359
18:22:45.563,,-23,984,-361
18:22:45.600,,-7,930,-324
18:22:45.637,,-11,889,-312
18:22:45.674,,-29,881,-298
18:22:45.711,,-36,909,-299
18:22:45.748,,-37,909,-306
18:22:45.785,,-37,912,-320
18:22:45.822,,-50,894,-320
18:22:45.859,,-63,905,-335
18:22:45.896,,-59,916,-343
18:22:45.933,,-36,961,-334
18:22:45.970,,5,972,-313
18:22:46.007,,33,955,-285
18:22:46.044,,33,901,-275
18:22:46.081,,-2,852,-267
18:22:46.118,,-32,897,-264
18:22:46.155,,-46,901,-270
18:22:46.192,,-50,918,-277
18:22:46.229,,-58,920,-285
18:22:46.266,,-68,910,-292
18:22:46.303,,-76,911,-301
18:22:46.340,,-91,891,-302
18:22:46.377,,-99,902,-312
18:22:46.414,,-90,930,-331
18:22:46.451,,-69,950,-339
18:22:46.488,,-39,979,-342
18:22:46.525,,-23,967,-333
18:22:46.562,,-10,945,-327
18:22:46.599,,-3,919,-316
18:22:46.636,,0,913,-313
18:22:46.674,,1,914,-316
18:22:46.710,,-1,911,-321
18:22:46.748,,-13,904,-322
18:22:46.785,,-24,900,-332
18:22:46.822,,-33,903,-334
18:22:46.859,,-38,914,-336
18:22:46.896,,-32,931,-340
18:22:46.933,,-35,927,-334
18:22:46.970,,-30,932,-332
18:22:47.007,,-24,911,-328
18:22:47.044,,-36,908,-324
18:22:47.081,,-42,921,-332
18:22:47.118,,-36,904,-326
18:22:47.155,,-46,901,-325
18:22:47.192,,-48,929,-336
18:22:47.229,,-31,928,-333
18:22:47.266,,-31,943,-335
18:22:47.303,,-35,945,-322
18:22:47.340,,-51,900,-318
18:22:47.377,,-91,845,-320
18:22:47.414,,-125,860,-343
18:22:47.451,,-82,943,-350
18:22:47.488,,-40,963,-357
18:22:47.525,,-20,939,-335
18:22:47.562,,-15,917,-319
18:22:47.599,,0,916,-319
18:22:47.636,,21,905,-302
18:22:47.673,,31,915,-318
18:22:47.710,,28,891,-324
18:22:47.747,,5,886,-322
18:22:47.784,,-21,886,-330
18:22:47.821,,-47,877,-331
18:22:47.858,,-70,878,-339
18:22:47.895,,-108,881,-382
18:22:47.932,,-176,857,-340
18:22:47.969,,-199,718,-261
18:22:48.006,,-169,718,-184
18:22:48.043,,16,830,-265
18:22:48.080,,97,811,-224
18:22:48.117,,233,1068,-137
18:22:48.154,,340,1331,66
18:22:48.191,,396,1173,17
18:22:48.228,,364,957,208
18:22:48.265,,355,805,323
18:22:48.302,,308,859,375
18:22:48.339,,315,905,436
18:22:48.376,,353,832,410
18:22:48.413,,359,919,341
18:22:48.450,,377,1259,339
18:22:48.487,,284,932,576
18:22:48.524,,287,806,566
18:22:48.561,,187,732,769
18:22:48.598,,37,730,843
18:22:48.635,,-15,485,773
18:22:48.672,,47,405,770
18:22:48.709,,245,323,682
18:22:48.746,,371,143,573
18:22:48.783,,607,196,767
18:22:48.820,,861,154,648
18:22:48.857,,977,329,798
18:22:48.894,,781,235,1136
18:22:48.931,,563,283,910
18:22:48.968,,465,174,825
18:22:49.005,,404,231,743
18:22:49.042,,556,172,935
18:22:49.079,,484,41,1010
18:22:49.116,,487,277,780
18:22:49.153,,487,289,944
18:22:49.190,,479,96,990
18:22:49.227,,430,319,940
18:22:49.264,,390,214,842
18:22:49.301,,384,187,936
18:22:49.338,,342,290,777
18:22:49.375,,306,348,692
18:22:49.412,,294,297,870
18:22:49.449,,307,205,938
18:22:49.486,,317,261,920
18:22:49.523,,361,371,868
18:22:49.560,,374,353,836
18:22:49.597,,373,344,857
18:22:49.634,,356,298,795
18:22:49.671,,382,211,774
18:22:49.708,,420,211,877
18:22:49.745,,404,278,903
18:22:49.782,,389,288,831
18:22:49.819,,405,369,776
18:22:49.856,,405,555,726
18:22:49.893,,529,702,754
18:22:49.930,,512,643,718
18:22:49.967,,499,341,662
18:22:50.004,,558,107,579
18:22:50.041,,574,-6,855
18:22:50.078,,460,140,847
18:22:50.115,,439,-72,815
18:22:50.152,,475,27,815
18:22:50.189,,535,181,823
18:22:50.226,,532,145,732
18:22:50.263,,521,63,729
18:22:50.300,,681,197,795
18:22:50.337,,740,294,903
18:22:50.374,,668,179,871
18:22:50.411,,630,138,859
18:22:50.448,,587,109,846
18:22:50.485,,607,174,818
18:22:50.522,,638,198,777
18:22:50.559,,623,490,772
18:22:50.596,,648,335,694
18:22:50.633,,732,270,697
18:22:50.670,,726,401,720
18:22:50.707,,684,394,690
18:22:50.744,,595,431,668
18:22:50.782,,544,382,686
18:22:50.819,,448,408,704
18:22:50.856,,227,588,709
18:22:50.893,,-102,660,748
18:22:50.930,,-189,667,977
18:22:50.967,,67,535,1074
18:22:51.004,,164,248,980
18:22:51.041,,304,99,937
18:22:51.078,,505,284,936
18:22:51.115,,530,288,778
18:22:51.152,,515,248,618
18:22:51.189,,571,740,714
18:22:51.226,,572,500,804
18:22:51.263,,386,547,810
18:22:51.300,,312,408,916
18:22:51.337,,309,379,831
18:22:51.374,,375,345,730
18:22:51.411,,518,338,730
18:22:51.448,,683,497,743
18:22:51.485,,814,431,612
18:22:51.522,,822,404,596
18:22:51.559,,749,357,656
18:22:51.596,,588,109,683
18:22:51.633,,447,310,744
18:22:51.670,,423,363,762
18:22:51.707,,400,277,832
18:22:51.744,,342,266,883
18:22:51.781,,369,448,1038
18:22:51.818,,353,327,948
18:22:51.855,,277,265,866
18:22:51.892,,292,376,905
18:22:51.929,,352,386,870
18:22:51.966,,310,359,841
18:22:52.003,,343,462,836
18:22:52.040,,371,492,853
18:22:52.077,,284,337,860
18:22:52.114,,330,420,845
18:22:52.151,,337,427,845
18:22:52.188,,324,369,839
18:22:52.225,,333,501,800
18:22:52.262,,280,461,772
18:22:52.299,,368,637,783
18:22:52.336,,413,657,819
18:22:52.373,,360,516,819
18:22:52.410,,394,707,740
18:22:52.447,,465,919,691
18:22:52.484,,358,913,691
18:22:52.521,,331,978,521
18:22:52.558,,290,967,477
18:22:52.595,,198,932,432
18:22:52.632,,122,657,461
18:22:52.669,,37,622,551
18:22:52.706,,-86,328,639
18:22:52.743,,-72,273,760
18:22:52.780,,-153,269,889
18:22:52.817,,-124,202,1104
18:22:52.854,,-144,300,1096
18:22:52.891,,-159,202,1001
18:22:52.928,,-133,282,958
18:22:52.965,,-120,233,959
18:22:53.002,,-155,207,974
18:22:53.039,,-182,96,1011
18:22:53.076,,-262,171,960
18:22:53.113,,-291,112,875
18:22:53.150,,-153,430,923
18:22:53.187,,-131,501,814
18:22:53.224,,35,455,640
18:22:53.261,,360,1054,807
18:22:53.298,,952,938,1315
18:22:53.335,,579,818,725
18:22:53.372,,41,774,566
18:22:53.409,,-30,849,426
18:22:53.446,,-197,874,136
18:22:53.483,,-266,908,111
18:22:53.520,,-227,1122,172
18:22:53.557,,-224,882,346
18:22:53.594,,-113,689,372
18:22:53.631,,-39,815,317
18:22:53.668,,78,954,188
18:22:53.705,,110,1039,743
18:22:53.742,,-171,919,319
18:22:53.779,,-257,1135,56
18:22:53.816,,-347,970,-11
18:22:53.853,,-315,853,25
18:22:53.890,,-204,845,-3
18:22:53.927,,-117,823,252
18:22:53.964,,-53,792,121
18:22:54.001,,-7,825,145
18:22:54.038,,10,814,-148
18:22:54.075,,-34,766,-446
18:22:54.112,,-117,739,-601
18:22:54.149,,-115,640,-839
18:22:54.186,,-124,428,-963
18:22:54.223,,-149,227,-1070
18:22:54.260,,-148,78,-1241
18:22:54.297,,-123,111,-1150
18:22:54.334,,-56,146,-998
18:22:54.371,,-35,134,-944
18:22:54.408,,36,299,-918
18:22:54.445,,180,372,-952
18:22:54.482,,298,287,-1072
18:22:54.519,,283,269,-1035
18:22:54.556,,282,217,-1053
18:22:54.593,,265,158,-1025
18:22:54.630,,339,266,-868
18:22:54.667,,363,292,-875
18:22:54.704,,429,292,-862
18:22:54.741,,372,366,-787
18:22:54.778,,371,300,-842
18:22:54.815,,395,434,-814
18:22:54.852,,371,349,-895
18:22:54.889,,365,417,-845
18:22:54.926,,386,408,-850
18:22:54.963,,413,433,-850
18:22:55.000,,438,506,-797
18:22:55.037,,482,314,-758
18:22:55.074,,463,333,-644
18:22:55.111,,379,306,-599
18:22:55.148,,332,394,-618
18:22:55.185,,247,312,-891
18:22:55.222,,175,248,-1017
18:22:55.259,,165,215,-1066
18:22:55.296,,228,234,-986
18:22:55.333,,386,236,-941
18:22:55.370,,264,78,-1098
18:22:55.407,,280,194,-886
18:22:55.444,,325,232,-855
18:22:55.481,,368,175,-851
18:22:55.518,,393,162,-876
18:22:55.555,,378,215,-890
18:22:55.592,,383,146,-843
18:22:55.629,,399,239,-910
18:22:55.666,,429,292,-961
18:22:55.703,,428,298,-873
18:22:55.740,,450,456,-818
18:22:55.777,,539,429,-830
18:22:55.814,,540,433,-827
18:22:55.851,,548,455,-807
18:22:55.888,,429,564,-576
18:22:55.925,,310,707,-598
18:22:55.962,,132,739,-610
18:22:55.999,,-5,628,-486
18:22:56.036,,49,784,-293
18:22:56.073,,248,1064,-347
18:22:56.110,,393,862,-418
18:22:56.147,,411,953,-73
18:22:56.184,,331,835,-15
18:22:56.221,,317,924,143
18:22:56.258,,237,595,173
18:22:56.295,,211,890,288
18:22:56.332,,171,947,235
18:22:56.369,,139,944,150
18:22:56.406,,401,1167,245
18:22:56.443,,483,898,349
18:22:56.480,,360,723,304
18:22:56.517,,392,852,165
18:22:56.554,,330,767,147
18:22:56.591,,338,897,238
18:22:56.628,,309,908,258
18:22:56.665,,322,1030,357
18:22:56.702,,350,939,454
18:22:56.739,,443,943,376
18:22:56.777,,515,854,389
18:22:56.813,,521,843,468
18:22:56.851,,352,594,633
18:22:56.887,,234,589,480
18:22:56.925,,116,529,497
18:22:56.962,,43,672,506
18:22:56.999,,110,684,485
18:22:57.035,,238,820,688
18:22:57.073,,589,742,1124
18:22:57.110,,393,673,879
18:22:57.147,,429,570,797
18:22:57.184,,471,358,603
18:22:57.221,,555,491,599
18:22:57.258,,627,743,567
18:22:57.295,,702,624,739
18:22:57.332,,707,586,645
18:22:57.369,,507,666,535
18:22:57.406,,276,942,498
18:22:57.443,,25,1160,252
18:22:57.480,,-87,989,205
18:22:57.517,,-185,1005,219
18:22:57.554,,-163,1133,105
18:22:57.591,,-162,940,79
18:22:57.628,,-165,950,-14
18:22:57.665,,-73,1053,-122
18:22:57.702,,-5,972,-109
18:22:57.739,,0,880,-219
18:22:57.776,,-2,730,-306
18:22:57.813,,19,935,-396
18:22:57.850,,62,961,-377
18:22:57.887,,79,983,-383
18:22:57.924,,93,911,-455
18:22:57.961,,101,828,-596
18:22:57.998,,105,886,-593
18:22:58.035,,97,769,-601
18:22:58.072,,32,612,-834
18:22:58.109,,-46,608,-759
18:22:58.146,,-68,461,-666
18:22:58.183,,-141,563,-761
18:22:58.220,,-131,474,-798
18:22:58.257,,-170,535,-838
18:22:58.294,,-241,561,-969
18:22:58.331,,-233,386,-852
18:22:58.368,,-237,352,-913
18:22:58.405,,-278,322,-885
18:22:58.442,,-258,282,-813
18:22:58.479,,-334,174,-958
18:22:58.516,,-347,336,-910
18:22:58.553,,-369,389,-1136
18:22:58.590,,-387,383,-1158
18:22:58.627,,-283,470,-956
18:22:58.664,,-233,419,-705
18:22:58.701,,-273,356,-689
18:22:58.738,,-339,422,-732
18:22:58.775,,-353,470,-791
18:22:58.812,,-320,519,-813
18:22:58.849,,-275,510,-756
18:22:58.886,,-264,512,-744
18:22:58.923,,-270,550,-744
18:22:58.960,,-260,578,-707
18:22:58.997,,-254,608,-674
18:22:59.034,,-248,623,-642
18:22:59.071,,-240,665,-625
18:22:59.108,,-239,670,-626
18:22:59.145,,-263,697,-637
18:22:59.182,,-288,745,-726
18:22:59.219,,-290,760,-799
18:22:59.256,,-251,704,-693
18:22:59.293,,-277,678,-542
18:22:59.330,,-318,790,-535
18:22:59.367,,-324,802,-559
18:22:59.404,,-290,804,-569
18:22:59.441,,-288,772,-574
18:22:59.478,,-311,734,-560
18:22:59.515,,-332,691,-540
18:22:59.552,,-365,667,-515
18:22:59.589,,-402,666,-520
18:22:59.626,,-430,659,-546
18:22:59.663,,-447,645,-584
18:22:59.700,,-457,624,-599
18:22:59.737,,-461,611,-623
18:22:59.774,,-471,606,-621
18:22:59.811,,-466,627,-663
18:22:59.848,,-443,655,-694
18:22:59.885,,-396,724,-745
18:22:59.922,,-373,808,-806
18:22:59.959,,-276,796,-782
18:22:59.996,,-236,702,-717
18:23:00.033,,-234,654,-704
18:23:00.070,,-241,598,-705
18:23:00.107,,-246,564,-682
18:23:00.144,,-256,528,-666
18:23:00.181,,-296,505,-673
18:23:00.218,,-350,554,-725
18:23:00.255,,-390,587,-780
18:23:00.292,,-398,606,-815
18:23:00.329,,-385,683,-891
18:23:00.366,,-349,741,-884
18:23:00.403,,-326,683,-820
18:23:00.440,,-305,668,-758
18:23:00.477,,-298,662,-708
18:23:00.514,,-293,630,-659
18:23:00.551,,-297,620,-612
18:23:00.588,,-335,673,-649
18:23:00.625,,-308,634,-612
18:23:00.662,,-309,571,-530
18:23:00.699,,-347,641,-498
18:23:00.736,,-414,658,-529
18:23:00.773,,-448,722,-554
18:23:00.810,,-443,809,-585
18:23:00.847,,-378,892,-603
18:23:00.884,,-335,834,-495
18:23:00.921,,-331,797,-433
18:23:00.958,,-354,789,-442
18:23:00.995,,-376,769,-461
18:23:01.032,,-377,753,-479
18:23:01.069,,-383,720,-485
18:23:01.106,,-380,744,-516
18:23:01.143,,-360,744,-523
18:23:01.180,,-328,759,-524
18:23:01.217,,-304,775,-520
18:23:01.254,,-296,758,-494
18:23:01.291,,-305,759,-454
18:23:01.328,,-336,767,-442
18:23:01.365,,-370,782,-447
18:23:01.402,,-402,795,-452
18:23:01.439,,-423,795,-469
18:23:01.476,,-438,793,-477
18:23:01.513,,-456,776,-498
18:23:01.550,,-523,776,-558
18:23:01.587,,-519,824,-653
18:23:01.624,,-422,734,-588
18:23:01.661,,-392,675,-526
18:23:01.698,,-399,722,-571
18:23:01.735,,-373,701,-604
18:23:01.772,,-340,696,-598
18:23:01.809,,-346,704,-569
18:23:01.846,,-342,678,-516
18:23:01.883,,-365,650,-479
18:23:01.920,,-395,663,-464
18:23:01.957,,-413,669,-459
18:23:01.994,,-420,664,-452
18:23:02.031,,-430,699,-459
18:23:02.068,,-441,695,-464
18:23:02.105,,-461,711,-481
18:23:02.143,,-477,755,-495
18:23:02.180,,-466,764,-492
18:23:02.217,,-522,787,-574
18:23:02.254,,-482,915,-745
18:23:02.291,,-342,759,-592
18:23:02.328,,-259,622,-432
18:23:02.365,,-308,745,-474
18:23:02.402,,-325,772,-548
18:23:02.439,,-303,738,-552
18:23:02.476,,-323,730,-464
18:23:02.513,,-387,692,-380
18:23:02.550,,-454,681,-386
18:23:02.587,,-494,730,-423
18:23:02.624,,-508,747,-424
18:23:02.661,,-498,767,-470
18:23:02.698,,-459,778,-506
18:23:02.735,,-427,751,-492
18:23:02.772,,-428,775,-500
18:23:02.809,,-441,820,-543
18:23:02.846,,-397,868,-625
18:23:02.883,,-332,839,-618
18:23:02.920,,-299,744,-576
18:23:02.957,,-322,729,-588
18:23:02.994,,-335,680,-591
18:23:03.031,,-338,609,-548
18:23:03.068,,-381,622,-564
18:23:03.105,,-423,675,-633
18:23:03.142,,-400,670,-643
18:23:03.179,,-369,629,-587
18:23:03.216,,-367,635,-554
18:23:03.253,,-393,608,-535
18:23:03.290,,-419,625,-550
18:23:03.327,,-428,686,-562
18:23:03.364,,-411,741,-578
18:23:03.401,,-383,789,-581
18:23:03.438,,-367,779,-536
18:23:03.475,,-357,759,-485
18:23:03.512,,-365,750,-447
18:23:03.549,,-393,732,-446
18:23:03.586,,-446,775,-508
18:23:03.623,,-447,803,-571
18:23:03.660,,-399,765,-556
18:23:03.697,,-388,785,-555
18:23:03.734,,-379,758,-535
18:23:03.771,,-360,693,-520
18:23:03.808,,-354,647,-512
18:23:03.845,,-382,655,-545
18:23:03.882,,-400,681,-578
18:23:03.919,,-396,688,-564
18:23:03.956,,-392,688,-526
18:23:03.993,,-402,705,-501
18:23:04.030,,-418,707,-499
18:23:04.067,,-430,709,-510
18:23:04.104,,-433,707,-516
18:23:04.141,,-423,713,-531
18:23:04.178,,-421,715,-536
18:23:04.215,,-423,740,-552
18:23:04.252,,-419,743,-577
18:23:04.289,,-395,761,-623
18:23:04.326,,-375,765,-632
18:23:04.363,,-344,703,-580
18:23:04.400,,-346,661,-564
18:23:04.437,,-364,636,-583
18:23:04.474,,-377,635,-606
18:23:04.511,,-372,619,-631
18:23:04.548,,-376,603,-658
18:23:04.585,,-387,607,-663
18:23:04.622,,-401,606,-659
18:23:04.659,,-411,618,-667
18:23:04.696,,-414,632,-674
18:23:04.733,,-405,642,-678
18:23:04.770,,-397,675,-703
18:23:04.807,,-380,700,-716
18:23:04.844,,-369,667,-685
18:23:04.881,,-375,651,-652
18:23:04.918,,-391,635,-622
18:23:04.955,,-419,617,-607
18:23:04.992,,-437,643,-603
18:23:05.029,,-448,655,-597
18:23:05.066,,-449,663,-606
18:23:05.103,,-451,692,-606
18:23:05.140,,-418,656,-555
18:23:05.177,,-418,625,-532
18:23:05.214,,-424,666,-556
18:23:05.251,,-422,677,-521
18:23:05.288,,-420,666,-529
18:23:05.325,,-433,657,-505
18:23:05.362,,-454,655,-504
18:23:05.399,,-478,674,-516
18:23:05.436,,-487,699,-535
18:23:05.473,,-484,722,-563
18:23:05.510,,-458,745,-549
18:23:05.547,,-442,784,-540
18:23:05.584,,-422,806,-558
18:23:05.621,,-434,794,-595
18:23:05.658,,-443,713,-642
18:23:05.695,,-466,615,-714
18:23:05.732,,-464,545,-726
18:23:05.769,,-444,458,-715
18:23:05.806,,-429,421,-709
18:23:05.843,,-415,430,-677
18:23:05.880,,-408,453,-641
18:23:05.917,,-403,484,-621
18:23:05.954,,-393,534,-624
18:23:05.991,,-387,616,-596
18:23:06.028,,-380,693,-616
18:23:06.065,,-397,736,-736
18:23:06.102,,-385,763,-835
18:23:06.139,,-367,733,-721
18:23:06.177,,-347,632,-616
18:23:06.214,,-366,589,-562
18:23:06.251,,-409,637,-654
18:23:06.288,,-409,653,-727
18:23:06.325,,-375,641,-732
18:23:06.362,,-337,642,-689
18:23:06.399,,-331,674,-659
18:23:06.436,,-328,694,-646
18:23:06.473,,-303,692,-592
18:23:06.510,,-278,685,-544
18:23:06.547,,-260,685,-529
18:23:06.584,,-269,720,-540
18:23:06.621,,-283,758,-544
18:23:06.658,,-294,781,-520
18:23:06.695,,-303,761,-487
18:23:06.732,,-335,724,-475
18:23:06.769,,-366,726,-463
18:23:06.806,,-395,722,-483
18:23:06.843,,-421,691,-518
18:23:06.880,,-435,709,-555
18:23:06.917,,-434,730,-594
18:23:06.954,,-418,742,-625
18:23:06.991,,-406,734,-616
18:23:07.028,,-404,705,-590
18:23:07.065,,-420,693,-586
18:23:07.102,,-438,682,-570
18:23:07.139,,-442,689,-564
18:23:07.176,,-444,682,-576
18:23:07.213,,-439,696,-603
18:23:07.250,,-422,709,-616
18:23:07.287,,-411,684,-605
18:23:07.324,,-410,669,-601
18:23:07.361,,-417,667,-612
18:23:07.398,,-420,692,-662
18:23:07.435,,-361,675,-606
18:23:07.472,,-311,678,-568
18:23:07.509,,-294,736,-591
18:23:07.546,,-258,793,-628
18:23:07.583,,-196,846,-651
18:23:07.620,,-135,842,-636
18:23:07.657,,-99,793,-545
18:23:07.694,,-93,779,-462
18:23:07.731,,-106,790,-444
18:23:07.768,,-125,800,-447
18:23:07.805,,-160,825,-433
18:23:07.842,,-202,837,-467
18:23:07.879,,-237,816,-480
18:23:07.916,,-273,788,-470
18:23:07.953,,-314,785,-481
18:23:07.990,,-352,780,-505
18:23:08.027,,-365,752,-527
18:23:08.064,,-363,741,-555
18:23:08.101,,-354,759,-570
18:23:08.138,,-330,765,-555
18:23:08.175,,-304,772,-538
18:23:08.212,,-275,785,-514
18:23:08.249,,-261,787,-482
18:23:08.286,,-257,804,-485
18:23:08.323,,-255,849,-507
18:23:08.360,,-240,865,-525
18:23:08.397,,-257,869,-577
18:23:08.434,,-307,878,-672
18:23:08.471,,-341,812,-737
18:23:08.508,,-374,696,-697
18:23:08.545,,-401,538,-644
18:23:08.582,,-458,480,-657
18:23:08.619,,-498,474,-733
18:23:08.656,,-513,461,-782
18:23:08.693,,-470,403,-742
18:23:08.730,,-446,391,-701
18:23:08.767,,-460,425,-691
18:23:08.804,,-466,468,-737
18:23:08.841,,-458,513,-792
18:23:08.878,,-412,559,-769
18:23:08.915,,-390,579,-743
18:23:08.952,,-386,596,-725
18:23:08.989,,-388,622,-717
18:23:09.026,,-400,686,-746
18:23:09.063,,-427,721,-813
18:23:09.100,,-425,779,-909
18:23:09.137,,-295,681,-681
18:23:09.174,,-243,572,-469
18:23:09.211,,-279,649,-500
18:23:09.248,,-289,663,-577
18:23:09.285,,-265,651,-644
18:23:09.322,,-250,643,-690
18:23:09.359,,-269,635,-646
18:23:09.396,,-288,637,-622
18:23:09.433,,-296,629,-613
18:23:09.470,,-297,640,-607
18:23:09.507,,-274,680,-609
18:23:09.544,,-244,716,-582
18:23:09.582,,-211,755,-576
18:23:09.619,,-202,747,-544
18:23:09.656,,-246,759,-568
18:23:09.693,,-279,758,-596
18:23:09.730,,-329,735,-605
18:23:09.767,,-427,785,-722
18:23:09.804,,-426,865,-827
18:23:09.841,,-343,660,-669
18:23:09.878,,-353,618,-649
18:23:09.915,,-381,663,-719
18:23:09.952,,-353,629,-739
18:23:09.989,,-300,568,-688
18:23:10.026,,-273,568,-643
18:23:10.063,,-292,522,-585
18:23:10.100,,-341,480,-632
18:23:10.137,,-378,492,-601
18:23:10.174,,-378,450,-580
18:23:10.211,,-429,514,-638
18:23:10.248,,-426,545,-672
18:23:10.285,,-442,608,-712
18:23:10.322,,-448,643,-781
18:23:10.359,,-460,662,-875
18:23:10.396,,-401,676,-818
18:23:10.433,,-331,611,-688
18:23:10.470,,-343,584,-719
18:23:10.507,,-296,612,-753
18:23:10.544,,-277,577,-717
18:23:10.581,,-295,435,-658
18:23:10.618,,-287,494,-615
18:23:10.655,,-383,438,-664
18:23:10.692,,-399,388,-695
18:23:10.729,,-422,424,-758
18:23:10.766,,-418,489,-785
18:23:10.803,,-411,562,-757
18:23:10.840,,-420,571,-746
18:23:10.877,,-405,598,-778
18:23:10.914,,-410,639,-746
18:23:10.951,,-427,634,-760
18:23:10.988,,-430,648,-760
18:23:11.025,,-476,648,-797
18:23:11.062,,-532,648,-871
18:23:11.099,,-458,559,-719
18:23:11.136,,-435,457,-628
18:23:11.173,,-493,478,-743
18:23:11.210,,-524,528,-810
18:23:11.247,,-479,475,-765
18:23:11.284,,-452,428,-727
18:23:11.321,,-479,419,-675
18:23:11.358,,-493,474,-643
18:23:11.395,,-473,524,-581
18:23:11.432,,-462,589,-560
18:23:11.469,,-473,663,-576
18:23:11.506,,-529,715,-596
18:23:11.543,,-545,763,-592
18:23:11.580,,-508,755,-617
18:23:11.617,,-444,746,-610
18:23:11.654,,-415,732,-478
18:23:11.691,,-403,667,-420
18:23:11.728,,-431,644,-391
18:23:11.765,,-380,762,-393
18:23:11.802,,-351,742,-305
18:23:11.839,,-311,687,-306
18:23:11.876,,-355,689,-314
18:23:11.913,,-403,664,-266
18:23:11.950,,-489,672,-327
18:23:11.987,,-648,821,-476
18:23:12.024,,-540,880,-577
18:23:12.061,,-579,760,-531
18:23:12.098,,-537,1006,-587
18:23:12.135,,-395,902,-383
18:23:12.172,,-367,789,-401
18:23:12.209,,-410,850,-334
18:23:12.246,,-297,644,-305
18:23:12.283,,-250,659,-397
18:23:12.320,,-324,792,-496
18:23:12.357,,-315,779,-494
18:23:12.394,,-332,921,-462
18:23:12.431,,-339,967,-531
18:23:12.468,,-254,785,-562
18:23:12.505,,-286,860,-571
18:23:12.542,,-287,794,-595
18:23:12.579,,-298,709,-619
18:23:12.616,,-357,683,-623
18:23:12.653,,-402,609,-559
18:23:12.690,,-385,582,-567
18:23:12.727,,-425,518,-619
18:23:12.764,,-470,457,-638
18:23:12.801,,-528,413,-631
18:23:12.838,,-546,433,-622
18:23:12.875,,-666,386,-561
18:23:12.912,,-872,383,-464
18:23:12.949,,-621,352,-564
18:23:12.986,,-753,386,-616
18:23:13.023,,-711,511,-650
18:23:13.060,,-651,515,-729
18:23:13.097,,-655,780,-953
18:23:13.134,,-462,870,-1106
18:23:13.171,,-298,698,-917
18:23:13.208,,-134,460,-751
18:23:13.245,,-210,774,-824
18:23:13.282,,7,643,-660
18:23:13.319,,-19,516,-711
18:23:13.356,,13,444,-616
18:23:13.393,,-76,504,-663
18:23:13.430,,-108,406,-747
18:23:13.467,,-178,481,-787
18:23:13.504,,-212,522,-793
18:23:13.541,,-256,488,-834
18:23:13.578,,-238,478,-891
18:23:13.615,,-219,506,-821
18:23:13.652,,-156,510,-862
18:23:13.689,,-108,509,-761
18:23:13.726,,-65,591,-980
18:23:13.763,,60,586,-1040
18:23:13.800,,153,685,-943
18:23:13.837,,167,813,-764
18:23:13.874,,187,917,-703
18:23:13.911,,210,876,-711
18:23:13.948,,193,772,-591
18:23:13.985,,183,659,-576
18:23:14.022,,190,637,-555
18:23:14.059,,223,625,-471
18:23:14.096,,275,638,-539
18:23:14.133,,310,648,-494
18:23:14.170,,346,691,-453
18:23:14.207,,388,660,-411
18:23:14.244,,436,585,-452
18:23:14.281,,474,585,-597
18:23:14.318,,487,633,-832
18:23:14.355,,454,587,-821
18:23:14.392,,436,651,-671
18:23:14.429,,445,643,-602
18:23:14.466,,475,663,-581
18:23:14.503,,502,639,-517
18:23:14.540,,535,540,-480
18:23:14.577,,558,557,-498
18:23:14.614,,580,611,-459
18:23:14.651,,595,614,-433
18:23:14.688,,606,583,-487
18:23:14.725,,605,558,-474
18:23:14.762,,592,586,-450
18:23:14.799,,613,553,-492
18:23:14.836,,614,586,-532
18:23:14.873,,610,626,-545
18:23:14.910,,600,629,-566
18:23:14.947,,584,633,-602
18:23:14.984,,567,632,-593
18:23:15.021,,549,638,-546
18:23:15.058,,548,600,-546
18:23:15.095,,556,603,-513
18:23:15.132,,559,610,-465
18:23:15.169,,566,591,-463
18:23:15.206,,581,603,-436
18:23:15.243,,599,618,-438
18:23:15.280,,607,587,-448
18:23:15.317,,597,602,-415
18:23:15.354,,603,654,-399
18:23:15.391,,621,650,-375
18:23:15.428,,654,617,-348
18:23:15.465,,677,591,-342
18:23:15.502,,717,551,-368
18:23:15.539,,716,534,-352
18:23:15.576,,727,559,-335
18:23:15.613,,734,574,-345
18:23:15.650,,721,583,-325
18:23:15.687,,730,589,-300
18:23:15.724,,742,573,-282
18:23:15.761,,758,569,-265
18:23:15.798,,766,575,-252
18:23:15.835,,769,577,-228
18:23:15.872,,776,507,-227
18:23:15.909,,784,515,-231
18:23:15.946,,795,554,-214
18:23:15.983,,788,543,-199
18:23:16.020,,772,523,-192
18:23:16.057,,768,539,-188
18:23:16.094,,766,565,-186
18:23:16.131,,764,578,-185
18:23:16.168,,760,574,-187
18:23:16.205,,760,570,-172
18:23:16.242,,775,560,-163
18:23:16.279,,778,583,-153
18:23:16.316,,774,559,-159
18:23:16.353,,771,542,-162
18:23:16.390,,770,560,-156
18:23:16.427,,771,553,-165
18:23:16.464,,767,551,-179
18:23:16.501,,766,563,-187
18:23:16.538,,765,568,-175
18:23:16.575,,780,571,-175
18:23:16.612,,795,554,-172
18:23:16.649,,794,553,-152
18:23:16.686,,804,563,-153
18:23:16.723,,811,554,-146
18:23:16.760,,811,552,-124
18:23:16.797,,800,545,-136
18:23:16.834,,787,550,-143
18:23:16.871,,783,541,-132
18:23:16.908,,778,523,-141
18:23:16.945,,779,526,-143
18:23:16.982,,782,511,-122
18:23:17.019,,789,494,-116
18:23:17.056,,817,468,-117
18:23:17.093,,850,451,-107
18:23:17.130,,869,422,-115
18:23:17.167,,864,407,-121
18:23:17.204,,844,456,-128
18:23:17.241,,887,516,-143
18:23:17.278,,922,466,-134
18:23:17.315,,952,398,-125
18:23:17.352,,928,374,-118
18:23:17.389,,881,428,-102
18:23:17.426,,869,436,-95
18:23:17.463,,833,442,-90
18:23:17.500,,836,484,-99
18:23:17.537,,827,521,-103
18:23:17.574,,804,494,-123
18:23:17.611,,765,512,-139
18:23:17.648,,732,561,-130
18:23:17.685,,715,599,-134
18:23:17.722,,706,620,-126
18:23:17.759,,685,593,-104
18:23:17.796,,676,605,-127
18:23:17.833,,690,676,-163
18:23:17.870,,688,678,-183
18:23:17.907,,648,680,-229
18:23:17.944,,609,713,-272
18:23:17.981,,591,723,-255
18:23:18.018,,569,706,-228
18:23:18.055,,591,724,-235
18:23:18.092,,639,723,-277
18:23:18.129,,648,781,-314
18:23:18.166,,593,757,-325
18:23:18.203,,570,741,-382
18:23:18.240,,535,736,-426
18:23:18.277,,515,728,-494
18:23:18.314,,454,704,-611
18:23:18.351,,357,704,-650
18:23:18.388,,274,671,-693
18:23:18.425,,217,621,-689
18:23:18.462,,193,600,-722
18:23:18.499,,180,624,-731
18:23:18.536,,168,591,-720
18:23:18.573,,178,592,-706
18:23:18.610,,169,562,-702
18:23:18.647,,139,553,-722
18:23:18.684,,120,586,-716
18:23:18.721,,72,618,-725
18:23:18.758,,44,662,-724
18:23:18.795,,18,674,-748
18:23:18.832,,11,702,-771
18:23:18.869,,18,713,-796
18:23:18.906,,50,740,-813
18:23:18.943,,103,731,-867
18:23:18.980,,168,743,-901
18:23:19.017,,202,697,-724
18:23:19.054,,261,690,-632
18:23:19.091,,261,650,-595
18:23:19.128,,165,588,-599
18:23:19.165,,61,674,-655
18:23:19.202,,-24,677,-662
18:23:19.239,,-78,658,-634
18:23:19.276,,-107,676,-600
18:23:19.313,,-141,676,-588
18:23:19.350,,-168,720,-584
18:23:19.387,,-182,765,-559
18:23:19.424,,-196,774,-580
18:23:19.461,,-208,785,-543
18:23:19.498,,-198,779,-551
18:23:19.535,,-209,798,-605
18:23:19.572,,-136,954,-706
18:23:19.609,,10,1104,-806
18:23:19.646,,61,933,-648
18:23:19.683,,60,654,-493
18:23:19.720,,-13,556,-409
18:23:19.757,,-52,669,-507
18:23:19.795,,-127,813,-569
18:23:19.831,,-93,907,-583
18:23:19.869,,-94,931,-470
18:23:19.906,,-111,872,-330
18:23:19.943,,-107,818,-283
18:23:19.980,,-96,833,-254
18:23:20.017,,-121,837,-231
18:23:20.054,,-158,954,-241
18:23:20.091,,-192,1025,-198
18:23:20.128,,-226,963,-190
18:23:20.165,,-271,927,-227
18:23:20.202,,-313,875,-218
18:23:20.239,,-360,883,-183
18:23:20.276,,-408,906,-214
18:23:20.313,,-507,851,-240
18:23:20.350,,-430,961,-272
18:23:20.387,,-251,1171,-270
18:23:20.424,,-48,1126,-256
18:23:20.461,,79,963,-276
18:23:20.498,,165,935,-303
18:23:20.535,,90,768,-460
18:23:20.572,,129,789,-557
18:23:20.609,,80,772,-517
18:23:20.646,,-12,800,-656
18:23:20.683,,-78,765,-658
18:23:20.720,,-254,719,-780
18:23:20.757,,-279,838,-703
18:23:20.794,,-245,608,-675
18:23:20.831,,-248,451,-612
18:23:20.868,,-260,515,-606
18:23:20.905,,-303,584,-562
18:23:20.942,,-341,628,-572
18:23:20.979,,-388,635,-583
18:23:21.016,,-455,654,-662
18:23:21.053,,-509,652,-639
18:23:21.090,,-565,703,-659
18:23:21.127,,-587,697,-668
18:23:21.164,,-507,664,-660
18:23:21.201,,-444,623,-664
18:23:21.238,,-396,556,-627
18:23:21.275,,-388,554,-604
18:23:21.312,,-377,614,-554
18:23:21.349,,-344,601,-508
18:23:21.386,,-347,607,-503
18:23:21.423,,-390,630,-520
18:23:21.460,,-389,628,-468
18:23:21.497,,-402,634,-474
18:23:21.534,,-424,647,-512
18:23:21.571,,-446,649,-533
18:23:21.608,,-448,690,-596
18:23:21.645,,-458,738,-625
18:23:21.682,,-456,743,-665
18:23:21.719,,-473,805,-821
18:23:21.756,,-370,806,-807
18:23:21.793,,-278,802,-691
18:23:21.830,,-194,833,-606
18:23:21.867,,-131,696,-507
18:23:21.904,,-163,641,-513
18:23:21.941,,-254,637,-545
18:23:21.978,,-304,593,-556
18:23:22.015,,-334,561,-589
18:23:22.052,,-368,589,-560
18:23:22.089,,-401,631,-534
18:23:22.126,,-434,668,-538
18:23:22.163,,-451,696,-573
18:23:22.200,,-448,721,-599
18:23:22.237,,-429,794,-641
18:23:22.274,,-419,790,-683
18:23:22.311,,-456,791,-762
18:23:22.348,,-464,882,-841
18:23:22.385,,-362,777,-711
18:23:22.422,,-334,679,-592
18:23:22.459,,-351,680,-588
18:23:22.496,,-336,665,-613
18:23:22.533,,-297,611,-575
18:23:22.570,,-284,585,-556
18:23:22.607,,-286,608,-579
18:23:22.644,,-287,605,-568
18:23:22.681,,-280,598,-575
18:23:22.718,,-296,580,-550
18:23:22.755,,-336,639,-550
18:23:22.792,,-367,653,-577
18:23:22.829,,-379,664,-556
18:23:22.866,,-376,673,-536
18:23:22.903,,-432,707,-592
18:23:22.940,,-470,737,-676
18:23:22.977,,-460,774,-710
18:23:23.014,,-359,798,-640
18:23:23.051,,-301,784,-570
18:23:23.088,,-246,902,-596
18:23:23.125,,-163,860,-608
18:23:23.162,,-139,744,-613
18:23:23.199,,-192,667,-546
18:23:23.236,,-252,637,-487
18:23:23.273,,-301,651,-462
18:23:23.310,,-357,669,-482
18:23:23.347,,-396,696,-521
18:23:23.384,,-410,748,-582
18:23:23.421,,-396,784,-613
18:23:23.458,,-387,744,-567
18:23:23.495,,-406,729,-549
18:23:23.532,,-418,718,-573
18:23:23.569,,-409,683,-581
18:23:23.606,,-422,683,-611
18:23:23.643,,-443,737,-679
18:23:23.680,,-409,715,-699
18:23:23.717,,-384,701,-672
18:23:23.754,,-365,675,-598
18:23:23.791,,-381,630,-584
18:23:23.828,,-417,683,-650
18:23:23.865,,-410,687,-675
18:23:23.902,,-379,679,-714
18:23:23.939,,-342,635,-662
18:23:23.976,,-328,549,-581
18:23:24.013,,-360,558,-588
18:23:24.050,,-399,573,-604
18:23:24.087,,-414,600,-621
18:23:24.125,,-423,639,-637
18:23:24.161,,-412,680,-659
18:23:24.199,,-400,692,-628
18:23:24.236,,-389,687,-571
18:23:24.273,,-392,707,-547
18:23:24.310,,-391,731,-531
18:23:24.347,,-378,746,-513
18:23:24.384,,-409,726,-557
18:23:24.421,,-418,723,-560
18:23:24.458,,-416,689,-549
18:23:24.495,,-407,679,-528
18:23:24.532,,-398,741,-521
18:23:24.569,,-348,777,-547
18:23:24.606,,-274,860,-636
18:23:24.643,,-225,837,-595
18:23:24.680,,-219,770,-532
18:23:24.717,,-259,732,-470
18:23:24.754,,-292,678,-425
18:23:24.791,,-322,676,-437
18:23:24.828,,-370,716,-451
18:23:24.865,,-372,735,-478
18:23:24.902,,-364,758,-513
18:23:24.939,,-371,808,-544
18:23:24.976,,-366,802,-519
18:23:25.013,,-422,831,-618
18:23:25.050,,-443,976,-789
18:23:25.087,,-330,901,-771
18:23:25.124,,-246,746,-603
18:23:25.161,,-251,742,-578
18:23:25.198,,-231,790,-680
18:23:25.235,,-160,744,-702
18:23:25.272,,-127,629,-668
18:23:25.309,,-141,638,-619
18:23:25.346,,-163,671,-649
18:23:25.383,,-123,667,-666
18:23:25.420,,-99,649,-680
18:23:25.457,,-115,689,-715
18:23:25.494,,-120,749,-733
18:23:25.531,,-152,779,-778
18:23:25.568,,-155,788,-748
18:23:25.605,,-171,627,-583
18:23:25.642,,-247,581,-486
18:23:25.679,,-379,649,-533
18:23:25.716,,-409,719,-540
18:23:25.753,,-382,764,-550
18:23:25.790,,-359,826,-549
18:23:25.827,,-380,784,-491
18:23:25.864,,-379,734,-450
18:23:25.901,,-398,772,-407
18:23:25.938,,-422,758,-437
18:23:25.975,,-445,787,-477
18:23:26.012,,-408,862,-477
18:23:26.049,,-367,969,-569
18:23:26.086,,-366,1033,-709
18:23:26.123,,-318,902,-718
18:23:26.160,,-286,744,-631
18:23:26.197,,-321,605,-560
18:23:26.234,,-365,544,-525
18:23:26.271,,-402,472,-506
18:23:26.308,,-443,540,-547
18:23:26.345,,-472,637,-589
18:23:26.382,,-469,648,-650
18:23:26.419,,-452,760,-681
18:23:26.456,,-387,850,-600
18:23:26.493,,-335,866,-478
18:23:26.530,,-316,927,-437
18:23:26.567,,-298,957,-419
18:23:26.604,,-275,955,-419
18:23:26.641,,-264,860,-419
18:23:26.678,,-313,814,-481
18:23:26.715,,-329,874,-561
18:23:26.752,,-219,944,-584
18:23:26.789,,-105,878,-437
18:23:26.826,,-52,787,-338
18:23:26.863,,-78,751,-370
18:23:26.900,,-99,708,-393
18:23:26.937,,-151,664,-380
18:23:26.974,,-220,659,-402
18:23:27.011,,-288,691,-416
18:23:27.048,,-349,717,-381
18:23:27.085,,-407,798,-375
18:23:27.122,,-445,855,-367
18:23:27.159,,-485,864,-412
18:23:27.196,,-525,940,-505
18:23:27.233,,-492,1057,-603
18:23:27.270,,-497,958,-624
18:23:27.307,,-507,1073,-715
18:23:27.344,,-377,981,-627
18:23:27.381,,-289,804,-542
18:23:27.418,,-273,768,-509
18:23:27.455,,-262,793,-530
18:23:27.492,,-244,770,-539
18:23:27.529,,-201,718,-477
18:23:27.566,,-176,692,-387
18:23:27.603,,-192,686,-345
18:23:27.640,,-200,646,-348
18:23:27.677,,-199,606,-290
18:23:27.714,,-209,660,-288
18:23:27.751,,-244,730,-356
18:23:27.788,,-296,824,-381
18:23:27.825,,-328,893,-434
18:23:27.862,,-379,968,-512
18:23:27.899,,-360,1032,-591
18:23:27.936,,-336,1084,-560
18:23:27.973,,-262,1113,-467
18:23:28.010,,-195,946,-406
18:23:28.047,,-188,779,-375
18:23:28.084,,-209,729,-387
18:23:28.121,,-238,677,-392
18:23:28.158,,-272,647,-432
18:23:28.195,,-320,646,-414
18:23:28.232,,-360,702,-344
18:23:28.269,,-429,733,-312
18:23:28.306,,-490,823,-306
18:23:28.343,,-512,838,-368
18:23:28.380,,-513,866,-466
18:23:28.417,,-503,950,-549
18:23:28.454,,-526,1067,-588
18:23:28.491,,-397,1066,-588
18:23:28.528,,-231,935,-518
18:23:28.565,,-225,776,-445
18:23:28.602,,-188,772,-372
18:23:28.639,,-144,804,-400
18:23:28.676,,-140,739,-397
18:23:28.713,,-185,713,-318
18:23:28.750,,-214,851,-312
18:23:28.787,,-264,904,-276
18:23:28.824,,-230,877,-236
18:23:28.861,,-234,1072,-177
18:23:28.898,,-274,866,-191
18:23:28.935,,-289,927,-125
18:23:28.972,,-290,984,-91
18:23:29.009,,-283,969,24
18:23:29.046,,-230,1052,12
18:23:29.083,,-90,1135,0
18:23:29.120,,7,1082,60
18:23:29.157,,72,1012,121
18:23:29.194,,156,818,123
18:23:29.231,,82,567,135
18:23:29.268,,12,797,141
18:23:29.305,,-60,924,128
18:23:29.342,,-56,959,119
18:23:29.379,,-72,880,137
18:23:29.416,,-112,872,204
18:23:29.453,,-180,945,253
18:23:29.490,,-230,913,251
18:23:29.527,,-276,910,205
18:23:29.564,,-263,1085,115
18:23:29.601,,-226,1260,38
18:23:29.638,,-215,1254,31
18:23:29.675,,-133,1363,-31
18:23:29.712,,0,1306,-33
18:23:29.749,,103,1263,-35
18:23:29.786,,90,1020,-24
18:23:29.823,,85,990,-2
18:23:29.860,,155,894,-80
18:23:29.898,,236,1083,-25
18:23:29.935,,298,1066,-7
18:23:29.972,,327,954,58
18:23:30.009,,286,848,111
18:23:30.046,,318,772,177
18:23:30.083,,360,776,135
18:23:30.120,,404,699,83
18:23:30.157,,512,692,149
18:23:30.194,,546,816,-13
18:23:30.231,,730,533,116
18:23:30.268,,516,449,238
18:23:30.305,,338,1421,143
18:23:30.342,,350,1578,24
18:23:30.379,,171,1247,-26
18:23:30.416,,200,707,174
18:23:30.453,,223,855,269
18:23:30.490,,216,882,264
18:23:30.527,,250,795,389
18:23:30.564,,515,1017,447
18:23:30.601,,541,824,427
18:23:30.638,,339,891,415
18:23:30.675,,257,892,360
18:23:30.712,,267,850,379
18:23:30.749,,139,906,327
18:23:30.786,,-71,861,303
18:23:30.823,,-119,1120,365
18:23:30.860,,-150,1025,261
18:23:30.897,,-175,964,224
18:23:30.934,,-220,981,154
18:23:30.971,,-221,962,90
18:23:31.008,,-166,863,58
18:23:31.045,,-142,1018,-71
18:23:31.082,,-57,1077,-133
18:23:31.119,,93,921,-73
18:23:31.156,,54,1192,-122
18:23:31.193,,-24,796,-137
18:23:31.230,,-51,915,-159
18:23:31.267,,60,1017,-137
18:23:31.304,,92,969,-181
18:23:31.341,,151,973,-193
18:23:31.378,,133,988,-159
18:23:31.415,,86,1014,-126
18:23:31.452,,60,929,-133
18:23:31.489,,99,891,-112
18:23:31.526,,92,924,-106
18:23:31.563,,103,950,-100
18:23:31.600,,60,975,-89
18:23:31.637,,40,1036,-55
18:23:31.674,,19,977,-69
18:23:31.711,,-16,990,-73
18:23:31.748,,46,1010,-112
18:23:31.785,,44,939,-99
18:23:31.822,,40,986,-125
18:23:31.859,,71,913,-153
18:23:31.896,,46,948,-179
18:23:31.933,,73,1008,-194
18:23:31.970,,67,962,-214
18:23:32.007,,79,962,-218
18:23:32.044,,58,950,-215
18:23:32.081,,41,941,-215
18:23:32.118,,34,945,-212
18:23:32.155,,54,978,-214
18:23:32.192,,85,1009,-182
18:23:32.229,,-5,932,-154
18:23:32.266,,26,1074,-102
18:23:32.303,,168,886,33
18:23:32.340,,122,587,34
18:23:32.377,,292,707,-187
18:23:32.414,,465,429,10
