Sensors' Acquisition [Hz]: Acc@26.0 
hh:mm:ss.ms, Annotation , AccX [mg], AccY, AccZ
01:32:40.646,,600,648,351
01:32:40.683,,869,564,443
01:32:40.706,>Walk,,,
01:32:40.720,,1100,453,411
01:32:40.757,,1354,426,403
01:32:40.794,,1395,251,446
01:32:40.831,,1293,281,487
01:32:40.868,,959,339,469
01:32:40.905,,1014,399,381
01:32:40.942,,1140,435,321
01:32:40.979,,1212,357,270
01:32:41.016,,1018,252,235
01:32:41.053,,811,183,198
01:32:41.090,,684,210,166
01:32:41.127,,642,244,174
01:32:41.164,,657,243,188
01:32:41.201,,682,213,203
01:32:41.326,,761,187,310
01:32:41.326,,761,187,310
01:32:41.327,,761,187,310
01:32:41.349,,934,223,323
01:32:41.387,,982,266,358
01:32:41.424,,1191,400,391
01:32:41.461,,1223,529,588
01:32:41.498,,1181,647,654
01:32:41.535,,1092,618,519
01:32:41.572,,1087,300,389
01:32:41.609,,949,24,362
01:32:41.646,,788,118,309
01:32:41.683,,690,417,251
01:32:41.720,,641,631,206
01:32:41.757,,578,665,219
01:32:41.794,,606,605,352
01:32:41.831,,894,546,435
01:32:41.868,,1137,479,401
01:32:41.905,,1402,490,415
01:32:41.993,,1254,377,475
01:32:41.994,,1254,377,475
01:32:42.016,,1071,373,427
01:32:42.053,,1060,380,367
01:32:42.091,,1113,381,299
01:32:42.128,,1135,321,259
01:32:42.165,,1023,261,244
01:32:42.202,,862,211,179
01:32:42.239,,737,211,161
01:32:42.276,,701,244,171
01:32:42.313,,756,244,165
01:32:42.350,,783,203,174
01:32:42.387,,791,187,193
01:32:42.424,,756,206,231
01:32:42.461,,755,246,325
01:32:42.498,,891,241,346
01:32:42.535,,902,258,332
01:32:42.572,,1054,346,399
01:32:42.609,,1067,422,524
01:32:42.646,,1141,520,589
01:32:42.737,,1117,459,446
01:32:42.738,,1117,459,446
01:32:42.757,,946,203,367
01:32:42.795,,827,175,350
01:32:42.832,,764,368,319
01:32:42.869,,726,582,290
01:32:42.906,,676,673,330
01:32:42.943,,648,626,424
01:32:42.980,,848,586,495
01:32:43.017,,1035,491,481
01:32:43.054,,1268,428,481
01:32:43.091,,1289,258,465
01:32:43.128,,1416,324,487
01:32:43.165,,1156,326,486
01:32:43.202,,1047,367,397
01:32:43.239,,1044,379,311
01:32:43.276,,1047,339,238
01:32:43.313,,994,296,226
01:32:43.350,,797,229,202
01:32:43.437,,610,237,194
01:32:43.437,,610,237,194
01:32:43.461,,644,232,188
01:32:43.499,,724,202,205
01:32:43.536,,773,180,231
01:32:43.573,,768,165,248
01:32:43.610,,808,214,280
01:32:43.647,,1028,279,319
01:32:43.684,,1130,316,320
01:32:43.721,,1236,411,417
01:32:43.758,,1024,437,566
01:32:43.795,,1007,459,603
01:32:43.832,,1130,420,501
01:32:43.869,,1174,303,398
01:32:43.906,,950,213,433
01:32:43.943,,760,273,404
01:32:43.980,,685,453,345
01:32:44.017,,654,569,322
01:32:44.054,,682,586,357
01:32:44.145,,963,464,447
01:32:44.146,,963,464,447
01:32:44.165,,940,405,443
01:32:44.203,,1016,414,467
01:32:44.240,,1118,409,445
01:32:44.277,,1268,418,423
01:32:44.314,,1238,357,441
01:32:44.351,,1147,316,365
01:32:44.388,,1109,320,297
01:32:44.425,,1181,289,259
01:32:44.462,,1071,268,257
01:32:44.499,,828,241,272
01:32:44.536,,615,238,237
01:32:44.573,,529,238,225
01:32:44.610,,541,230,239
01:32:44.647,,539,192,235
01:32:44.684,,611,171,240
01:32:44.721,,737,165,256
01:32:44.758,,857,197,286
01:32:44.795,,1065,284,302
01:32:44.885,,1385,495,452
01:32:44.886,,1385,495,452
01:32:44.907,,1249,594,618
01:32:44.944,,1046,581,601
01:32:44.981,,975,415,471
01:32:45.018,,1022,93,380
01:32:45.055,,880,55,354
01:32:45.092,,701,228,305
01:32:45.129,,576,482,269
01:32:45.166,,512,616,263
01:32:45.203,,558,623,313
01:32:45.240,,748,546,346
01:32:45.277,,1012,525,411
01:32:45.314,,1049,482,479
01:32:45.351,,1181,454,495
01:32:45.388,,1182,375,477
01:32:45.425,,1289,284,467
01:32:45.462,,1105,231,441
01:32:45.499,,1095,256,349
01:32:45.586,,1092,345,299
01:32:45.586,,1092,345,299
01:32:45.610,,905,308,256
01:32:45.648,,703,254,212
01:32:45.685,,591,240,209
01:32:45.722,,597,250,226
01:32:45.759,,639,226,235
01:32:45.796,,666,178,246
01:32:45.833,,718,141,268
01:32:45.870,,829,171,320
01:32:45.907,,992,211,332
01:32:45.944,,1091,307,335
01:32:45.981,,1171,440,493
01:32:46.018,,1121,514,640
01:32:46.055,,1102,507,606
01:32:46.092,,1122,374,458
01:32:46.129,,1057,152,394
01:32:46.166,,849,154,363
01:32:46.203,,687,294,282
01:32:46.295,,642,669,279
01:32:46.295,,642,669,279
01:32:46.314,,642,669,279
01:32:46.352,,798,690,341
01:32:46.389,,1044,822,435
01:32:46.426,,1253,764,435
01:32:46.463,,1277,460,429
01:32:46.500,,1440,262,450
01:32:46.537,,1220,237,447
01:32:46.574,,1214,290,379
01:32:46.611,,1176,382,314
01:32:46.648,,1254,403,282
01:32:46.685,,1152,334,204
01:32:46.722,,967,257,144
01:32:46.759,,843,232,149
01:32:46.796,,771,219,156
01:32:46.833,,750,199,169
01:32:46.870,,724,143,177
01:32:46.907,,698,101,181
01:32:46.944,,652,99,205
01:32:46.981,,757,165,205
01:32:47.018,,958,243,180
01:32:47.056,,1056,385,268
01:32:47.093,,1247,551,470
01:32:47.130,,1546,588,576
01:32:47.167,,1439,549,381
01:32:47.204,,1148,391,351
01:32:47.241,,992,27,395
01:32:47.278,,908,203,391
01:32:47.315,,866,507,350
01:32:47.352,,733,696,324
01:32:47.389,,677,804,355
01:32:47.426,,797,877,498
01:32:47.463,,1011,1022,585
01:32:47.500,,1200,716,488
01:32:47.537,,1331,291,469
01:32:47.574,,1538,181,489
01:32:47.611,,1445,205,407
01:32:47.648,,1475,315,372
01:32:47.685,,1562,388,342
01:32:47.722,,1507,376,226
01:32:47.759,,1277,367,107
01:32:47.796,,985,317,77
01:32:47.834,,770,311,80
01:32:47.871,,759,283,96
01:32:47.908,,786,165,104
01:32:47.945,,746,74,137
01:32:47.982,,673,-7,205
01:32:48.019,,696,-38,213
01:32:48.056,,734,4,176
01:32:48.093,,861,185,228
01:32:48.130,,953,375,298
01:32:48.167,,1306,532,392
01:32:48.204,,1877,640,569
01:32:48.241,,1967,846,710
01:32:48.278,,1353,969,549
01:32:48.315,,890,384,383
01:32:48.352,,890,-130,513
01:32:48.389,,868,-26,352
01:32:48.426,,866,617,205
01:32:48.463,,868,1145,67
01:32:48.500,,890,1437,115
01:32:48.537,,924,1189,228
01:32:48.574,,1292,698,325
01:32:48.612,,1495,340,431
01:32:48.649,,1846,301,432
01:32:48.686,,1725,437,337
01:32:48.723,,1681,413,213
01:32:48.760,,1565,352,237
01:32:48.797,,1394,299,239
01:32:48.834,,1017,228,124
01:32:48.871,,797,183,108
01:32:48.908,,628,165,120
01:32:48.945,,510,182,148
01:32:48.982,,573,186,196
01:32:49.019,,543,130,229
01:32:49.056,,513,76,264
01:32:49.093,,565,85,257
01:32:49.130,,782,142,285
01:32:49.167,,1068,222,284
01:32:49.204,,1652,425,288
01:32:49.241,,1991,724,571
01:32:49.278,,1968,1191,783
01:32:49.315,,1133,1107,294
01:32:49.353,,1102,97,402
01:32:49.390,,989,-431,407
01:32:49.427,,848,23,274
01:32:49.464,,724,701,96
01:32:49.501,,540,912,8
01:32:49.538,,483,892,128
01:32:49.575,,709,873,307
01:32:49.612,,1114,851,452
01:32:49.649,,1303,561,418
01:32:49.686,,1416,268,441
01:32:49.723,,1447,321,458
01:32:49.760,,1434,378,367
01:32:49.797,,1272,413,393
01:32:49.834,,1198,326,343
01:32:49.871,,1057,296,232
01:32:49.908,,1074,358,179
01:32:49.945,,969,301,92
01:32:49.982,,797,234,64
01:32:50.019,,683,218,93
01:32:50.056,,713,237,106
01:32:50.093,,783,254,123
01:32:50.131,,849,228,147
01:32:50.168,,823,177,168
01:32:50.205,,821,173,214
01:32:50.242,,852,180,272
01:32:50.279,,957,225,273
01:32:50.316,,1052,331,309
01:32:50.353,,1159,495,504
01:32:50.390,,1382,622,709
01:32:50.427,,1387,627,710
01:32:50.464,,1075,537,589
01:32:50.501,,841,220,518
01:32:50.538,,818,195,427
01:32:50.575,,806,387,336
01:32:50.612,,702,629,325
01:32:50.649,,681,796,345
01:32:50.686,,845,870,349
01:32:50.723,,1013,776,366
01:32:50.760,,1271,628,388
01:32:50.797,,1281,373,381
01:32:50.835,,1357,416,405
01:32:50.872,,1370,407,379
01:32:50.909,,1382,412,297
01:32:50.946,,1322,376,251
01:32:50.983,,1233,292,237
01:32:51.020,,1004,257,207
01:32:51.057,,833,245,153
01:32:51.094,,697,226,131
01:32:51.131,,586,208,144
01:32:51.168,,565,179,161
01:32:51.205,,568,150,185
01:32:51.242,,604,148,302
01:32:51.279,,799,212,374
01:32:51.316,,1024,220,395
01:32:51.353,,1386,324,466
01:32:51.390,,1600,458,638
01:32:51.427,,1421,572,723
01:32:51.464,,1144,598,584
01:32:51.501,,1030,348,431
01:32:51.539,,905,119,331
01:32:51.576,,777,180,283
01:32:51.613,,680,407,225
01:32:51.650,,658,620,183
01:32:51.687,,623,667,215
01:32:51.724,,667,632,308
01:32:51.761,,877,573,389
01:32:51.798,,1048,512,384
01:32:51.835,,1309,504,416
01:32:51.872,,1246,380,457
01:32:51.909,,1302,388,495
01:32:51.946,,1209,341,468
01:32:51.983,,1177,329,379
01:32:52.020,,1159,313,325
01:32:52.057,,1114,272,285
01:32:52.094,,912,234,211
01:32:52.131,,773,229,168
01:32:52.168,,661,238,151
01:32:52.205,,636,268,168
01:32:52.243,,689,245,183
01:32:52.280,,737,213,199
01:32:52.317,,815,171,199
01:32:52.354,,825,144,197
01:32:52.391,,962,233,216
01:32:52.428,,1004,302,242
01:32:52.465,,1220,450,314
01:32:52.502,,1117,503,443
01:32:52.539,,1088,532,553
01:32:52.576,,1143,470,524
01:32:52.613,,1137,347,413
01:32:52.650,,958,172,400
01:32:52.687,,785,213,401
01:32:52.724,,678,388,367
01:32:52.761,,623,540,332
01:32:52.798,,597,585,361
01:32:52.835,,678,566,429
01:32:52.873,,884,551,469
01:32:52.910,,1037,532,449
01:32:52.947,,1209,520,463
01:32:52.984,,1153,358,436
01:32:53.021,,1259,356,445
01:32:53.058,,1212,328,425
01:32:53.095,,1215,343,310
01:32:53.132,,1251,322,234
01:32:53.169,,1194,261,199
01:32:53.206,,1013,268,195
01:32:53.243,,824,269,160
01:32:53.280,,700,292,142
01:32:53.317,,742,284,162
01:32:53.354,,748,232,180
01:32:53.391,,741,171,210
01:32:53.428,,713,116,238
01:32:53.465,,710,102,253
01:32:53.502,,843,170,261
01:32:53.539,,920,239,255
01:32:53.577,,1165,384,302
01:32:53.614,,1265,533,496
01:32:53.651,,1298,633,661
01:32:53.688,,1259,533,513
01:32:53.725,,1191,377,341
01:32:53.762,,1043,47,366
01:32:53.799,,911,110,364
01:32:53.836,,768,346,282
01:32:53.873,,670,591,206
01:32:53.910,,611,655,218
01:32:53.947,,578,580,313
01:32:53.984,,734,526,408
01:32:54.021,,919,512,466
01:32:54.058,,1033,568,493
01:32:54.095,,1143,530,484
01:32:54.132,,1188,442,479
01:32:54.169,,1229,318,488
01:32:54.206,,1090,268,465
01:32:54.243,,1085,311,395
01:32:54.280,,1202,327,342
01:32:54.318,,1259,327,332
01:32:54.355,,1151,245,317
01:32:54.392,,936,177,233
01:32:54.429,,762,200,210
01:32:54.466,,708,242,208
01:32:54.503,,700,225,194
01:32:54.540,,665,186,212
01:32:54.577,,630,153,224
01:32:54.614,,657,179,279
01:32:54.651,,718,196,318
01:32:54.688,,843,206,299
01:32:54.725,,996,275,325
01:32:54.762,,1287,361,377
01:32:54.799,,1453,489,498
01:32:54.836,,1511,596,505
01:32:54.873,,1324,662,439
01:32:54.910,,1101,317,339
01:32:54.947,,968,89,356
01:32:54.984,,843,230,253
01:32:55.021,,727,481,167
01:32:55.059,,620,631,166
01:32:55.096,,532,696,260
01:32:55.133,,575,675,383
01:32:55.170,,867,746,474
01:32:55.207,,1119,743,465
01:32:55.244,,1278,434,373
01:32:55.281,,1311,293,376
01:32:55.318,,1175,257,409
01:32:55.355,,1026,333,380
01:32:55.392,,1090,412,327
01:32:55.429,,1138,407,240
01:32:55.466,,1123,378,182
01:32:55.503,,1047,288,178
01:32:55.540,,867,192,135
01:32:55.577,,735,189,140
01:32:55.614,,717,240,155
01:32:55.651,,693,241,150
01:32:55.688,,775,223,148
01:32:55.725,,848,186,152
01:32:55.763,,804,178,201
01:32:55.800,,740,225,284
01:32:55.837,,758,286,371
01:32:55.874,,1094,373,439
01:32:55.911,,1269,457,581
01:32:55.948,,1193,478,677
01:32:55.985,,1016,436,595
01:32:56.022,,1027,375,485
01:32:56.059,,958,168,414
01:32:56.096,,838,178,394
01:32:56.133,,719,322,352
01:32:56.170,,650,497,337
01:32:56.207,,654,579,363
01:32:56.244,,643,569,379
01:32:56.281,,782,556,425
01:32:56.318,,1010,589,487
01:32:56.355,,1406,606,481
01:32:56.392,,1515,413,407
01:32:56.429,,1331,167,383
01:32:56.466,,1130,163,368
01:32:56.503,,1148,253,294
01:32:56.541,,1192,379,244
01:32:56.578,,1156,399,221
01:32:56.615,,981,323,168
01:32:56.652,,813,270,135
01:32:56.689,,743,252,140
01:32:56.726,,738,235,153
01:32:56.763,,699,190,166
01:32:56.800,,671,160,190
01:32:56.837,,677,157,221
01:32:56.874,,699,175,253
01:32:56.911,,787,211,272
01:32:56.948,,950,254,270
01:32:56.985,,1159,351,329
01:32:57.022,,1344,470,446
01:32:57.059,,1306,560,568
01:32:57.096,,1223,592,495
01:32:57.133,,1124,574,389
01:32:57.170,,1084,207,332
01:32:57.207,,912,137,388
01:32:57.244,,741,339,340
01:32:57.281,,648,584,305
01:32:57.319,,606,671,313
01:32:57.356,,637,635,397
01:32:57.393,,836,574,485
01:32:57.430,,1117,490,506
01:32:57.467,,1156,398,491
01:32:57.504,,1223,331,480
01:32:57.541,,1192,346,444
01:32:57.578,,1208,387,451
01:32:57.615,,1202,394,412
01:32:57.652,,1197,367,284
01:32:57.689,,1185,315,207
01:32:57.726,,1111,234,166
01:32:57.763,,912,225,145
01:32:57.800,,741,235,125
01:32:57.837,,643,259,106
01:32:57.874,,611,266,111
01:32:57.911,,665,261,142
01:32:57.948,,730,235,176
01:32:57.985,,748,180,218
01:32:58.022,,728,144,275
01:32:58.059,,882,197,335
01:32:58.097,,929,239,410
01:32:58.134,,1046,353,403
01:32:58.171,,1313,432,545
01:32:58.208,,1337,489,693
01:32:58.245,,1230,499,582
01:32:58.282,,1072,352,494
01:32:58.319,,943,102,396
01:32:58.356,,838,142,306
01:32:58.393,,724,312,215
01:32:58.430,,646,525,143
01:32:58.467,,615,620,168
01:32:58.504,,707,644,273
01:32:58.541,,906,619,379
01:32:58.578,,1102,644,423
01:32:58.615,,1262,590,424
01:32:58.652,,1224,443,439
01:32:58.689,,1243,333,448
01:32:58.726,,1138,317,431
01:32:58.763,,1136,325,385
01:32:58.800,,1170,357,342
01:32:58.838,,1174,345,319
01:32:58.875,,1043,265,234
01:32:58.912,,879,206,159
01:32:58.949,,803,210,168
01:32:58.986,,741,216,145
01:32:59.023,,731,224,154
01:32:59.060,,795,220,183
01:32:59.097,,777,187,195
01:32:59.134,,724,151,201
01:32:59.171,,773,163,210
01:32:59.208,,776,224,198
01:32:59.245,,960,379,302
01:32:59.282,,1108,473,433
01:32:59.319,,1328,588,621
01:32:59.356,,1454,697,726
01:32:59.393,,1208,671,562
01:32:59.430,,866,116,479
01:32:59.467,,776,-124,504
01:32:59.504,,713,66,373
01:32:59.541,,660,495,305
01:32:59.578,,618,710,324
01:32:59.615,,639,749,421
01:32:59.652,,903,617,503
01:32:59.690,,1092,392,432
01:32:59.727,,1259,339,426
01:32:59.764,,1272,294,431
01:32:59.801,,1181,415,408
01:32:59.838,,1193,404,382
01:32:59.875,,1075,357,325
01:32:59.912,,992,321,246
01:32:59.949,,963,314,221
01:32:59.986,,988,345,228
01:33:00.023,,850,303,177
01:33:00.060,,701,231,164
01:33:00.097,,612,195,170
01:33:00.134,,654,227,180
01:33:00.171,,763,229,197
01:33:00.208,,832,208,222
01:33:00.245,,863,190,243
01:33:00.282,,886,229,293
01:33:00.319,,1013,278,344
01:33:00.356,,977,318,333
01:33:00.393,,1202,400,409
01:33:00.430,,1168,464,520
01:33:00.468,,1059,503,549
01:33:00.505,,979,459,482
01:33:00.542,,983,336,413
01:33:00.579,,893,212,349
01:33:00.616,,765,229,316
01:33:00.653,,683,350,284
01:33:00.690,,671,496,259
01:33:00.727,,664,524,290
01:33:00.764,,656,472,369
01:33:00.801,,820,485,429
01:33:00.838,,1033,461,420
01:33:00.875,,1165,424,406
01:33:00.912,,1213,358,458
01:33:00.949,,1152,362,457
01:33:00.986,,1170,417,449
01:33:01.023,,1064,382,406
01:33:01.060,,989,349,321
01:33:01.097,,997,300,254
01:33:01.134,,996,285,240
01:33:01.171,,901,272,228
01:33:01.209,,766,248,190
01:33:01.246,,663,250,179
01:33:01.283,,654,251,189
01:33:01.320,,713,244,208
01:33:01.357,,807,234,243
01:33:01.394,,890,193,255
01:33:01.431,,959,179,296
01:33:01.468,,1003,212,353
01:33:01.505,,990,240,290
01:33:01.542,,1105,327,247
01:33:01.579,,969,413,307
01:33:01.616,,891,538,423
01:33:01.653,,943,625,444
01:33:01.690,,1082,559,389
01:33:01.727,,1014,382,380
01:33:01.764,,840,206,406
01:33:01.801,,718,289,391
01:33:01.838,,682,429,368
01:33:01.875,,641,530,379
01:33:01.912,,651,555,425
01:33:01.950,,843,562,501
01:33:01.987,,1016,493,490
01:33:02.024,,1099,455,502
01:33:02.061,,1233,372,448
01:33:02.098,,1203,366,415
01:33:02.135,,1176,364,392
01:33:02.172,,1180,381,320
01:33:02.209,,1137,323,243
01:33:02.246,,1068,271,197
01:33:02.283,,902,245,161
01:33:02.320,,752,248,128
01:33:02.357,,659,256,106
01:33:02.394,,646,263,113
01:33:02.431,,717,226,150
01:33:02.468,,747,183,158
01:33:02.505,,748,172,180
01:33:02.542,,767,209,235
01:33:02.579,,802,258,309
01:33:02.617,,941,302,330
01:33:02.654,,1058,363,359
01:33:02.691,,1414,519,495
01:33:02.728,,1339,600,686
01:33:02.765,,1051,619,613
01:33:02.802,,900,559,496
01:33:02.839,,1035,138,375
01:33:02.876,,970,10,338
01:33:02.913,,808,172,290
01:33:02.950,,658,477,276
01:33:02.987,,603,644,247
01:33:03.024,,559,623,253
01:33:03.061,,592,516,312
01:33:03.098,,856,497,392
01:33:03.135,,1146,421,371
01:33:03.172,,1131,339,367
01:33:03.209,,1251,313,457
01:33:03.246,,1135,349,447
01:33:03.283,,1104,371,400
01:33:03.320,,992,345,394
01:33:03.358,,1027,317,292
01:33:03.395,,1057,298,220
01:33:03.432,,1120,254,184
01:33:03.469,,969,241,172
01:33:03.506,,771,253,149
01:33:03.543,,674,295,145
01:33:03.580,,713,321,150
01:33:03.617,,748,275,174
01:33:03.654,,743,213,192
01:33:03.691,,723,166,208
01:33:03.728,,754,174,256
01:33:03.765,,835,223,285
01:33:03.802,,996,290,291
01:33:03.839,,1207,386,360
01:33:03.876,,1301,493,496
01:33:03.913,,1153,546,626
01:33:03.950,,1005,543,573
01:33:03.987,,965,387,449
01:33:04.024,,1058,72,416
01:33:04.062,,943,35,404
01:33:04.099,,747,221,307
01:33:04.136,,626,440,225
01:33:04.173,,630,574,260
01:33:04.210,,569,555,340
01:33:04.247,,503,466,379
01:33:04.284,,630,440,429
01:33:04.321,,856,413,432
01:33:04.358,,1114,382,425
01:33:04.395,,1231,302,435
01:33:04.432,,1133,313,453
01:33:04.469,,997,316,433
01:33:04.506,,899,340,383
01:33:04.543,,974,384,330
01:33:04.580,,1018,373,303
01:33:04.617,,1010,340,301
01:33:04.654,,894,262,284
01:33:04.691,,757,227,231
01:33:04.728,,665,247,219
01:33:04.766,,666,259,230
01:33:04.803,,687,241,253
01:33:04.840,,707,240,250
01:33:04.877,,856,241,289
01:33:04.914,,922,222,337
01:33:04.951,,912,241,345
01:33:04.988,,981,286,377
01:33:05.025,,1176,368,410
01:33:05.062,,1108,418,490
01:33:05.099,,854,420,455
01:33:05.136,,805,422,446
01:33:05.173,,912,359,379
01:33:05.210,,918,285,348
01:33:05.247,,796,261,361
01:33:05.284,,675,343,347
01:33:05.321,,597,429,345
01:33:05.358,,664,477,378
01:33:05.395,,767,462,415
01:33:05.432,,921,443,446
01:33:05.469,,1043,412,462
01:33:05.507,,1094,421,480
01:33:05.544,,1267,433,471
01:33:05.581,,1169,417,448
01:33:05.618,,1105,402,440
01:33:05.655,,1098,370,347
01:33:05.692,,1063,359,278
01:33:05.729,,1019,283,228
01:33:05.766,,827,252,219
01:33:05.803,,715,264,181
01:33:05.840,,687,281,153
01:33:05.877,,714,264,169
01:33:05.914,,746,245,204
01:33:05.951,,775,218,236
01:33:05.988,,809,193,265
01:33:06.025,,797,161,290
01:33:06.062,,873,175,325
01:33:06.099,,933,219,366
01:33:06.136,,955,315,370
01:33:06.173,,1043,419,457
01:33:06.210,,1084,491,581
01:33:06.248,,1096,523,574
01:33:06.285,,1065,435,432
01:33:06.322,,961,203,378
01:33:06.359,,871,130,374
01:33:06.396,,751,256,352
01:33:06.433,,670,465,311
01:33:06.470,,639,562,315
01:33:06.507,,638,529,371
01:33:06.544,,804,508,428
01:33:06.581,,1012,475,459
01:33:06.618,,1175,502,447
01:33:06.655,,1255,437,449
01:33:06.692,,1180,349,448
01:33:06.729,,1179,343,465
01:33:06.766,,1096,344,409
01:33:06.803,,1056,355,313
01:33:06.840,,1096,326,257
01:33:06.877,,1095,276,261
01:33:06.914,,933,221,220
01:33:06.952,,755,208,157
01:33:06.989,,667,253,151
01:33:07.026,,662,282,159
01:33:07.063,,662,245,172
01:33:07.100,,687,205,186
01:33:07.137,,716,185,224
01:33:07.174,,764,197,286
01:33:07.211,,907,233,327
01:33:07.248,,992,266,347
01:33:07.285,,1152,361,373
01:33:07.322,,1188,450,514
01:33:07.359,,1192,503,624
01:33:07.396,,1125,522,544
01:33:07.433,,1059,410,482
01:33:07.470,,921,106,452
01:33:07.507,,788,131,436
01:33:07.544,,716,317,355
01:33:07.581,,668,510,290
01:33:07.619,,640,561,318
01:33:07.656,,551,511,386
01:33:07.693,,748,539,477
01:33:07.730,,1087,526,467
01:33:07.767,,1193,399,366
01:33:07.804,,1273,293,408
01:33:07.841,,1177,249,464
01:33:07.878,,1270,367,457
01:33:07.915,,1091,400,402
01:33:07.952,,984,392,305
01:33:07.989,,1003,337,238
01:33:08.026,,1021,269,223
01:33:08.063,,916,241,224
01:33:08.100,,808,205,189
01:33:08.137,,710,210,167
01:33:08.174,,660,245,190
01:33:08.211,,667,234,197
01:33:08.248,,701,214,204
01:33:08.285,,732,198,225
01:33:08.322,,804,152,274
01:33:08.360,,941,257,319
01:33:08.397,,1036,347,323
01:33:08.434,,1156,442,346
01:33:08.471,,1268,499,428
01:33:08.508,,1198,528,483
01:33:08.545,,1087,562,467
01:33:08.582,,969,432,391
01:33:08.619,,950,232,329
01:33:08.656,,849,234,319
01:33:08.693,,735,356,313
01:33:08.730,,694,489,283
01:33:08.767,,691,526,307
01:33:08.804,,633,443,367
01:33:08.841,,703,439,460
01:33:08.878,,875,467,513
01:33:08.915,,1031,453,480
01:33:08.952,,1198,382,472
01:33:08.989,,1142,243,460
01:33:09.026,,1182,304,444
01:33:09.064,,1126,358,426
01:33:09.101,,993,373,363
01:33:09.138,,997,349,294
01:33:09.175,,1045,306,245
01:33:09.212,,1085,296,247
01:33:09.249,,979,240,249
01:33:09.286,,848,218,230
01:33:09.323,,799,251,254
01:33:09.360,,824,256,270
01:33:09.397,,837,219,279
01:33:09.434,,810,167,296
01:33:09.471,,770,128,280
01:33:09.508,,716,143,251
01:33:09.545,,754,227,246
01:33:09.582,,914,327,279
01:33:09.619,,1090,416,334
01:33:09.656,,1427,433,333
01:33:09.693,,1338,378,298
01:33:09.731,,1110,384,267
01:33:09.768,,1022,415,279
01:33:09.805,,1083,582,259
01:33:09.842,,1059,661,231
01:33:09.879,,940,549,233
01:33:09.916,,799,480,303
01:33:09.953,,696,469,359
01:33:09.990,,684,531,392
01:33:10.027,,744,578,439
01:33:10.064,,746,553,496
01:33:10.101,,767,500,552
01:33:10.138,,862,410,550
01:33:10.175,,968,345,514
01:33:10.212,,1123,367,506
01:33:10.249,,1308,433,547
01:33:10.286,,1248,459,492
01:33:10.323,,1021,367,361
01:33:10.360,,938,299,289
01:33:10.397,,1047,330,232
01:33:10.435,,1151,312,184
01:33:10.472,,1083,267,158
01:33:10.509,,894,230,158
01:33:10.546,,766,254,170
01:33:10.583,,718,314,148
01:33:10.620,,733,312,128
01:33:10.657,,751,257,152
01:33:10.694,,787,207,197
01:33:10.731,,807,207,271
01:33:10.768,,868,202,299
01:33:10.805,,935,189,310
01:33:10.842,,995,287,341
01:33:10.879,,955,423,498
01:33:10.916,,1007,575,706
01:33:10.953,,1021,553,749
01:33:10.990,,1060,374,638
01:33:11.027,,986,32,570
01:33:11.064,,807,-63,497
01:33:11.101,,725,165,428
01:33:11.139,,655,451,431
01:33:11.176,,610,599,440
01:33:11.213,,660,576,425
01:33:11.250,,828,560,399
01:33:11.287,,1026,514,398
01:33:11.324,,1046,411,353
01:33:11.361,,1209,381,326
01:33:11.398,,1183,326,307
01:33:11.435,,1252,352,331
01:33:11.472,,1023,400,349
01:33:11.509,,909,474,290
01:33:11.546,,974,484,227
01:33:11.583,,1131,436,198
01:33:11.620,,1113,323,214
01:33:11.657,,930,184,205
01:33:11.694,,775,146,212
01:33:11.731,,699,194,225
01:33:11.768,,686,239,228
01:33:11.805,,698,228,247
01:33:11.843,,733,224,296
01:33:11.880,,783,210,363
01:33:11.917,,802,163,414
01:33:11.954,,887,138,411
01:33:11.991,,892,167,410
01:33:12.028,,1071,292,418
01:33:12.065,,1235,434,524
01:33:12.102,,1312,555,528
01:33:12.139,,1230,651,481
01:33:12.176,,1007,615,458
01:33:12.213,,823,260,335
01:33:12.250,,740,155,324
01:33:12.287,,689,313,276
01:33:12.324,,654,485,253
01:33:12.361,,588,617,373
01:33:12.398,,577,681,653
01:33:12.435,,830,569,840
01:33:12.472,,921,263,762
01:33:12.509,,1083,213,654
01:33:12.547,,1175,247,574
01:33:12.584,,1309,312,476
01:33:12.621,,1147,273,476
01:33:12.658,,958,297,424
01:33:12.695,,972,373,322
01:33:12.732,,1008,433,205
01:33:12.769,,937,431,190
01:33:12.806,,831,305,211
01:33:12.843,,709,208,260
01:33:12.880,,658,160,274
01:33:12.917,,661,178,309
01:33:12.954,,678,190,354
01:33:12.991,,734,202,388
01:33:13.028,,818,213,436
01:33:13.065,,947,265,535
01:33:13.102,,1091,341,700
01:33:13.139,,1274,301,737
01:33:13.176,,1208,298,723
01:33:13.214,,1140,313,576
01:33:13.251,,1047,328,426
01:33:13.288,,997,182,371
01:33:13.325,,876,156,309
01:33:13.362,,763,329,239
01:33:13.399,,662,504,142
01:33:13.436,,577,564,119
01:33:13.473,,527,518,191
01:33:13.510,,627,465,260
01:33:13.547,,881,512,342
01:33:13.584,,1068,577,446
01:33:13.621,,1121,568,513
01:33:13.658,,1315,488,528
01:33:13.695,,1112,285,465
01:33:13.732,,996,214,463
01:33:13.769,,1183,286,465
01:33:13.806,,1221,329,396
01:33:13.843,,1267,336,361
01:33:13.880,,1102,225,353
01:33:13.918,,850,220,282
01:33:13.955,,725,254,200
01:33:13.992,,676,266,173
01:33:14.029,,703,260,205
01:33:14.066,,660,206,207
01:33:14.103,,649,167,215
01:33:14.140,,697,163,257
01:33:14.177,,805,196,293
01:33:14.214,,956,229,311
01:33:14.251,,1136,313,325
01:33:14.288,,1298,426,442
01:33:14.325,,1258,532,550
01:33:14.362,,1173,560,492
01:33:14.399,,1071,511,437
01:33:14.436,,935,202,334
01:33:14.473,,877,121,360
01:33:14.510,,781,291,341
01:33:14.547,,724,501,266
01:33:14.585,,668,623,284
01:33:14.622,,580,591,354
01:33:14.659,,703,563,439
01:33:14.696,,947,526,444
01:33:14.733,,1076,443,389
01:33:14.770,,1134,363,441
01:33:14.807,,1303,325,490
01:33:14.844,,1145,361,440
01:33:14.881,,1045,396,442
01:33:14.918,,1090,417,427
01:33:14.955,,1145,394,360
01:33:14.992,,1077,273,271
01:33:15.029,,943,223,292
01:33:15.066,,823,235,284
01:33:15.103,,707,229,238
01:33:15.140,,618,219,231
01:33:15.177,,639,223,249
01:33:15.214,,658,215,259
01:33:15.251,,723,212,265
01:33:15.289,,807,199,296
01:33:15.326,,845,218,346
01:33:15.363,,970,269,377
01:33:15.400,,1048,296,334
01:33:15.437,,1254,418,417
01:33:15.474,,1104,483,521
01:33:15.511,,1043,545,539
01:33:15.548,,967,500,499
01:33:15.585,,935,279,384
01:33:15.622,,845,132,383
01:33:15.659,,747,267,401
01:33:15.696,,706,462,377
01:33:15.733,,715,574,394
01:33:15.770,,653,530,457
01:33:15.807,,670,501,488
01:33:15.844,,964,546,515
01:33:15.881,,1074,498,468
01:33:15.918,,1232,433,474
01:33:15.956,,1292,271,507
01:33:15.993,,1211,306,478
01:33:16.030,,1058,357,414
01:33:16.067,,1016,405,335
01:33:16.104,,982,416,293
01:33:16.141,,969,345,302
01:33:16.178,,849,265,273
01:33:16.215,,723,213,251
01:33:16.252,,653,197,243
01:33:16.289,,639,202,258
01:33:16.326,,616,198,280
01:33:16.363,,675,208,307
01:33:16.400,,743,191,322
01:33:16.437,,806,179,362
01:33:16.474,,919,194,397
01:33:16.511,,1026,234,407
01:33:16.548,,1235,338,377
01:33:16.585,,1192,440,474
01:33:16.623,,1039,531,524
01:33:16.660,,995,656,542
01:33:16.697,,1019,596,451
01:33:16.734,,1004,339,387
01:33:16.771,,859,207,451
01:33:16.808,,691,353,448
01:33:16.845,,627,512,412
01:33:16.882,,626,606,421
01:33:16.919,,686,549,456
01:33:16.956,,840,483,468
01:33:16.993,,1076,408,452
01:33:17.030,,1090,277,401
01:33:17.067,,1189,296,425
01:33:17.104,,1257,317,432
01:33:17.141,,1171,382,383
01:33:17.178,,1106,404,365
01:33:17.215,,1058,372,351
01:33:17.252,,993,317,281
01:33:17.289,,974,269,232
01:33:17.327,,924,240,263
01:33:17.364,,814,223,267
01:33:17.401,,691,205,268
01:33:17.438,,610,210,292
01:33:17.475,,621,215,287
01:33:17.512,,629,206,292
01:33:17.549,,666,187,307
01:33:17.586,,718,178,316
01:33:17.623,,826,223,372
01:33:17.660,,1060,294,421
01:33:17.697,,1258,367,467
01:33:17.734,,1400,463,534
01:33:17.771,,1165,492,577
01:33:17.808,,956,567,555
01:33:17.845,,881,529,450
01:33:17.882,,969,189,308
01:33:17.920,,965,89,328
01:33:17.957,,813,228,341
01:33:17.994,,674,438,267
01:33:18.031,,605,547,236
01:33:18.068,,558,528,296
01:33:18.105,,505,422,348
01:33:18.142,,622,404,382
01:33:18.179,,871,442,435
01:33:18.216,,1131,478,477
01:33:18.253,,1358,476,498
01:33:18.290,,1228,435,490
01:33:18.327,,1112,332,455
01:33:18.364,,1031,315,435
01:33:18.401,,1075,342,372
01:33:18.438,,1117,339,316
01:33:18.475,,1085,308,294
01:33:18.512,,927,274,297
01:33:18.549,,775,279,267
01:33:18.587,,667,280,243
01:33:18.624,,636,262,234
01:33:18.661,,674,238,244
01:33:18.698,,693,185,265
01:33:18.735,,709,142,272
01:33:18.772,,753,165,316
01:33:18.809,,889,239,334
01:33:18.846,,982,295,361
01:33:18.883,,971,345,382
01:33:18.920,,1143,410,465
01:33:18.957,,1183,479,565
01:33:18.994,,1177,511,521
01:33:19.031,,1060,401,457
01:33:19.068,,971,172,392
01:33:19.105,,840,179,347
01:33:19.142,,742,301,295
01:33:19.179,,680,489,240
01:33:19.216,,645,563,233
01:33:19.253,,580,533,316
01:33:19.291,,610,489,405
01:33:19.328,,854,545,466
01:33:19.365,,1021,513,436
01:33:19.402,,1112,412,393
01:33:19.439,,1182,267,422
01:33:19.476,,1095,315,436
01:33:19.513,,1187,422,455
01:33:19.550,,1063,479,418
01:33:19.587,,952,463,328
01:33:19.624,,966,375,279
01:33:19.661,,1079,330,261
01:33:19.698,,1006,263,243
01:33:19.735,,835,207,223
01:33:19.772,,732,237,216
01:33:19.809,,725,269,208
01:33:19.846,,700,257,207
01:33:19.883,,707,221,208
01:33:19.920,,758,206,239
01:33:19.958,,790,210,277
01:33:19.995,,790,216,318
01:33:20.032,,894,237,319
01:33:20.069,,957,279,330
01:33:20.106,,1182,365,335
01:33:20.143,,1082,449,435
01:33:20.180,,1013,548,506
01:33:20.217,,1003,591,523
01:33:20.254,,1059,461,457
01:33:20.291,,975,140,444
01:33:20.328,,816,159,442
01:33:20.365,,720,328,415
01:33:20.402,,670,517,391
01:33:20.439,,641,582,421
01:33:20.476,,589,508,485
01:33:20.513,,734,469,515
01:33:20.550,,1024,461,508
01:33:20.587,,1149,381,428
01:33:20.624,,1240,306,396
01:33:20.662,,1077,251,380
01:33:20.699,,1150,338,351
01:33:20.736,,1110,410,357
01:33:20.773,,1023,414,287
01:33:20.810,,1018,391,208
01:33:20.847,,1094,359,212
01:33:20.884,,1081,296,207
01:33:20.921,,861,209,168
01:33:20.958,,687,202,170
01:33:20.995,,616,257,215
01:33:21.032,,626,283,253
01:33:21.069,,627,271,308
01:33:21.106,,624,195,321
01:33:21.143,,727,124,324
01:33:21.180,,874,126,385
01:33:21.217,,1023,210,406
01:33:21.254,,1079,287,404
01:33:21.291,,1266,383,402
01:33:21.329,,1256,490,440
01:33:21.366,,1162,606,455
01:33:21.403,,987,708,445
01:33:21.440,,881,502,316
01:33:21.477,,921,171,327
01:33:21.514,,829,145,334
01:33:21.551,,732,355,302
01:33:21.588,,675,494,260
01:33:21.625,,607,533,277
01:33:21.662,,570,462,358
01:33:21.699,,554,391,420
01:33:21.736,,750,422,462
01:33:21.773,,977,449,507
01:33:21.810,,1199,452,499
01:33:21.847,,1270,376,489
01:33:21.884,,1368,389,493
01:33:21.921,,1131,318,458
01:33:21.958,,928,299,382
01:33:21.996,,964,349,324
01:33:22.033,,1084,371,263
01:33:22.070,,1123,348,259
01:33:22.107,,1014,254,261
01:33:22.144,,843,206,234
01:33:22.181,,740,234,217
01:33:22.218,,691,248,220
01:33:22.255,,655,227,241
01:33:22.292,,632,188,264
01:33:22.329,,657,167,296
01:33:22.366,,718,177,336
01:33:22.403,,823,208,351
01:33:22.440,,914,229,359
01:33:22.477,,1093,302,346
01:33:22.514,,1410,413,405
01:33:22.551,,1476,558,494
01:33:22.588,,1365,683,464
01:33:22.625,,1059,588,385
01:33:22.663,,1042,172,407
01:33:22.700,,1016,-13,398
01:33:22.737,,880,264,261
01:33:22.774,,698,460,111
01:33:22.811,,542,529,116
01:33:22.848,,477,524,180
01:33:22.885,,421,468,248
01:33:22.922,,474,496,276
01:33:22.959,,691,594,348
01:33:22.996,,1016,745,440
01:33:23.033,,1230,897,453
01:33:23.070,,1215,562,307
01:33:23.107,,943,72,378
01:33:23.144,,995,27,437
01:33:23.181,,1068,266,476
01:33:23.218,,1210,494,503
01:33:23.255,,1117,524,507
01:33:23.292,,930,321,407
01:33:23.330,,809,239,305
01:33:23.367,,815,215,260
01:33:23.404,,813,210,267
01:33:23.441,,781,168,240
01:33:23.478,,711,134,196
01:33:23.515,,726,177,204
01:33:23.552,,867,259,186
01:33:23.589,,933,298,135
01:33:23.626,,778,403,209
01:33:23.663,,894,571,472
01:33:23.700,,1059,505,435
01:33:23.737,,1201,303,553
01:33:23.774,,1053,179,703
01:33:23.811,,918,308,763
01:33:23.848,,834,411,806
01:33:23.885,,785,387,822
01:33:23.922,,728,305,723
01:33:23.959,,755,243,623
01:33:23.997,,913,258,530
01:33:24.034,,1140,323,395
01:33:24.071,,1384,317,364
01:33:24.108,,1219,248,317
01:33:24.145,,1329,279,315
01:33:24.182,,1162,374,234
01:33:24.219,,1197,453,114
01:33:24.256,,1153,380,70
01:33:24.293,,1061,261,41
01:33:24.330,,962,238,64
01:33:24.367,,882,250,79
01:33:24.404,,751,255,55
01:33:24.441,,653,235,60
01:33:24.478,,591,245,131
01:33:24.515,,603,279,254
01:33:24.552,,683,300,357
01:33:24.589,,773,229,418
01:33:24.627,,910,125,488
01:33:24.664,,1146,60,532
01:33:24.701,,1294,50,534
01:33:24.738,,1337,169,513
01:33:24.775,,1271,325,521
01:33:24.812,,1465,492,546
01:33:24.849,,1233,506,464
01:33:24.886,,1007,443,308
01:33:24.923,,957,376,238
01:33:24.960,,946,345,143
01:33:24.997,,841,329,86
01:33:25.034,,736,356,74
01:33:25.071,,627,427,83
01:33:25.108,,545,444,100
01:33:25.145,,595,429,180
01:33:25.182,,623,406,302
01:33:25.219,,634,421,413
01:33:25.256,,754,454,534
01:33:25.293,,915,470,650
01:33:25.331,,976,394,628
01:33:25.368,,1052,340,591
01:33:25.405,,1026,316,556
01:33:25.442,,1187,354,560
01:33:25.479,,1055,328,539
01:33:25.516,,1037,325,503
01:33:25.553,,1083,355,456
01:33:25.590,,1111,379,403
01:33:25.627,,1028,335,384
01:33:25.664,,866,253,348
01:33:25.701,,699,215,288
01:33:25.738,,658,228,280
01:33:25.775,,676,228,284
01:33:25.812,,661,207,282
01:33:25.849,,671,201,281
01:33:25.886,,727,203,289
01:33:25.923,,815,252,315
01:33:25.960,,902,276,318
01:33:25.998,,1069,298,331
01:33:26.035,,1108,346,383
01:33:26.072,,1233,360,353
01:33:26.109,,1042,440,401
01:33:26.146,,893,547,436
01:33:26.183,,807,581,431
01:33:26.220,,873,426,412
01:33:26.257,,888,293,474
01:33:26.294,,804,286,489
01:33:26.331,,733,343,455
01:33:26.368,,669,378,463
01:33:26.405,,638,383,501
01:33:26.442,,567,346,517
01:33:26.479,,653,353,489
01:33:26.516,,895,369,459
01:33:26.553,,1033,352,411
01:33:26.590,,1101,378,378
01:33:26.627,,1095,397,399
01:33:26.664,,1260,485,409
01:33:26.702,,1055,425,389
01:33:26.739,,938,372,324
01:33:26.776,,971,380,294
01:33:26.813,,1099,361,292
01:33:26.850,,1071,294,298
01:33:26.887,,956,253,313
01:33:26.924,,847,331,310
01:33:26.961,,784,137,361
01:33:26.998,,745,148,393
01:33:27.035,,719,148,386
01:33:27.072,,684,190,352
01:33:27.109,,673,174,342
01:33:27.146,,691,191,376
01:33:27.183,,790,236,369
01:33:27.220,,867,260,343
01:33:27.257,,1192,351,319
01:33:27.294,,1405,446,427
01:33:27.332,,1297,539,455
01:33:27.369,,1039,719,489
01:33:27.406,,856,587,376
01:33:27.443,,914,252,359
01:33:27.480,,863,149,387
01:33:27.517,,792,316,379
01:33:27.554,,724,472,380
01:33:27.591,,627,592,419
01:33:27.628,,576,578,500
01:33:27.665,,595,499,554
01:33:27.702,,820,441,540
01:33:27.739,,1109,358,495
01:33:27.776,,1050,227,449
01:33:27.813,,950,253,444
01:33:27.850,,998,338,431
01:33:27.887,,1285,477,411
01:33:27.924,,1202,383,416
01:33:27.961,,1002,265,347
01:33:27.999,,968,278,274
01:33:28.036,,1016,322,254
01:33:28.073,,1080,345,274
01:33:28.110,,921,276,285
01:33:28.147,,720,212,289
01:33:28.184,,620,200,300
01:33:28.221,,606,180,305
01:33:28.258,,601,200,330
01:33:28.295,,589,216,329
01:33:28.332,,669,220,339
01:33:28.369,,756,198,376
01:33:28.406,,868,231,384
01:33:28.443,,1099,281,405
01:33:28.480,,1234,378,469
01:33:28.517,,1393,515,526
01:33:28.554,,1149,610,570
01:33:28.591,,892,661,559
01:33:28.628,,806,449,445
01:33:28.665,,882,173,415
01:33:28.702,,924,104,394
01:33:28.740,,831,232,392
01:33:28.777,,739,409,403
01:33:28.814,,704,511,398
01:33:28.851,,691,473,427
01:33:28.888,,642,362,437
01:33:28.925,,642,271,431
01:33:28.962,,781,273,453
01:33:28.999,,903,279,441
01:33:29.036,,998,330,455
01:33:29.073,,1044,348,486
01:33:29.110,,1203,408,468
01:33:29.147,,1139,370,455
01:33:29.184,,845,324,409
01:33:29.221,,774,316,339
01:33:29.258,,904,344,309
01:33:29.295,,1030,320,300
01:33:29.332,,945,242,293
01:33:29.370,,785,214,291
01:33:29.407,,692,262,281
01:33:29.444,,698,298,256
01:33:29.481,,692,270,248
01:33:29.518,,684,227,250
01:33:29.555,,761,234,268
01:33:29.592,,828,258,294
01:33:29.629,,836,280,349
01:33:29.666,,945,299,378
01:33:29.703,,1025,360,415
01:33:29.740,,1220,439,461
01:33:29.777,,995,482,533
01:33:29.814,,869,513,544
01:33:29.851,,876,447,469
01:33:29.888,,1021,277,380
01:33:29.925,,1026,116,374
01:33:29.962,,822,187,379
01:33:29.999,,683,342,342
01:33:30.037,,631,458,299
01:33:30.074,,611,471,306
01:33:30.111,,565,387,343
01:33:30.148,,628,363,395
01:33:30.185,,848,394,442
01:33:30.222,,974,378,417
01:33:30.259,,1144,397,421
01:33:30.296,,1086,351,444
01:33:30.333,,1166,371,400
01:33:30.370,,1196,329,429
01:33:30.407,,959,323,389
01:33:30.444,,847,365,316
01:33:30.481,,870,370,257
01:33:30.518,,964,375,250
01:33:30.555,,909,317,269
01:33:30.592,,786,237,240
01:33:30.629,,722,220,233
01:33:30.666,,712,254,234
01:33:30.704,,716,229,238
01:33:30.741,,703,215,250
01:33:30.778,,740,215,288
01:33:30.815,,835,233,328
01:33:30.852,,911,230,347
01:33:30.889,,1073,248,365
01:33:30.926,,992,288,386
01:33:30.963,,958,401,391
01:33:31.000,,1010,514,468
01:33:31.037,,1050,548,480
01:33:31.074,,1020,492,439
01:33:31.111,,966,268,384
01:33:31.148,,845,158,353
01:33:31.185,,744,209,335
01:33:31.222,,690,337,312
01:33:31.259,,659,459,291
01:33:31.296,,637,461,315
01:33:31.334,,597,373,378
01:33:31.371,,727,391,441
01:33:31.408,,924,417,473
01:33:31.445,,1005,379,414
01:33:31.482,,1154,358,420
01:33:31.519,,1144,305,446
01:33:31.556,,1226,391,404
01:33:31.593,,1075,386,380
01:33:31.630,,931,406,335
01:33:31.667,,900,418,274
01:33:31.704,,988,396,243
01:33:31.741,,1026,335,248
01:33:31.778,,896,241,227
01:33:31.815,,756,210,203
01:33:31.852,,699,254,219
01:33:31.889,,683,258,227
01:33:31.926,,670,246,235
01:33:31.963,,703,232,250
01:33:32.001,,800,230,271
01:33:32.038,,868,205,297
01:33:32.075,,1016,246,319
01:33:32.112,,1030,303,355
01:33:32.149,,1176,436,402
01:33:32.186,,1034,496,527
01:33:32.223,,933,476,531
01:33:32.260,,919,393,468
01:33:32.297,,1003,234,405
01:33:32.334,,921,145,387
01:33:32.371,,740,229,379
01:33:32.408,,640,375,348
01:33:32.445,,604,453,323
01:33:32.482,,595,421,362
01:33:32.519,,631,374,452
01:33:32.556,,816,421,569
01:33:32.593,,996,402,577
01:33:32.630,,991,285,456
01:33:32.668,,1097,228,426
01:33:32.705,,1059,271,450
01:33:32.742,,1157,428,465
01:33:32.779,,1010,452,476
01:33:32.816,,850,376,396
01:33:32.853,,829,309,351
01:33:32.890,,964,273,336
01:33:32.927,,932,231,344
01:33:32.964,,806,210,343
01:33:33.001,,714,216,347
01:33:33.038,,673,229,341
01:33:33.075,,637,219,324
01:33:33.112,,676,210,345
01:33:33.149,,776,184,334
01:33:33.186,,834,168,291
01:33:33.223,,806,215,304
01:33:33.260,,887,281,362
01:33:33.297,,1028,356,366
01:33:33.335,,1053,434,363
01:33:33.372,,930,484,439
01:33:33.409,,876,529,492
01:33:33.446,,983,485,455
01:33:33.483,,1096,278,430
01:33:33.520,,894,157,470
01:33:33.557,,698,244,469
01:33:33.594,,605,358,423
01:33:33.631,,587,464,394
01:33:33.668,,561,470,442
01:33:33.705,,683,441,528
01:33:33.742,,922,427,546
01:33:33.779,,1098,402,505
01:33:33.816,,1287,387,490
01:33:33.853,,1201,385,491
01:33:33.890,,1246,391,479
01:33:33.927,,1113,385,439
01:33:33.965,,1060,373,344
01:33:34.002,,1085,328,277
01:33:34.039,,998,270,244
01:33:34.076,,851,246,231
01:33:34.113,,735,255,208
01:33:34.150,,663,271,185
01:33:34.187,,673,275,197
01:33:34.224,,700,256,238
01:33:34.261,,696,206,258
01:33:34.298,,713,154,247
01:33:34.335,,757,159,279
01:33:34.372,,826,267,369
01:33:34.409,,968,332,438
01:33:34.446,,1015,344,430
01:33:34.483,,1252,418,581
01:33:34.520,,1004,432,579
01:33:34.557,,901,424,460
01:33:34.594,,984,410,409
01:33:34.632,,1025,303,349
01:33:34.669,,841,265,324
01:33:34.706,,730,413,293
01:33:34.743,,654,552,281
01:33:34.780,,601,605,269
01:33:34.817,,617,554,331
01:33:34.854,,731,473,414
01:33:34.891,,974,440,470
01:33:34.928,,1114,354,444
01:33:34.965,,1260,341,427
01:33:35.002,,1310,301,472
01:33:35.039,,1269,348,422
01:33:35.076,,1056,338,374
01:33:35.113,,1000,340,299
01:33:35.150,,1019,358,244
01:33:35.187,,1050,335,206
01:33:35.224,,961,272,195
01:33:35.262,,831,224,179
01:33:35.299,,718,228,175
01:33:35.336,,642,251,190
01:33:35.373,,606,254,218
01:33:35.410,,602,242,254
01:33:35.447,,673,227,281
01:33:35.484,,773,208,348
01:33:35.521,,929,197,376
01:33:35.558,,1047,195,405
01:33:35.595,,1244,314,419
01:33:35.632,,1250,427,500
01:33:35.669,,1071,467,439
01:33:35.706,,928,494,386
01:33:35.743,,969,376,365
01:33:35.780,,943,282,336
01:33:35.817,,854,305,342
01:33:35.854,,739,362,291
01:33:35.892,,699,457,252
01:33:35.929,,675,493,290
01:33:35.966,,650,495,364
01:33:36.003,,718,547,446
01:33:36.040,,934,634,527
01:33:36.077,,1071,569,492
01:33:36.114,,1261,439,460
01:33:36.151,,1331,277,470
01:33:36.188,,1320,252,472
01:33:36.225,,1105,349,428
01:33:36.262,,1152,405,377
01:33:36.299,,1188,400,294
01:33:36.336,,1157,369,249
01:33:36.373,,999,259,235
01:33:36.410,,781,202,194
01:33:36.447,,665,209,189
01:33:36.484,,635,215,202
01:33:36.521,,615,202,216
01:33:36.558,,599,181,233
01:33:36.595,,633,164,250
01:33:36.633,,688,159,269
01:33:36.670,,816,211,302
01:33:36.707,,971,267,352
01:33:36.744,,1206,373,361
01:33:36.781,,1431,509,503
01:33:36.818,,1401,610,658
01:33:36.855,,1138,688,578
01:33:36.892,,900,485,459
01:33:36.929,,952,16,430
01:33:36.966,,855,18,404
01:33:37.003,,731,321,336
01:33:37.040,,638,595,270
01:33:37.077,,579,689,327
01:33:37.114,,539,599,425
01:33:37.151,,643,489,484
01:33:37.188,,933,460,489
01:33:37.225,,1132,404,429
01:33:37.263,,1190,351,418
01:33:37.300,,1133,292,445
01:33:37.337,,1219,381,458
01:33:37.374,,1148,396,468
01:33:37.411,,1028,378,387
01:33:37.448,,935,358,311
01:33:37.485,,1034,325,296
01:33:37.522,,997,303,304
01:33:37.559,,849,241,275
01:33:37.596,,698,184,240
01:33:37.633,,598,187,231
01:33:37.670,,623,238,240
01:33:37.707,,639,235,248
01:33:37.744,,696,220,253
01:33:37.781,,799,216,261
01:33:37.818,,856,225,271
01:33:37.855,,1046,289,296
01:33:37.893,,1111,340,362
01:33:37.930,,1159,442,448
01:33:37.967,,1017,490,553
01:33:38.004,,950,527,575
01:33:38.041,,980,463,489
01:33:38.078,,1052,195,405
01:33:38.115,,911,141,388
01:33:38.152,,790,261,383
01:33:38.189,,716,383,388
01:33:38.226,,679,449,341
01:33:38.263,,668,437,385
01:33:38.300,,617,348,406
01:33:38.337,,682,401,475
01:33:38.374,,871,475,531
01:33:38.411,,1047,441,474
01:33:38.448,,995,287,352
01:33:38.485,,1190,245,381
01:33:38.522,,1251,267,380
01:33:38.560,,1159,408,367
01:33:38.597,,981,504,383
01:33:38.634,,937,500,314
01:33:38.671,,1001,407,228
01:33:38.708,,1116,264,204
01:33:38.745,,1039,152,233
01:33:38.782,,843,152,234
01:33:38.819,,685,215,200
01:33:38.856,,647,278,215
01:33:38.893,,689,273,224
01:33:38.930,,707,234,244
01:33:38.967,,729,197,280
01:33:39.004,,753,177,307
01:33:39.041,,808,191,340
01:33:39.078,,1015,242,366
01:33:39.115,,1163,325,375
01:33:39.152,,1195,447,451
01:33:39.189,,1000,517,565
01:33:39.226,,960,518,567
01:33:39.264,,1025,465,428
01:33:39.301,,1026,193,306
01:33:39.338,,851,72,319
01:33:39.375,,702,217,328
01:33:39.412,,634,461,291
01:33:39.449,,604,582,274
01:33:39.486,,559,539,312
01:33:39.523,,595,439,376
01:33:39.560,,839,433,443
01:33:39.597,,1086,452,455
01:33:39.634,,1355,488,476
01:33:39.671,,1180,383,493
01:33:39.708,,1221,325,493
01:33:39.745,,1120,321,454
01:33:39.782,,1098,340,357
01:33:39.819,,1123,366,309
01:33:39.856,,1109,294,302
01:33:39.893,,940,235,267
01:33:39.930,,781,224,215
01:33:39.968,,725,249,221
01:33:40.005,,754,254,229
01:33:40.042,,775,239,251
01:33:40.079,,794,191,249
01:33:40.116,,785,135,228
01:33:40.153,,718,124,228
01:33:40.190,,738,214,249
01:33:40.227,,753,280,272
01:33:40.264,,958,362,271
01:33:40.301,,1251,420,314
01:33:40.338,,1285,521,448
01:33:40.375,,1245,669,533
01:33:40.412,,987,633,423
01:33:40.449,,1004,271,370
01:33:40.486,,1015,58,433
01:33:40.523,,848,243,384
01:33:40.560,,713,443,340
01:33:40.597,,601,595,401
01:33:40.634,,555,636,520
01:33:40.672,,602,574,571
01:33:40.709,,861,527,560
01:33:40.746,,1080,406,492
01:33:40.783,,1179,300,441
01:33:40.820,,1250,267,463
01:33:40.857,,1298,352,486
01:33:40.894,,1159,423,435
01:33:40.931,,1141,403,335
01:33:40.968,,1179,382,242
01:33:41.005,,1190,335,205
01:33:41.042,,1061,257,209
01:33:41.079,,834,203,183
01:33:41.116,,680,210,178
01:33:41.153,,635,244,191
01:33:41.190,,629,229,211
01:33:41.227,,627,190,227
01:33:41.264,,630,148,255
01:33:41.301,,667,144,303
01:33:41.338,,718,176,352
01:33:41.376,,883,224,345
01:33:41.413,,1060,322,370
01:33:41.450,,1508,797,593
01:33:41.487,,1324,1006,700
01:33:41.524,,1014,725,583
01:33:41.561,,908,466,575
01:33:41.598,,897,166,550
01:33:41.635,,736,221,547
01:33:41.672,,529,313,417
01:33:41.709,,398,568,215
01:33:41.746,,413,700,284
01:33:41.783,,558,724,441
01:33:41.820,,769,671,511
01:33:41.857,,999,586,478
01:33:41.894,,968,465,394
01:33:41.931,,1081,417,332
01:33:41.968,,1130,363,332
01:33:42.006,,1075,344,325
01:33:42.043,,1091,387,363
01:33:42.080,,1112,389,308
01:33:42.117,,1126,380,252
01:33:42.154,,1024,287,232
01:33:42.191,,826,253,252
01:33:42.228,,674,267,266
01:33:42.265,,573,274,298
01:33:42.302,,555,258,309
01:33:42.339,,625,249,330
01:33:42.376,,703,214,359
01:33:42.413,,782,168,362
01:33:42.450,,868,151,376
01:33:42.487,,1054,232,402
01:33:42.524,,1261,342,442
01:33:42.561,,1349,492,523
01:33:42.598,,1125,518,597
01:33:42.636,,935,463,508
01:33:42.673,,915,272,373
01:33:42.710,,926,95,292
01:33:42.747,,823,172,295
01:33:42.784,,691,345,240
01:33:42.821,,547,505,147
01:33:42.858,,480,524,156
01:33:42.895,,451,501,185
01:33:42.932,,650,505,215
01:33:42.969,,1031,593,270
01:33:43.006,,1136,667,330
01:33:43.043,,1119,670,390
01:33:43.080,,1143,598,498
01:33:43.117,,1285,495,529
01:33:43.154,,1221,370,480
01:33:43.191,,1194,366,355
01:33:43.228,,1117,345,290
01:33:43.265,,1061,347,324
01:33:43.302,,951,332,326
01:33:43.340,,780,318,207
01:33:43.377,,692,301,163
01:33:43.414,,683,261,151
01:33:43.451,,698,208,159
01:33:43.488,,752,152,187
01:33:43.525,,816,120,187
01:33:43.562,,801,123,195
01:33:43.599,,878,223,204
01:33:43.636,,924,316,259
01:33:43.673,,1008,443,334
01:33:43.710,,1129,570,514
01:33:43.747,,1189,566,641
01:33:43.784,,1179,450,444
01:33:43.821,,1013,232,379
01:33:43.858,,859,43,401
01:33:43.895,,771,155,312
01:33:43.932,,708,371,224
01:33:43.970,,672,562,225
01:33:44.007,,619,653,310
01:33:44.044,,707,672,398
01:33:44.081,,934,702,446
01:33:44.118,,1114,732,455
01:33:44.155,,1280,615,427
01:33:44.192,,1327,372,470
01:33:44.229,,1206,251,521
01:33:44.266,,1176,328,459
01:33:44.303,,1239,436,369
01:33:44.340,,1279,443,319
01:33:44.377,,1115,326,280
01:33:44.414,,907,259,218
01:33:44.451,,747,252,170
01:33:44.488,,654,251,152
01:33:44.525,,667,240,156
01:33:44.562,,728,206,179
01:33:44.599,,734,137,180
01:33:44.636,,737,103,186
01:33:44.673,,722,154,222
01:33:44.711,,835,256,252
01:33:44.748,,965,327,279
01:33:44.785,,1157,427,340
01:33:44.822,,1308,550,533
01:33:44.859,,1359,670,675
01:33:44.896,,1216,608,535
01:33:44.933,,969,343,445
01:33:44.970,,834,1,441
01:33:45.007,,770,153,409
01:33:45.044,,696,431,347
01:33:45.081,,623,627,339
01:33:45.118,,585,644,397
01:33:45.155,,720,594,472
01:33:45.192,,985,528,466
01:33:45.229,,1148,457,427
01:33:45.266,,1224,405,442
01:33:45.303,,1237,405,404
01:33:45.340,,1265,383,387
01:33:45.378,,1176,380,343
01:33:45.415,,1095,322,281
01:33:45.452,,1105,295,249
01:33:45.489,,1005,271,247
01:33:45.526,,847,219,201
01:33:45.563,,696,200,188
01:33:45.600,,598,216,195
01:33:45.637,,552,222,192
01:33:45.674,,543,207,185
01:33:45.711,,599,204,204
01:33:45.748,,728,216,228
01:33:45.785,,944,248,261
01:33:45.822,,1147,289,307
01:33:45.859,,1283,401,357
01:33:45.896,,1341,564,552
01:33:45.933,,1120,632,663
01:33:45.970,,897,594,546
01:33:46.007,,968,242,439
01:33:46.044,,975,-50,422
01:33:46.082,,826,35,385
01:33:46.119,,684,274,302
01:33:46.156,,609,511,274
01:33:46.193,,594,596,312
01:33:46.230,,534,484,356
01:33:46.267,,664,440,406
01:33:46.304,,941,424,431
01:33:46.341,,1118,375,386
01:33:46.378,,1265,377,420
01:33:46.415,,1111,384,478
01:33:46.452,,1251,462,486
01:33:46.489,,1041,436,482
01:33:46.526,,1001,431,383
01:33:46.563,,938,341,285
01:33:46.600,,1050,272,292
01:33:46.637,,951,256,267
01:33:46.674,,764,234,199
01:33:46.711,,645,258,200
01:33:46.748,,665,302,189
01:33:46.786,,693,271,176
01:33:46.823,,750,220,187
01:33:46.860,,880,190,221
01:33:46.897,,934,175,248
01:33:46.934,,1036,238,246
01:33:46.971,,918,276,281
01:33:47.008,,976,359,303
01:33:47.045,,889,397,399
01:33:47.082,,940,452,503
01:33:47.119,,1035,431,559
01:33:47.156,,1044,325,501
01:33:47.193,,864,198,465
01:33:47.230,,729,178,458
01:33:47.267,,648,311,413
01:33:47.304,,632,446,385
01:33:47.341,,634,520,413
01:33:47.378,,722,504,461
01:33:47.415,,950,514,490
01:33:47.452,,1068,513,462
01:33:47.490,,1185,517,460
01:33:47.527,,1118,374,422
01:33:47.564,,1254,414,443
01:33:47.601,,1175,394,435
01:33:47.638,,1102,428,356
01:33:47.675,,1081,398,285
01:33:47.712,,1123,337,235
01:33:47.749,,1027,287,228
01:33:47.786,,847,225,204
01:33:47.823,,674,227,174
01:33:47.860,,630,256,187
01:33:47.897,,639,240,183
01:33:47.934,,641,198,192
01:33:47.971,,687,167,223
01:33:48.008,,683,132,248
01:33:48.045,,729,161,296
01:33:48.082,,929,252,267
01:33:48.119,,1072,366,234
01:33:48.156,,1340,524,331
01:33:48.194,,1184,570,517
01:33:48.231,,1159,602,564
01:33:48.268,,1087,495,442
01:33:48.305,,1009,231,357
01:33:48.342,,902,47,356
01:33:48.379,,792,237,342
01:33:48.416,,691,460,292
01:33:48.453,,621,589,304
01:33:48.490,,597,637,377
01:33:48.527,,728,640,447
01:33:48.564,,983,670,494
01:33:48.601,,1182,601,446
01:33:48.638,,1332,421,415
01:33:48.675,,1437,333,480
01:33:48.712,,1286,322,460
01:33:48.749,,1290,381,355
01:33:48.786,,1342,433,286
01:33:48.824,,1262,352,267
01:33:48.861,,983,254,186
01:33:48.898,,768,241,140
01:33:48.935,,663,269,131
01:33:48.972,,686,285,139
01:33:49.009,,708,228,133
01:33:49.046,,749,159,144
01:33:49.083,,743,102,162
01:33:49.120,,711,113,167
01:33:49.157,,835,215,160
01:33:49.194,,961,351,218
01:33:49.231,,1260,688,366
01:33:49.268,,1089,744,469
01:33:49.305,,1077,704,615
01:33:49.342,,1159,596,643
01:33:49.379,,1057,451,533
01:33:49.416,,868,335,521
01:33:49.453,,646,345,500
01:33:49.490,,568,505,389
01:33:49.528,,587,637,391
01:33:49.565,,655,709,476
01:33:49.602,,751,758,544
01:33:49.639,,959,815,587
01:33:49.676,,1300,871,600
01:33:49.713,,1562,547,459
01:33:49.750,,1675,160,489
01:33:49.787,,1534,100,421
01:33:49.824,,1391,289,338
01:33:49.861,,1386,534,330
01:33:49.898,,1257,475,212
01:33:49.935,,982,400,115
01:33:49.972,,778,308,99
01:33:50.009,,677,239,98
01:33:50.046,,598,166,114
01:33:50.083,,549,80,119
01:33:50.120,,518,28,120
01:33:50.157,,496,11,152
01:33:50.194,,481,77,245
01:33:50.232,,589,194,307
01:33:50.269,,826,284,358
01:33:50.306,,1447,418,380
01:33:50.343,,1981,734,720
01:33:50.380,,1941,1131,952
01:33:50.417,,918,993,385
01:33:50.454,,990,-52,447
01:33:50.491,,1001,-550,332
01:33:50.528,,890,70,169
01:33:50.565,,730,689,-74
01:33:50.602,,554,886,-77
01:33:50.639,,463,801,81
01:33:50.676,,559,704,223
01:33:50.713,,839,664,352
01:33:50.750,,1121,777,372
01:33:50.787,,1277,771,287
01:33:50.824,,1286,387,294
01:33:50.861,,1344,282,411
01:33:50.899,,1313,229,470
01:33:50.936,,1290,324,430
01:33:50.973,,1236,409,355
01:33:51.010,,1267,413,290
01:33:51.047,,1110,348,258
01:33:51.084,,917,258,181
01:33:51.121,,754,196,148
01:33:51.158,,676,194,163
01:33:51.195,,659,202,171
01:33:51.232,,679,190,181
01:33:51.269,,718,166,201
01:33:51.306,,704,136,212
01:33:51.343,,760,170,254
01:33:51.380,,847,211,238
01:33:51.417,,1039,316,245
01:33:51.454,,1271,476,376
01:33:51.491,,1436,631,574
01:33:51.528,,1430,724,635
01:33:51.565,,1160,723,471
01:33:51.603,,928,73,398
01:33:51.640,,836,-194,444
01:33:51.677,,788,80,310
01:33:51.714,,783,543,172
01:33:51.751,,681,785,141
01:33:51.788,,585,821,235
01:33:51.825,,731,772,375
01:33:51.862,,997,734,438
01:33:51.899,,1313,738,393
01:33:51.936,,1405,397,304
01:33:51.973,,1379,272,376
01:33:52.010,,1355,304,423
01:33:52.047,,1312,375,355
01:33:52.084,,1276,419,277
01:33:52.121,,1236,367,226
01:33:52.158,,1088,311,171
01:33:52.195,,913,279,104
01:33:52.232,,762,241,84
01:33:52.270,,685,226,96
01:33:52.307,,576,205,138
01:33:52.344,,585,399,277
01:33:52.381,,856,200,190
01:33:52.418,,772,48,93
01:33:52.455,,781,12,182
01:33:52.492,,906,201,282
01:33:52.529,,857,287,249
01:33:52.566,,1023,431,249
01:33:52.603,,1134,551,485
01:33:52.640,,1320,672,802
01:33:52.677,,1280,914,769
01:33:52.714,,836,183,369
01:33:52.751,,1499,226,171
01:33:52.788,,1299,-145,332
01:33:52.825,,213,107,280
01:33:52.862,,680,1148,284
01:33:52.899,,476,543,249
01:33:52.937,,529,871,375
01:33:52.974,,777,648,513
01:33:53.011,,1053,444,533
01:33:53.048,,1341,376,494
01:33:53.085,,1325,259,397
01:33:53.122,,1338,350,416
01:33:53.159,,1298,438,395
01:33:53.196,,1250,482,327
01:33:53.233,,1181,422,227
01:33:53.270,,1101,365,161
01:33:53.307,,971,337,154
01:33:53.344,,837,301,112
01:33:53.381,,717,243,88
01:33:53.418,,661,226,111
01:33:53.455,,669,229,152
01:33:53.492,,633,198,163
01:33:53.529,,641,188,178
01:33:53.566,,651,179,217
01:33:53.603,,714,203,227
01:33:53.641,,923,283,227
01:33:53.678,,1085,372,284
01:33:53.715,,1319,517,429
01:33:53.752,,1407,633,570
01:33:53.789,,1341,721,499
01:33:53.826,,1179,679,397
01:33:53.863,,966,366,361
01:33:53.900,,810,357,409
01:33:53.937,,648,384,314
01:33:53.974,,551,503,236
01:33:54.011,,532,562,241
01:33:54.048,,580,545,318
01:33:54.085,,751,562,394
01:33:54.122,,1037,598,424
01:33:54.159,,1291,632,439
01:33:54.196,,1322,516,454
01:33:54.233,,1381,409,452
01:33:54.270,,1181,335,397
01:33:54.308,,1075,296,296
01:33:54.345,,1076,338,252
01:33:54.382,,1134,358,236
01:33:54.419,,959,320,181
01:33:54.456,,801,269,129
01:33:54.493,,700,266,121
01:33:54.530,,671,286,129
01:33:54.567,,674,260,149
01:33:54.604,,719,227,166
01:33:54.641,,742,190,180
01:33:54.678,,746,167,221
01:33:54.715,,808,188,240
01:33:54.752,,958,269,281
01:33:54.789,,1046,371,336
01:33:54.826,,1136,480,442
01:33:54.863,,1240,551,634
01:33:54.900,,1237,540,571
01:33:54.937,,1147,423,393
01:33:54.975,,991,130,404
01:33:55.012,,850,99,391
01:33:55.049,,700,263,303
01:33:55.086,,614,478,214
01:33:55.123,,577,581,224
01:33:55.160,,585,544,296
01:33:55.197,,744,512,381
01:33:55.234,,1015,506,423
01:33:55.271,,1201,563,444
01:33:55.308,,1251,552,507
01:33:55.345,,1212,470,523
01:33:55.382,,1199,405,467
01:33:55.419,,1094,334,383
01:33:55.456,,1057,321,326
01:33:55.493,,1063,309,265
01:33:55.530,,997,330,249
01:33:55.567,,933,309,213
01:33:55.604,,796,259,144
01:33:55.641,,719,261,143
01:33:55.679,,721,274,171
01:33:55.716,,717,240,179
01:33:55.753,,739,217,190
01:33:55.790,,762,203,220
01:33:55.827,,767,201,268
01:33:55.864,,874,221,306
01:33:55.901,,934,271,326
01:33:55.938,,1004,377,327
01:33:55.975,,1067,491,442
01:33:56.012,,1160,592,579
01:33:56.049,,1188,566,534
01:33:56.086,,1134,437,395
01:33:56.123,,830,155,364
01:33:56.160,,750,305,305
01:33:56.197,,680,536,292
01:33:56.234,,618,637,300
01:33:56.271,,630,639,386
01:33:56.308,,823,610,460
01:33:56.345,,1000,559,488
01:33:56.383,,1255,506,547
01:33:56.420,,1267,356,528
01:33:56.457,,1371,397,550
01:33:56.494,,1324,397,579
01:33:56.531,,1300,403,474
01:33:56.568,,1215,358,329
01:33:56.605,,1094,246,216
01:33:56.642,,832,232,198
01:33:56.679,,607,301,165
01:33:56.716,,479,343,118
01:33:56.753,,503,335,96
01:33:56.790,,590,280,112
01:33:56.827,,685,210,137
01:33:56.864,,797,143,176
01:33:56.901,,912,125,219
01:33:56.938,,982,215,290
01:33:56.975,,1076,295,356
01:33:57.012,,1080,334,402
01:33:57.049,,1168,329,461
01:33:57.087,,1126,436,548
01:33:57.124,,1127,657,700
01:33:57.161,,1022,765,675
01:33:57.198,,919,496,539
01:33:57.235,,816,82,442
01:33:57.272,,739,123,358
01:33:57.309,,662,292,266
01:33:57.346,,610,490,199
01:33:57.383,,663,632,226
01:33:57.420,,736,642,260
01:33:57.457,,900,618,299
01:33:57.494,,1008,580,319
01:33:57.531,,1206,617,329
01:33:57.568,,1103,499,332
01:33:57.605,,1223,497,409
01:33:57.642,,1109,474,457
01:33:57.679,,1106,433,374
01:33:57.716,,1198,394,330
01:33:57.754,,1184,300,320
01:33:57.791,,995,227,300
01:33:57.828,,822,205,244
01:33:57.865,,742,252,229
01:33:57.902,,744,283,223
01:33:57.939,,696,248,202
01:33:57.976,,691,199,204
01:33:58.013,,737,185,224
01:33:58.050,,772,174,249
01:33:58.087,,818,214,306
01:33:58.124,,826,237,293
01:33:58.161,,938,326,305
01:33:58.198,,1086,442,414
01:33:58.235,,1193,540,545
01:33:58.272,,1235,601,589
01:33:58.309,,1115,617,519
01:33:58.346,,948,227,435
01:33:58.383,,843,67,459
01:33:58.420,,750,282,435
01:33:58.458,,675,565,386
01:33:58.495,,611,723,426
01:33:58.532,,578,644,477
01:33:58.569,,732,559,512
01:33:58.606,,996,460,442
01:33:58.643,,1216,444,397
01:33:58.680,,1254,386,411
01:33:58.717,,1307,452,430
01:33:58.754,,1149,449,433
01:33:58.791,,1039,432,365
01:33:58.828,,1060,385,300
01:33:58.865,,1072,332,240
01:33:58.902,,1011,304,226
01:33:58.939,,876,270,271
01:33:58.976,,726,257,239
01:33:59.013,,627,249,203
01:33:59.050,,609,245,225
01:33:59.087,,579,208,247
01:33:59.124,,579,195,279
01:33:59.162,,647,212,296
01:33:59.199,,710,233,300
01:33:59.236,,841,294,335
01:33:59.273,,1107,364,380
01:33:59.310,,1457,495,473
01:33:59.347,,1438,623,657
01:33:59.384,,1100,668,697
01:33:59.421,,901,606,570
01:33:59.458,,883,180,420
01:33:59.495,,940,0,373
01:33:59.532,,776,165,309
01:33:59.569,,620,435,239
01:33:59.606,,534,580,219
01:33:59.643,,499,595,252
01:33:59.680,,516,527,314
01:33:59.717,,624,473,359
01:33:59.754,,869,492,407
01:33:59.791,,1082,493,460
01:33:59.829,,1253,436,498
01:33:59.866,,1303,334,501
01:33:59.903,,1191,244,524
01:33:59.940,,1031,279,502
01:33:59.977,,986,318,411
01:34:00.014,,938,357,339
01:34:00.051,,983,354,327
01:34:00.088,,901,273,312
01:34:00.125,,779,223,235
01:34:00.162,,729,211,206
01:34:00.199,,702,232,186
01:34:00.236,,701,250,193
01:34:00.273,,679,240,187
01:34:00.310,,678,230,170
01:34:00.347,,752,263,203
01:34:00.384,,857,300,266
01:34:00.421,,1015,328,286
01:34:00.458,,1132,385,324
01:34:00.495,,1313,477,424
01:34:00.532,,1135,548,583
01:34:00.570,,882,539,566
01:34:00.607,,845,371,454
01:34:00.644,,920,135,395
01:34:00.681,,851,51,379
01:34:00.718,,696,172,357
01:34:00.755,,610,378,352
01:34:00.792,,565,540,380
01:34:00.829,,545,527,437
01:34:00.866,,669,484,482
01:34:00.903,,938,438,507
01:34:00.940,,1160,365,476
01:34:00.977,,1322,335,476
01:34:01.014,,1223,375,492
01:34:01.051,,1126,414,475
01:34:01.088,,964,393,410
01:34:01.125,,959,364,294
01:34:01.162,,1012,329,222
01:34:01.199,,1052,314,237
01:34:01.236,,949,284,238
01:34:01.273,,812,270,191
01:34:01.310,,743,272,179
01:34:01.347,,754,282,183
01:34:01.385,,729,246,193
01:34:01.422,,743,228,209
01:34:01.459,,775,214,237
01:34:01.496,,782,203,255
01:34:01.533,,757,201,293
01:34:01.570,,859,253,290
01:34:01.607,,926,312,342
01:34:01.644,,1143,412,396
01:34:01.681,,1137,465,500
01:34:01.718,,1062,533,577
01:34:01.755,,1012,590,523
01:34:01.792,,1027,411,397
01:34:01.829,,967,171,360
01:34:01.866,,513,215,221
01:34:01.903,,526,-323,318
01:34:01.940,,478,-63,456
01:34:01.977,,690,-222,273
01:34:02.014,,-54,383,439
01:34:02.051,,1233,785,280
01:34:02.088,,1017,591,469
01:34:02.126,,1203,383,455
01:34:02.163,,1288,211,544
01:34:02.200,,1156,266,466
01:34:02.237,,1066,377,368
01:34:02.274,,969,399,332
01:34:02.311,,943,417,267
01:34:02.348,,975,369,194
01:34:02.385,,1044,355,191
01:34:02.422,,989,276,197
01:34:02.459,,806,214,169
01:34:02.496,,704,235,183
01:34:02.533,,699,278,201
01:34:02.570,,701,255,194
01:34:02.607,,754,240,206
01:34:02.644,,795,212,233
01:34:02.681,,773,200,264
01:34:02.718,,801,200,256
01:34:02.755,,1046,288,282
01:34:02.793,,1103,357,303
01:34:02.830,,1129,447,364
01:34:02.867,,1033,487,478
01:34:02.904,,942,498,486
01:34:02.941,,965,446,358
01:34:02.978,,1025,240,311
01:34:03.015,,920,195,355
01:34:03.052,,771,221,358
01:34:03.089,,645,326,287
01:34:03.126,,588,394,332
01:34:03.163,,614,371,413
01:34:03.200,,763,566,255
01:34:03.237,,887,1072,-373
01:34:03.274,,942,1362,-634
01:34:03.311,,1013,1575,-604
01:34:03.348,,1022,1230,-465
01:34:03.385,,930,879,-551
01:34:03.422,,922,764,-609
01:34:03.460,,983,687,-609
01:34:03.497,,951,543,-598
01:34:03.534,,851,434,-549
01:34:03.571,,605,362,-457
01:34:03.608,,364,329,-369
01:34:03.645,,201,315,-301
01:34:03.682,,102,294,-257
01:34:03.719,,50,280,-254
01:34:03.756,,54,304,-274
01:34:03.793,,150,358,-330
01:34:03.830,,258,419,-358
01:34:03.867,,405,432,-334
01:34:03.904,,467,625,-344
01:34:03.941,,848,784,-485
01:34:03.978,,1347,1101,-87
01:34:04.015,,1657,1832,431
01:34:04.052,,1106,-486,-509
01:34:04.089,,1357,-708,161
01:34:04.126,,863,-1157,1334
01:34:04.164,,871,494,216
01:34:04.201,,599,1113,-74
01:34:04.238,,701,1604,139
01:34:04.275,,467,662,-56
01:34:04.312,,604,319,161
01:34:04.349,,808,396,288
01:34:04.386,,1106,334,346
01:34:04.423,,1274,797,231
01:34:04.460,,1105,923,16
01:34:04.497,,1088,746,48
01:34:04.534,,942,466,201
01:34:04.571,,979,380,262
01:34:04.608,,1096,427,264
01:34:04.645,,1202,477,240
01:34:04.682,,1195,455,212
01:34:04.719,,1061,403,172
01:34:04.756,,915,326,152
01:34:04.794,,835,261,172
01:34:04.831,,823,250,210
01:34:04.868,,802,246,222
01:34:04.905,,804,248,251
01:34:04.942,,798,212,259
01:34:04.979,,825,187,253
01:34:05.016,,877,181,250
01:34:05.053,,900,268,263
01:34:05.090,,842,371,293
01:34:05.127,,924,488,338
01:34:05.164,,1161,598,395
01:34:05.201,,1271,612,364
01:34:05.238,,1096,526,339
01:34:05.275,,911,348,336
01:34:05.312,,851,300,349
01:34:05.349,,802,371,324
01:34:05.386,,710,465,313
01:34:05.423,,661,548,314
01:34:05.460,,798,690,391
01:34:05.498,,979,773,507
01:34:05.535,,1071,860,577
01:34:05.572,,1124,721,520
01:34:05.609,,1253,488,485
01:34:05.646,,1330,376,436
01:34:05.683,,1279,385,358
01:34:05.720,,1307,410,288
01:34:05.757,,1349,460,267
01:34:05.794,,1337,420,228
01:34:05.831,,1142,379,136
01:34:05.868,,922,309,71
01:34:05.905,,733,270,50
01:34:05.942,,626,260,63
01:34:05.979,,559,230,106
01:34:06.016,,548,212,173
01:34:06.053,,601,210,241
01:34:06.090,,666,171,247
01:34:06.127,,799,182,244
01:34:06.164,,928,258,290
01:34:06.202,,1141,403,342
01:34:06.239,,1454,547,471
01:34:06.276,,1588,595,616
01:34:06.313,,1487,495,391
01:34:06.350,,1071,448,345
01:34:06.387,,1066,85,403
01:34:06.424,,1027,70,286
01:34:06.461,,890,485,163
01:34:06.498,,736,613,-18
01:34:06.535,,609,611,-35
01:34:06.572,,516,604,64
01:34:06.609,,565,614,181
01:34:06.646,,806,748,313
01:34:06.683,,934,1098,240
01:34:06.720,,942,723,168
01:34:06.757,,1016,462,366
01:34:06.794,,1207,605,389
01:34:06.831,,1264,815,410
01:34:06.869,,1371,718,349
01:34:06.906,,1374,630,316
01:34:06.943,,1387,559,137
01:34:06.980,,1170,237,87
01:34:07.017,,1040,153,70
01:34:07.054,,941,179,84
01:34:07.091,,889,248,71
01:34:07.128,,785,290,56
01:34:07.165,,792,283,48
01:34:07.202,,719,230,72
01:34:07.239,,733,199,66
01:34:07.276,,729,266,142
01:34:07.313,,784,362,244
01:34:07.350,,812,483,330
01:34:07.387,,1042,545,474
01:34:07.424,,1313,451,523
01:34:07.461,,1343,363,462
01:34:07.498,,1301,-528,279
01:34:07.535,,803,541,611
01:34:07.572,,938,293,525
01:34:07.610,,856,458,467
01:34:07.647,,783,563,434
01:34:07.684,,751,661,459
01:34:07.721,,790,719,506
01:34:07.758,,902,711,534
01:34:07.795,,1153,793,549
01:34:07.832,,1308,747,501
01:34:07.869,,1395,453,399
01:34:07.906,,1371,354,356
01:34:07.943,,1426,399,266
01:34:07.980,,1425,421,216
01:34:08.017,,1308,399,158
01:34:08.054,,1117,351,71
01:34:08.091,,926,301,23
01:34:08.128,,828,303,21
01:34:08.165,,781,290,32
01:34:08.202,,754,258,49
01:34:08.239,,751,231,66
01:34:08.276,,770,204,105
01:34:08.314,,707,180,152
01:34:08.351,,736,171,141
01:34:08.388,,786,208,167
01:34:08.425,,851,328,213
01:34:08.462,,1012,420,283
01:34:08.499,,1490,589,432
01:34:08.536,,1822,947,459
01:34:08.573,,1555,965,393
01:34:08.610,,1067,630,478
01:34:08.647,,822,579,464
01:34:08.684,,671,636,317
01:34:08.721,,572,582,194
01:34:08.758,,517,552,220
01:34:08.795,,570,591,296
01:34:08.832,,801,713,371
01:34:08.869,,1061,806,398
01:34:08.906,,1202,743,395
01:34:08.943,,1330,484,380
01:34:08.980,,1326,381,414
01:34:09.018,,1349,419,377
01:34:09.055,,1278,459,275
01:34:09.092,,1110,532,154
01:34:09.129,,1093,526,128
01:34:09.166,,1059,478,115
01:34:09.203,,834,341,58
01:34:09.240,,670,269,51
01:34:09.277,,579,238,64
01:34:09.314,,559,248,62
01:34:09.351,,561,255,59
01:34:09.388,,638,257,60
01:34:09.425,,737,297,97
01:34:09.462,,807,390,153
01:34:09.499,,975,441,148
01:34:09.536,,1124,512,209
01:34:09.573,,1334,581,296
01:34:09.610,,1257,603,462
01:34:09.647,,1170,608,540
01:34:09.684,,984,565,414
01:34:09.721,,980,139,314
01:34:09.759,,898,17,327
01:34:09.796,,754,215,257
01:34:09.833,,658,477,124
01:34:09.870,,604,624,93
01:34:09.907,,571,632,151
01:34:09.944,,703,612,241
01:34:09.981,,990,628,341
01:34:10.018,,1168,650,352
01:34:10.055,,1281,691,369
01:34:10.092,,1145,552,421
01:34:10.129,,1148,552,460
01:34:10.166,,1116,545,449
01:34:10.203,,1062,518,362
01:34:10.240,,1095,433,256
01:34:10.277,,1125,349,248
01:34:10.314,,1012,334,240
01:34:10.351,,891,238,139
01:34:10.388,,798,264,108
01:34:10.425,,745,248,98
01:34:10.463,,708,261,95
01:34:10.500,,712,261,125
01:34:10.537,,773,247,132
01:34:10.574,,807,216,132
01:34:10.611,,803,228,171
01:34:10.648,,884,276,222
01:34:10.685,,883,324,244
01:34:10.722,,968,442,310
01:34:10.759,,1029,546,474
01:34:10.796,,1155,639,641
01:34:10.833,,1143,617,579
01:34:10.870,,1050,436,514
01:34:10.907,,845,27,495
01:34:10.944,,757,52,415
01:34:10.981,,695,273,340
01:34:11.018,,638,552,305
01:34:11.055,,611,684,337
01:34:11.092,,680,701,387
01:34:11.130,,906,602,422
01:34:11.167,,1048,527,405
01:34:11.204,,1312,561,410
01:34:11.241,,1246,476,373
01:34:11.278,,1161,441,349
01:34:11.315,,1060,416,338
01:34:11.352,,1084,417,271
01:34:11.389,,1123,439,232
01:34:11.426,,1108,366,220
01:34:11.463,,920,294,198
01:34:11.500,,756,267,159
01:34:11.537,,678,294,165
01:34:11.574,,663,298,192
01:34:11.611,,667,267,199
01:34:11.648,,706,234,230
01:34:11.685,,725,191,265
01:34:11.722,,775,191,317
01:34:11.759,,910,233,380
01:34:11.797,,1015,283,384
01:34:11.834,,1122,405,408
01:34:11.871,,1093,518,567
01:34:11.908,,1059,550,607
01:34:11.945,,1044,504,441
01:34:11.982,,1034,335,336
01:34:12.019,,895,125,295
01:34:12.056,,782,193,276
01:34:12.093,,705,391,223
01:34:12.130,,642,562,170
01:34:12.167,,617,612,202
01:34:12.204,,653,554,282
01:34:12.241,,890,538,345
01:34:12.278,,1047,537,387
01:34:12.315,,1214,603,431
01:34:12.352,,1128,541,480
01:34:12.389,,1185,521,508
01:34:12.426,,1108,449,533
01:34:12.464,,1031,410,471
01:34:12.501,,1014,420,400
01:34:12.538,,1077,382,336
01:34:12.575,,1028,344,311
01:34:12.612,,906,274,262
01:34:12.649,,796,248,188
01:34:12.686,,733,268,165
01:34:12.723,,712,299,176
01:34:12.760,,691,254,156
01:34:12.797,,718,217,137
01:34:12.834,,808,230,146
01:34:12.871,,853,258,182
01:34:12.908,,847,307,245
01:34:12.945,,880,317,260
01:34:12.982,,997,366,275
01:34:13.019,,1092,384,313
01:34:13.056,,1070,490,431
01:34:13.093,,1092,582,563
01:34:13.131,,1064,612,549
01:34:13.168,,919,483,487
01:34:13.205,,831,199,472
01:34:13.242,,745,299,458
01:34:13.279,,658,427,382
01:34:13.316,,594,536,350
01:34:13.353,,595,547,406
01:34:13.390,,762,531,447
01:34:13.427,,1058,538,431
01:34:13.464,,1180,504,396
01:34:13.501,,1218,506,406
01:34:13.538,,1072,469,375
01:34:13.575,,1148,538,342
01:34:13.612,,1091,517,327
01:34:13.649,,1095,472,253
01:34:13.686,,1128,419,198
01:34:13.723,,1144,347,193
01:34:13.760,,992,265,175
01:34:13.797,,825,235,159
01:34:13.835,,744,293,187
01:34:13.872,,723,317,208
01:34:13.909,,762,300,206
01:34:13.946,,791,259,239
01:34:13.983,,738,206,279
01:34:14.020,,695,163,338
01:34:14.057,,756,151,324
01:34:14.094,,822,217,337
01:34:14.131,,978,329,368
01:34:14.168,,1021,430,430
01:34:14.205,,1164,547,533
01:34:14.242,,1269,636,524
01:34:14.279,,1175,590,411
01:34:14.316,,920,247,354
01:34:14.353,,822,138,345
01:34:14.390,,755,301,289
01:34:14.427,,704,507,216
01:34:14.464,,614,624,213
01:34:14.501,,626,662,277
01:34:14.539,,861,693,385
01:34:14.576,,1093,748,456
01:34:14.613,,1231,800,476
01:34:14.650,,1165,548,445
01:34:14.687,,1255,412,463
01:34:14.724,,1154,369,483
01:34:14.761,,1186,400,408
01:34:14.798,,1211,419,337
01:34:14.835,,1295,396,310
01:34:14.872,,1217,291,274
01:34:14.909,,988,206,169
01:34:14.946,,778,202,134
01:34:14.983,,679,262,152
01:34:15.020,,667,283,155
01:34:15.057,,647,240,150
01:34:15.094,,648,183,158
01:34:15.131,,632,177,194
01:34:15.168,,677,230,249
01:34:15.205,,796,264,227
01:34:15.243,,1022,346,257
01:34:15.280,,1186,448,370
01:34:15.317,,1376,571,508
01:34:15.354,,1432,694,605
01:34:15.391,,1255,782,471
01:34:15.428,,1020,273,364
01:34:15.465,,929,-16,432
01:34:15.502,,818,178,338
01:34:15.539,,733,515,222
01:34:15.576,,629,712,206
01:34:15.613,,517,767,321
01:34:15.650,,578,736,462
01:34:15.687,,868,735,545
01:34:15.724,,1218,746,531
01:34:15.761,,1448,504,461
01:34:15.798,,1430,239,476
01:34:15.835,,1208,215,462
01:34:15.873,,1092,336,424
01:34:15.910,,1179,474,354
01:34:15.947,,1175,489,268
01:34:15.984,,1142,409,215
01:34:16.021,,967,276,155
01:34:16.058,,766,237,123
01:34:16.095,,669,248,123
01:34:16.132,,631,247,134
01:34:16.169,,600,230,160
01:34:16.206,,597,214,210
01:34:16.243,,651,200,263
01:34:16.280,,710,165,314
01:34:16.317,,887,179,314
01:34:16.354,,1080,222,342
01:34:16.391,,1255,392,398
01:34:16.428,,1413,590,568
01:34:16.465,,1431,707,688
01:34:16.502,,1269,619,449
01:34:16.539,,1148,495,340
01:34:16.577,,918,277,319
01:34:16.614,,759,308,241
01:34:16.651,,681,456,160
01:34:16.688,,596,598,96
01:34:16.725,,564,656,125
01:34:16.762,,627,644,216
01:34:16.799,,871,655,338
01:34:16.836,,957,658,423
01:34:16.873,,1141,753,506
01:34:16.910,,1215,712,554
01:34:16.947,,1272,604,515
01:34:16.984,,1328,436,476
01:34:17.021,,1274,297,404
01:34:17.058,,1131,289,347
01:34:17.095,,1128,326,308
01:34:17.132,,1001,347,249
01:34:17.169,,852,346,184
01:34:17.206,,760,325,134
01:34:17.244,,711,301,140
01:34:17.281,,676,269,148
01:34:17.318,,688,231,161
01:34:17.355,,755,217,216
01:34:17.392,,830,200,263
01:34:17.429,,877,192,312
01:34:17.466,,901,193,323
01:34:17.503,,900,295,380
01:34:17.540,,932,421,487
01:34:17.577,,990,475,548
01:34:17.614,,1190,464,589
01:34:17.651,,1350,418,487
01:34:17.688,,1215,361,347
01:34:17.725,,950,397,378
01:34:17.762,,814,398,166
01:34:17.799,,692,627,116
01:34:17.836,,713,765,193
01:34:17.873,,847,883,304
01:34:17.911,,875,901,346
01:34:17.948,,1070,932,395
01:34:17.985,,1220,692,426
01:34:18.022,,1412,486,434
01:34:18.059,,1375,382,449
01:34:18.096,,1423,396,374
01:34:18.133,,1426,461,307
01:34:18.170,,1375,457,236
01:34:18.207,,1153,409,179
01:34:18.244,,925,355,124
01:34:18.281,,788,321,96
01:34:18.318,,726,306,103
01:34:18.355,,691,255,119
01:34:18.392,,700,190,128
01:34:18.429,,679,122,145
01:34:18.466,,634,127,230
01:34:18.503,,631,182,404
01:34:18.540,,715,198,460
01:34:18.578,,791,212,352
01:34:18.615,,1024,305,310
01:34:18.652,,1348,535,497
01:34:18.689,,1584,880,585
01:34:18.726,,1293,1086,420
01:34:18.763,,934,592,126
01:34:18.800,,981,734,220
01:34:18.837,,747,719,177
01:34:18.874,,584,677,81
01:34:18.911,,605,649,95
01:34:18.948,,654,606,214
01:34:18.985,,703,633,236
01:34:19.022,,841,750,292
01:34:19.059,,981,750,350
01:34:19.096,,1205,850,454
01:34:19.133,,1356,724,455
01:34:19.170,,1453,567,412
01:34:19.208,,1259,316,366
01:34:19.245,,1092,219,299
01:34:19.282,,1053,276,246
01:34:19.319,,1024,302,211
01:34:19.356,,884,308,183
01:34:19.393,,791,302,157
01:34:19.430,,709,262,100
01:34:19.467,,599,265,81
01:34:19.504,,594,249,84
01:34:19.541,,586,236,88
01:34:19.578,,606,245,120
01:34:19.615,,679,283,191
01:34:19.652,,742,300,240
01:34:19.689,,964,336,277
01:34:19.726,,1318,417,329
01:34:19.763,,1508,566,436
01:34:19.800,,1257,652,620
01:34:19.838,,992,643,539
01:34:19.875,,935,591,424
01:34:19.912,,945,383,435
01:34:19.949,,832,255,422
01:34:19.986,,661,288,362
01:34:20.023,,542,375,321
01:34:20.060,,526,443,347
01:34:20.097,,580,477,392
01:34:20.134,,742,497,429
01:34:20.171,,1000,483,450
01:34:20.208,,1102,426,442
01:34:20.245,,1176,435,478
01:34:20.282,,1152,411,472
01:34:20.319,,1161,436,424
01:34:20.356,,1073,393,379
01:34:20.393,,1013,369,286
01:34:20.430,,962,361,208
01:34:20.467,,1007,364,184
01:34:20.504,,878,356,165
01:34:20.542,,737,353,150
01:34:20.579,,630,319,165
01:34:20.616,,659,318,170
01:34:20.653,,745,296,186
01:34:20.690,,837,241,184
01:34:20.727,,889,189,202
01:34:20.764,,888,182,229
01:34:20.801,,864,236,262
01:34:20.838,,953,294,274
01:34:20.875,,898,381,314
01:34:20.912,,984,488,421
01:34:20.949,,975,504,574
01:34:20.986,,969,425,584
01:34:21.023,,988,268,408
01:34:21.060,,1015,139,302
01:34:21.097,,869,197,356
01:34:21.134,,710,296,365
01:34:21.171,,617,439,277
01:34:21.208,,635,543,281
01:34:21.246,,658,524,352
01:34:21.283,,805,489,419
01:34:21.320,,980,489,466
01:34:21.357,,1084,500,459
01:34:21.394,,1255,533,489
01:34:21.431,,1175,499,483
01:34:21.468,,1235,483,484
01:34:21.505,,1153,450,456
01:34:21.542,,1058,439,362
01:34:21.579,,1083,417,300
01:34:21.616,,1029,345,257
01:34:21.653,,850,286,227
01:34:21.690,,738,268,206
01:34:21.727,,662,263,193
01:34:21.764,,630,262,187
01:34:21.801,,670,257,202
01:34:21.838,,767,235,220
01:34:21.875,,889,211,246
01:34:21.913,,940,187,236
01:34:21.950,,987,245,268
01:34:21.987,,905,332,308
01:34:22.024,,961,412,333
01:34:22.061,,970,464,423
01:34:22.098,,1019,505,549
01:34:22.135,,1079,463,522
01:34:22.172,,1001,373,418
01:34:22.209,,857,257,423
01:34:22.246,,750,287,359
01:34:22.283,,713,427,333
01:34:22.320,,644,583,348
01:34:22.357,,639,679,373
01:34:22.394,,850,771,445
01:34:22.431,,1072,870,551
01:34:22.468,,1178,893,542
01:34:22.505,,1315,501,439
01:34:22.542,,1428,247,430
01:34:22.579,,1271,196,408
01:34:22.617,,1185,363,397
01:34:22.654,,1208,550,335
01:34:22.691,,1176,542,212
01:34:22.728,,1102,466,158
01:34:22.765,,959,325,106
01:34:22.802,,774,238,74
01:34:22.839,,651,203,81
01:34:22.876,,605,212,101
01:34:22.913,,592,227,140
01:34:22.950,,649,237,169
01:34:22.987,,708,211,187
01:34:23.024,,839,216,255
01:34:23.061,,1010,219,274
01:34:23.098,,1006,267,286
01:34:23.135,,1087,420,372
01:34:23.172,,1172,582,514
01:34:23.209,,1282,737,653
01:34:23.246,,1254,794,624
01:34:23.283,,1013,540,485
01:34:23.321,,920,20,460
01:34:23.358,,795,18,397
01:34:23.395,,717,312,265
01:34:23.432,,624,637,216
01:34:23.469,,617,734,246
01:34:23.506,,758,739,299
01:34:23.543,,983,626,376
01:34:23.580,,1088,530,402
01:34:23.617,,1311,567,427
01:34:23.654,,1270,554,402
01:34:23.691,,1300,517,424
01:34:23.728,,1159,413,403
01:34:23.765,,1129,369,348
01:34:23.802,,1115,328,263
01:34:23.839,,1056,327,270
01:34:23.876,,956,293,228
01:34:23.913,,770,251,142
01:34:23.950,,620,241,122
01:34:23.988,,552,268,125
01:34:24.025,,608,262,136
01:34:24.062,,635,229,158
01:34:24.099,,684,209,180
01:34:24.136,,752,228,235
01:34:24.173,,932,284,294
01:34:24.210,,1074,333,318
01:34:24.247,,1248,479,388
01:34:24.284,,1266,640,607
01:34:24.321,,1134,675,660
01:34:24.358,,983,589,463
01:34:24.395,,979,179,363
01:34:24.432,,903,-12,360
01:34:24.469,,761,139,312
01:34:24.506,,638,420,227
01:34:24.543,,548,661,243
01:34:24.580,,530,698,295
01:34:24.617,,719,648,362
01:34:24.655,,1028,596,416
01:34:24.692,,1137,491,422
01:34:24.729,,1236,485,460
01:34:24.766,,1125,417,443
01:34:24.803,,1217,422,421
01:34:24.840,,1099,409,430
01:34:24.877,,1008,399,365
01:34:24.914,,991,414,294
01:34:24.951,,1011,397,251
01:34:24.988,,898,352,215
01:34:25.025,,781,270,166
01:34:25.062,,702,251,169
01:34:25.099,,692,256,169
01:34:25.136,,725,272,192
01:34:25.173,,790,255,224
01:34:25.210,,917,255,239
01:34:25.248,,948,225,284
01:34:25.285,,942,207,295
01:34:25.322,,859,220,321
01:34:25.359,,836,325,318
01:34:25.396,,870,431,388
01:34:25.433,,1050,519,508
01:34:25.470,,1263,542,554
01:34:25.507,,1205,481,422
01:34:25.544,,879,365,379
01:34:25.581,,744,234,357
01:34:25.618,,743,321,328
01:34:25.655,,723,495,311
01:34:25.692,,683,559,310
01:34:25.729,,739,553,355
01:34:25.766,,889,541,401
01:34:25.803,,1018,557,425
01:34:25.840,,1071,641,463
01:34:25.878,,1146,654,456
01:34:25.915,,1159,565,424
01:34:25.952,,1183,490,433
01:34:25.989,,1291,433,393
01:34:26.026,,1331,428,316
01:34:26.063,,1320,354,251
01:34:26.100,,1099,270,205
01:34:26.137,,888,232,170
01:34:26.174,,767,257,169
01:34:26.211,,761,283,163
01:34:26.248,,801,286,169
01:34:26.285,,818,236,154
01:34:26.322,,792,159,137
01:34:26.359,,706,124,150
01:34:26.396,,685,167,174
01:34:26.433,,640,250,186
01:34:26.471,,855,381,249
01:34:26.508,,1118,474,356
01:34:26.545,,1475,551,539
01:34:26.582,,1566,541,552
01:34:26.619,,1194,503,401
01:34:26.656,,924,289,387
01:34:26.693,,890,152,353
01:34:26.730,,848,302,306
01:34:26.767,,798,474,232
01:34:26.804,,712,569,206
01:34:26.841,,770,661,252
01:34:26.878,,951,767,374
01:34:26.915,,1081,918,527
01:34:26.952,,1196,956,507
01:34:26.989,,1224,653,432
01:34:27.026,,1346,343,440
01:34:27.064,,1354,207,413
01:34:27.101,,1345,300,347
01:34:27.138,,1340,452,331
01:34:27.175,,1298,484,259
01:34:27.212,,1087,390,104
01:34:27.249,,893,296,25
01:34:27.286,,782,269,40
01:34:27.323,,709,249,57
01:34:27.360,,664,224,64
01:34:27.397,,683,220,84
01:34:27.434,,714,204,92
01:34:27.471,,705,191,158
01:34:27.508,,816,226,208
01:34:27.545,,875,246,271
01:34:27.582,,1063,297,316
01:34:27.619,,1159,344,441
01:34:27.657,,1285,333,537
01:34:27.694,,1385,403,491
01:34:27.731,,1279,538,529
01:34:27.768,,1051,521,515
01:34:27.805,,862,443,453
01:34:27.842,,793,514,399
01:34:27.879,,715,546,359
01:34:27.916,,630,556,368
01:34:27.953,,720,640,407
01:34:27.990,,968,783,450
01:34:28.027,,1056,798,420
01:34:28.064,,1216,670,412
01:34:28.101,,1231,597,420
01:34:28.138,,1311,591,406
01:34:28.175,,1299,543,343
01:34:28.212,,1367,489,284
01:34:28.249,,1365,418,205
01:34:28.286,,1304,399,174
01:34:28.324,,1145,309,124
01:34:28.361,,893,209,82
01:34:28.398,,726,248,105
01:34:28.435,,647,263,114
01:34:28.472,,591,237,127
01:34:28.509,,544,198,148
01:34:28.546,,557,169,157
01:34:28.583,,595,158,208
01:34:28.620,,902,244,290
01:34:28.657,,1064,285,295
01:34:28.694,,1370,446,387
01:34:28.731,,1689,622,598
01:34:28.768,,1593,746,619
01:34:28.805,,1093,684,442
01:34:28.842,,980,178,434
01:34:28.879,,902,367,455
01:34:28.916,,736,504,232
01:34:28.953,,559,536,153
01:34:28.990,,520,476,157
01:34:29.028,,566,485,226
01:34:29.065,,762,574,304
01:34:29.102,,1003,611,345
01:34:29.139,,1087,620,329
01:34:29.176,,1175,628,401
01:34:29.213,,1125,558,461
01:34:29.250,,1241,577,444
01:34:29.287,,1181,470,424
01:34:29.324,,1093,402,377
01:34:29.361,,1053,399,302
01:34:29.398,,1132,412,255
01:34:29.435,,1083,363,226
01:34:29.472,,870,244,152
01:34:29.509,,705,228,141
01:34:29.546,,637,265,172
01:34:29.583,,644,294,158
01:34:29.620,,657,249,145
01:34:29.657,,780,226,151
01:34:29.695,,845,217,190
01:34:29.732,,756,234,251
01:34:29.769,,835,287,284
01:34:29.806,,962,340,284
01:34:29.843,,1200,422,354
01:34:29.880,,1184,444,502
01:34:29.917,,1108,437,538
01:34:29.954,,1010,417,490
01:34:29.991,,948,391,453
01:34:30.028,,878,367,450
01:34:30.065,,775,379,383
01:34:30.102,,679,388,327
01:34:30.139,,622,450,316
01:34:30.176,,603,479,334
01:34:30.213,,713,559,376
01:34:30.250,,923,648,419
01:34:30.287,,988,697,439
01:34:30.324,,1132,719,421
01:34:30.362,,1112,590,419
01:34:30.399,,1173,564,433
01:34:30.436,,1097,496,385
01:34:30.473,,1130,497,293
01:34:30.510,,1156,447,247
01:34:30.547,,1161,393,220
01:34:30.584,,1025,333,197
01:34:30.621,,888,290,160
01:34:30.658,,808,275,160
01:34:30.695,,759,280,186
01:34:30.732,,717,257,207
01:34:30.769,,704,235,214
01:34:30.806,,741,234,247
01:34:30.843,,729,202,299
01:34:30.880,,802,190,321
01:34:30.917,,855,213,287
01:34:30.954,,1026,344,310
01:34:30.991,,1104,479,407
01:34:31.028,,1255,619,535
01:34:31.066,,1324,611,474
01:34:31.103,,1260,556,342
01:34:31.140,,1005,309,347
01:34:31.177,,832,219,336
01:34:31.214,,745,399,266
01:34:31.251,,664,599,188
01:34:31.288,,601,719,203
01:34:31.325,,634,768,299
01:34:31.362,,818,819,433
01:34:31.399,,1015,884,470
01:34:31.436,,1302,734,437
01:34:31.473,,1456,395,451
01:34:31.510,,1358,289,457
01:34:31.547,,1315,337,415
01:34:31.584,,1379,440,361
01:34:31.621,,1370,493,272
01:34:31.658,,1230,421,170
01:34:31.695,,1068,337,128
01:34:31.733,,861,271,72
01:34:31.770,,689,253,46
01:34:31.807,,621,244,61
01:34:31.844,,628,256,110
01:34:31.881,,633,247,142
01:34:31.918,,653,224,175
01:34:31.955,,672,172,233
01:34:31.992,,672,135,260
01:34:32.029,,850,209,254
01:34:32.066,,1038,289,255
01:34:32.103,,1398,515,359
01:34:32.140,,1559,719,629
01:34:32.177,,1484,788,683
01:34:32.214,,1211,834,439
01:34:32.251,,1065,296,328
01:34:32.288,,997,86,382
01:34:32.325,,791,349,268
01:34:32.362,,639,609,156
01:34:32.400,,528,689,96
01:34:32.437,,504,720,202
01:34:32.474,,634,643,333
01:34:32.511,,906,604,397
01:34:32.548,,1110,639,415
01:34:32.585,,1352,701,450
01:34:32.622,,1321,540,436
01:34:32.659,,1378,488,429
01:34:32.696,,1225,370,415
01:34:32.733,,1180,330,336
01:34:32.770,,1116,359,237
01:34:32.807,,1111,371,201
01:34:32.844,,959,318,160
01:34:32.881,,759,257,113
01:34:32.918,,651,270,106
01:34:32.955,,653,299,122
01:34:32.992,,673,280,137
01:34:33.029,,752,256,159
01:34:33.066,,811,218,195
01:34:33.103,,784,170,233
01:34:33.140,,870,195,269
01:34:33.178,,871,223,240
01:34:33.215,,990,356,214
01:34:33.252,,1074,514,326
01:34:33.289,,1144,627,510
01:34:33.326,,1253,662,607
01:34:33.363,,1257,544,494
01:34:33.400,,1029,343,476
01:34:33.437,,834,109,487
01:34:33.474,,708,235,428
01:34:33.511,,661,445,340
01:34:33.548,,622,617,326
01:34:33.585,,694,691,395
01:34:33.622,,900,727,482
01:34:33.659,,1054,648,510
01:34:33.696,,1269,625,518
01:34:33.733,,1323,471,456
01:34:33.770,,1390,406,426
01:34:33.807,,1270,364,393
01:34:33.844,,1223,367,318
01:34:33.881,,1162,390,251
01:34:33.919,,1124,399,242
01:34:33.956,,982,344,196
01:34:33.993,,803,276,130
01:34:34.030,,675,252,122
01:34:34.067,,646,264,145
01:34:34.104,,643,251,164
01:34:34.141,,624,229,182
01:34:34.178,,684,225,200
01:34:34.215,,750,205,234
01:34:34.252,,836,204,263
01:34:34.289,,958,234,230
01:34:34.326,,1035,316,218
01:34:34.363,,1296,528,353
01:34:34.400,,1426,704,538
01:34:34.437,,1367,760,574
01:34:34.474,,1062,801,477
01:34:34.511,,882,216,394
01:34:34.548,,834,-67,431
01:34:34.585,,753,159,315
01:34:34.622,,682,524,180
01:34:34.660,,625,743,172
01:34:34.697,,582,746,285
01:34:34.734,,702,680,426
01:34:34.771,,954,596,464
01:34:34.808,,1142,580,422
01:34:34.845,,1369,567,393
01:34:34.882,,1258,409,374
01:34:34.919,,1257,405,410
01:34:34.956,,1167,392,407
01:34:34.993,,1153,417,343
01:34:35.030,,1154,403,256
01:34:35.067,,1097,348,218
01:34:35.104,,969,295,195
01:34:35.141,,825,246,132
01:34:35.178,,688,239,112
01:34:35.215,,618,261,114
01:34:35.252,,595,255,112
01:34:35.289,,610,244,129
01:34:35.326,,650,237,160
01:34:35.363,,703,244,221
01:34:35.400,,833,274,277
01:34:35.438,,1079,285,274
01:34:35.475,,1142,338,308
01:34:35.512,,1275,508,452
01:34:35.549,,1305,642,648
01:34:35.586,,1208,599,570
01:34:35.623,,1071,508,452
01:34:35.660,,948,80,423
01:34:35.697,,817,20,374
01:34:35.734,,721,240,268
01:34:35.771,,611,575,192
01:34:35.808,,566,698,241
01:34:35.845,,574,628,361
01:34:35.882,,777,529,453
01:34:35.919,,1017,480,421
01:34:35.956,,1149,500,382
01:34:35.993,,1263,459,367
01:34:36.030,,1178,484,413
01:34:36.067,,1173,484,432
01:34:36.104,,1103,424,385
01:34:36.141,,1044,398,284
01:34:36.179,,1108,364,265
01:34:36.216,,1055,280,234
01:34:36.253,,877,230,153
01:34:36.290,,739,239,138
01:34:36.327,,671,267,146
01:34:36.364,,646,298,131
01:34:36.401,,657,257,142
01:34:36.438,,721,222,157
01:34:36.475,,835,235,176
01:34:36.512,,906,252,233
01:34:36.549,,1087,321,334
01:34:36.586,,1073,274,380
01:34:36.623,,1144,374,401
01:34:36.660,,1076,489,557
01:34:36.697,,1040,499,619
01:34:36.734,,989,435,522
01:34:36.771,,896,263,460
01:34:36.808,,777,249,421
01:34:36.845,,695,325,342
01:34:36.882,,613,409,256
01:34:36.920,,594,469,239
01:34:36.957,,606,501,296
01:34:36.994,,798,525,340
01:34:37.031,,1052,550,339
01:34:37.068,,1226,590,327
01:34:37.105,,1209,571,342
01:34:37.142,,1073,585,364
01:34:37.179,,1028,620,363
01:34:37.216,,995,556,313
01:34:37.253,,998,482,250
01:34:37.290,,1070,401,233
01:34:37.327,,1025,331,215
01:34:37.364,,910,290,181
01:34:37.401,,835,309,175
01:34:37.438,,859,332,213
01:34:37.475,,860,324,234
01:34:37.512,,776,261,224
01:34:37.549,,791,214,229
01:34:37.586,,825,201,259
01:34:37.623,,832,228,279
01:34:37.661,,770,217,306
01:34:37.698,,829,268,284
01:34:37.735,,838,344,348
01:34:37.772,,962,446,450
01:34:37.809,,1180,514,556
01:34:37.846,,1196,463,493
01:34:37.883,,946,383,384
01:34:37.920,,801,269,404
01:34:37.957,,767,294,352
01:34:37.994,,753,400,319
01:34:38.031,,698,509,296
01:34:38.068,,763,625,325
01:34:38.105,,939,734,396
01:34:38.142,,966,802,503
01:34:38.179,,1048,873,542
01:34:38.216,,1071,647,495
01:34:38.253,,1199,469,503
01:34:38.290,,1250,367,524
01:34:38.327,,1311,436,442
01:34:38.364,,1472,456,347
01:34:38.401,,1437,349,260
01:34:38.439,,1194,294,218
01:34:38.476,,915,251,159
01:34:38.513,,681,275,105
01:34:38.550,,552,343,116
01:34:38.587,,571,330,129
01:34:38.624,,636,256,127
01:34:38.661,,655,195,193
01:34:38.698,,674,147,281
01:34:38.735,,769,123,279
01:34:38.772,,894,139,248
01:34:38.809,,1039,298,276
01:34:38.846,,1127,512,416
01:34:38.883,,1301,764,645
01:34:38.920,,1345,779,621
01:34:38.957,,1169,658,429
01:34:38.994,,1040,29,397
01:34:39.031,,914,-104,458
01:34:39.068,,829,176,361
01:34:39.105,,712,553,273
01:34:39.143,,580,721,260
01:34:39.180,,593,706,322
01:34:39.217,,808,622,463
01:34:39.254,,1078,461,571
01:34:39.291,,1207,549,572
01:34:39.328,,1213,822,584
01:34:39.365,,1328,651,464
01:34:39.402,,1224,458,390
01:34:39.439,,1273,372,259
01:34:39.476,,1259,376,201
01:34:39.513,,1132,355,156
01:34:39.550,,912,298,99
01:34:39.587,,743,281,74
01:34:39.624,,683,293,72
01:34:39.661,,701,278,92
01:34:39.698,,680,250,155
01:34:39.735,,647,186,177
01:34:39.772,,607,157,237
01:34:39.810,,623,179,342
01:34:39.847,,764,210,371
01:34:39.884,,803,234,391
01:34:39.921,,1109,364,394
01:34:39.958,,1536,548,617
01:34:39.995,,1629,697,803
01:34:40.032,,1250,753,583
01:34:40.069,,892,253,480
01:34:40.106,,861,-161,500
01:34:40.143,,790,65,367
01:34:40.180,,704,450,190
01:34:40.217,,583,722,134
01:34:40.254,,571,776,230
01:34:40.291,,758,788,377
01:34:40.328,,1019,686,432
01:34:40.365,,1264,690,435
01:34:40.402,,1067,694,328
01:34:40.439,,1338,137,362
01:34:40.477,,1164,423,432
01:34:40.514,,1160,494,371
01:34:40.551,,1214,563,315
01:34:40.588,,1198,461,268
01:34:40.625,,1135,332,249
01:34:40.662,,952,231,195
01:34:40.699,,739,181,141
01:34:40.736,,643,226,137
01:34:40.773,,618,265,153
01:34:40.810,,613,264,158
01:34:40.847,,622,234,162
01:34:40.884,,658,215,198
01:34:40.921,,668,195,202
01:34:40.958,,822,257,194
01:34:40.995,,1023,336,223
01:34:41.032,,1339,531,309
01:34:41.069,,1420,741,533
01:34:41.106,,1306,796,658
01:34:41.143,,986,772,475
01:34:41.181,,1004,178,353
01:34:41.218,,985,-58,440
01:34:41.255,,825,55,412
01:34:41.292,,635,351,291
01:34:41.329,,495,605,290
01:34:41.366,,490,614,350
01:34:41.403,,593,511,422
01:34:41.440,,871,471,470
01:34:41.477,,1144,461,563
01:34:41.514,,1281,511,607
01:34:41.551,,1220,444,578
01:34:41.588,,1297,337,460
01:34:41.625,,1202,292,411
01:34:41.662,,1086,292,359
01:34:41.699,,972,387,287
01:34:41.736,,917,388,241
01:34:41.773,,800,361,196
01:34:41.810,,683,294,138
01:34:41.848,,628,269,137
01:34:41.885,,662,274,154
01:34:41.922,,676,267,161
01:34:41.959,,727,260,188
01:34:41.996,,827,242,225
01:34:42.033,,890,227,275
01:34:42.070,,1025,244,315
01:34:42.107,,1068,271,361
01:34:42.144,,1031,350,402
01:34:42.181,,939,439,507
01:34:42.218,,1008,467,617
01:34:42.255,,1130,412,569
01:34:42.292,,1031,277,400
01:34:42.329,,826,201,382
01:34:42.366,,722,238,372
01:34:42.403,,724,432,282
01:34:42.440,,677,606,267
01:34:42.477,,681,634,294
01:34:42.515,,828,638,353
01:34:42.552,,965,708,423
01:34:42.589,,1145,841,467
01:34:42.626,,1274,741,431
01:34:42.663,,1255,553,451
01:34:42.700,,1160,351,479
01:34:42.737,,1157,367,381
01:34:42.774,,1276,416,293
01:34:42.811,,1387,374,297
01:34:42.848,,1215,302,309
01:34:42.885,,968,255,224
01:34:42.922,,776,274,166
01:34:42.959,,651,321,147
01:34:42.996,,594,296,133
01:34:43.033,,597,200,133
01:34:43.070,,624,145,161
01:34:43.107,,647,143,202
01:34:43.144,,730,218,272
01:34:43.182,,856,242,256
01:34:43.219,,1024,335,240
01:34:43.256,,1253,506,382
01:34:43.293,,1430,731,625
01:34:43.330,,1431,750,560
01:34:43.367,,1177,646,340
01:34:43.404,,1057,74,344
01:34:43.441,,926,-92,416
01:34:43.478,,786,186,323
01:34:43.515,,679,560,197
01:34:43.552,,571,717,149
01:34:43.589,,510,715,230
01:34:43.626,,674,688,389
01:34:43.663,,1031,698,499
01:34:43.700,,1258,753,500
01:34:43.737,,1332,602,432
01:34:43.774,,1368,342,429
01:34:43.811,,1362,308,421
01:34:43.849,,1256,356,354
01:34:43.886,,1247,419,339
01:34:43.923,,1228,430,269
01:34:43.960,,1086,387,203
01:34:43.997,,970,337,134
01:34:44.034,,836,269,57
01:34:44.071,,714,257,61
01:34:44.108,,653,263,96
01:34:44.145,,624,242,119
01:34:44.182,,645,223,117
01:34:44.219,,700,207,144
01:34:44.256,,766,218,215
01:34:44.293,,907,263,288
01:34:44.330,,931,274,255
01:34:44.367,,1052,383,287
01:34:44.404,,1190,537,470
01:34:44.441,,1370,692,651
01:34:44.478,,1357,629,578
01:34:44.515,,1122,422,464
01:34:44.553,,929,22,486
01:34:44.590,,799,114,438
01:34:44.627,,702,414,330
01:34:44.664,,618,669,274
01:34:44.701,,589,761,321
01:34:44.738,,707,777,422
01:34:44.775,,935,695,458
01:34:44.812,,1188,624,452
01:34:44.849,,1329,418,403
01:34:44.886,,1281,391,416
01:34:44.923,,1249,434,447
01:34:44.960,,1200,461,415
01:34:44.997,,1224,496,332
01:34:45.034,,1176,421,249
01:34:45.071,,1171,345,207
01:34:45.108,,997,258,166
01:34:45.145,,772,205,129
01:34:45.182,,622,239,125
01:34:45.219,,598,268,131
01:34:45.257,,618,244,149
01:34:45.294,,626,209,169
01:34:45.331,,690,183,206
01:34:45.368,,787,185,263
01:34:45.405,,902,214,308
01:34:45.442,,971,240,314
01:34:45.479,,1031,336,363
01:34:45.516,,1304,469,438
01:34:45.553,,1415,644,623
01:34:45.590,,1250,691,685
01:34:45.627,,978,547,525
01:34:45.664,,861,201,422
01:34:45.701,,817,79,366
01:34:45.738,,765,205,301
01:34:45.775,,712,444,253
01:34:45.812,,676,608,274
01:34:45.849,,648,641,345
01:34:45.886,,800,578,418
01:34:45.924,,951,485,405
01:34:45.961,,1114,474,406
01:34:45.998,,1222,460,440
01:34:46.035,,1261,455,454
01:34:46.072,,1146,431,473
01:34:46.109,,1093,411,398
01:34:46.146,,1078,407,319
01:34:46.183,,1085,351,267
01:34:46.220,,945,287,246
01:34:46.257,,790,247,207
01:34:46.294,,679,255,165
01:34:46.331,,654,285,164
01:34:46.368,,682,279,164
01:34:46.405,,695,239,171
01:34:46.442,,769,221,168
01:34:46.479,,840,231,182
01:34:46.516,,839,279,220
01:34:46.553,,966,350,302
01:34:46.590,,1028,604,394
01:34:46.628,,1012,620,448
01:34:46.665,,925,437,597
01:34:46.702,,924,246,654
01:34:46.739,,959,196,560
01:34:46.776,,963,221,441
01:34:46.813,,826,278,449
01:34:46.850,,670,327,399
01:34:46.887,,571,416,300
01:34:46.924,,538,510,291
01:34:46.961,,610,572,355
01:34:46.998,,724,581,408
01:34:47.035,,892,602,471
01:34:47.072,,1042,644,509
01:34:47.109,,1220,638,490
01:34:47.146,,1261,498,435
01:34:47.183,,1205,321,433
01:34:47.220,,1094,379,417
01:34:47.257,,1056,472,346
01:34:47.294,,1036,525,277
01:34:47.332,,992,461,250
01:34:47.369,,916,306,210
01:34:47.406,,817,229,159
01:34:47.443,,763,243,155
01:34:47.480,,738,270,145
01:34:47.517,,714,251,155
01:34:47.554,,739,252,183
01:34:47.591,,772,223,181
01:34:47.628,,814,216,189
01:34:47.665,,895,235,217
01:34:47.702,,876,309,255
01:34:47.739,,969,443,334
01:34:47.776,,1052,572,493
01:34:47.813,,1180,610,608
01:34:47.850,,1172,547,536
01:34:47.887,,1039,394,476
01:34:47.924,,851,120,456
01:34:47.961,,753,175,396
01:34:47.999,,698,371,322
01:34:48.036,,663,587,290
01:34:48.073,,691,680,354
01:34:48.110,,737,655,450
01:34:48.147,,870,656,538
01:34:48.184,,1023,668,538
01:34:48.221,,1238,595,458
01:34:48.258,,1225,341,418
01:34:48.295,,1147,201,441
01:34:48.332,,1196,303,390
01:34:48.369,,1295,422,318
01:34:48.406,,1246,466,252
01:34:48.443,,1070,398,202
01:34:48.480,,850,310,161
01:34:48.517,,652,289,110
01:34:48.554,,585,290,93
01:34:48.591,,612,284,107
01:34:48.629,,636,262,150
01:34:48.666,,648,230,187
01:34:48.703,,684,203,245
01:34:48.740,,684,194,309
01:34:48.777,,840,227,318
01:34:48.814,,1047,312,382
01:34:48.851,,1315,450,417
01:34:48.888,,1493,606,593
01:34:48.925,,1283,673,699
01:34:48.962,,950,715,542
01:34:48.999,,912,337,396
01:34:49.036,,972,-17,369
01:34:49.073,,808,89,283
01:34:49.110,,683,396,177
01:34:49.147,,557,654,154
01:34:49.184,,516,750,211
01:34:49.221,,569,655,326
01:34:49.258,,739,536,406
01:34:49.296,,982,497,445
01:34:49.333,,1143,500,440
01:34:49.370,,1210,461,432
01:34:49.407,,1170,399,433
01:34:49.444,,1093,367,453
01:34:49.481,,1035,389,419
01:34:49.518,,1079,419,346
01:34:49.555,,1135,382,255
01:34:49.592,,1072,331,217
01:34:49.629,,873,262,214
01:34:49.666,,675,240,170
01:34:49.703,,562,282,162
01:34:49.740,,566,325,177
01:34:49.777,,650,315,198
01:34:49.814,,777,275,244
01:34:49.851,,867,191,329
01:34:49.888,,793,237,342
01:34:49.925,,889,351,341
01:34:49.963,,1026,336,367
01:34:50.000,,1202,372,414
01:34:50.037,,1012,397,537
01:34:50.074,,887,450,521
01:34:50.111,,891,463,478
01:34:50.148,,997,395,366
01:34:50.185,,977,266,320
01:34:50.222,,785,227,336
01:34:50.259,,652,372,298
01:34:50.296,,609,572,314
01:34:50.333,,654,498,358
01:34:50.370,,842,483,445
01:34:50.407,,1014,471,485
01:34:50.444,,1192,579,502
01:34:50.481,,1128,521,490
01:34:50.518,,1127,470,493
01:34:50.555,,1076,434,486
01:34:50.592,,1106,429,386
01:34:50.629,,1113,415,300
01:34:50.666,,1178,373,265
01:34:50.704,,1055,309,238
01:34:50.741,,864,259,177
01:34:50.778,,740,260,146
01:34:50.815,,722,302,141
01:34:50.852,,735,302,144
01:34:50.889,,738,243,175
01:34:50.926,,743,163,209
01:34:50.963,,749,212,213
01:34:51.000,,801,282,249
01:34:51.037,,937,304,263
01:34:51.074,,995,354,249
01:34:51.111,,1042,470,368
01:34:51.148,,974,530,479
01:34:51.185,,1042,579,544
01:34:51.222,,1150,515,448
01:34:51.259,,1137,337,360
01:34:51.296,,939,97,393
01:34:51.333,,795,179,350
01:34:51.370,,717,393,255
01:34:51.407,,706,588,189
01:34:51.445,,684,638,246
01:34:51.482,,682,543,332
01:34:51.519,,836,486,385
01:34:51.556,,988,479,389
01:34:51.593,,1212,594,426
01:34:51.630,,1192,619,465
01:34:51.667,,1198,566,480
01:34:51.704,,1165,465,443
01:34:51.741,,1200,396,355
01:34:51.778,,1247,373,300
01:34:51.815,,1221,306,270
01:34:51.852,,1045,258,220
01:34:51.889,,862,244,157
01:34:51.926,,752,277,132
01:34:51.963,,725,319,122
01:34:52.000,,680,288,102
01:34:52.037,,668,233,95
01:34:52.074,,711,216,118
01:34:52.111,,660,209,169
01:34:52.148,,722,255,200
01:34:52.185,,818,298,215
01:34:52.223,,1070,418,259
01:34:52.260,,1186,497,375
01:34:52.297,,1300,606,558
01:34:52.334,,1262,640,577
01:34:52.371,,1090,579,415
01:34:52.408,,924,122,400
01:34:52.445,,827,12,413
01:34:52.482,,746,258,320
01:34:52.519,,655,519,235
01:34:52.556,,640,656,261
01:34:52.593,,676,722,354
01:34:52.630,,839,658,430
01:34:52.667,,1065,623,460
01:34:52.704,,1301,588,460
01:34:52.741,,1262,439,452
01:34:52.778,,1268,357,452
01:34:52.815,,1065,372,394
01:34:52.852,,1078,387,299
01:34:52.889,,1086,421,231
01:34:52.926,,1134,446,236
01:34:52.963,,997,361,172
01:34:53.000,,809,300,109
01:34:53.038,,702,305,114
01:34:53.075,,671,318,137
01:34:53.112,,699,311,167
01:34:53.149,,755,314,223
01:34:53.186,,851,286,274
01:34:53.223,,832,215,305
01:34:53.260,,865,182,367
01:34:53.297,,882,155,414
01:34:53.334,,870,208,384
01:34:53.371,,847,322,490
01:34:53.408,,838,386,595
01:34:53.445,,924,409,601
01:34:53.482,,1078,384,505
01:34:53.519,,1034,296,376
01:34:53.556,,852,276,375
01:34:53.593,,738,332,328
01:34:53.630,,698,428,244
01:34:53.667,,680,520,227
01:34:53.704,,680,590,288
01:34:53.741,,849,617,394
01:34:53.779,,1089,654,468
01:34:53.816,,1171,644,536
01:34:53.853,,1168,500,592
01:34:53.890,,1238,419,604
01:34:53.927,,1045,368,574
01:34:53.964,,1005,358,499
01:34:54.001,,1038,366,414
01:34:54.038,,1095,360,334
01:34:54.075,,1061,322,323
01:34:54.112,,920,261,268
01:34:54.149,,756,249,193
01:34:54.186,,664,266,182
01:34:54.223,,662,282,181
01:34:54.260,,693,238,166
01:34:54.297,,691,201,163
01:34:54.334,,719,207,181
01:34:54.371,,769,260,246
01:34:54.408,,912,304,273
01:34:54.445,,961,353,269
01:34:54.482,,1087,484,298
01:34:54.520,,1124,833,474
01:34:54.557,,1063,921,399
01:34:54.594,,1012,825,350
01:34:54.631,,996,624,266
01:34:54.668,,705,1007,212
01:34:54.705,,444,991,132
01:34:54.742,,263,741,87
01:34:54.779,,236,686,98
01:34:54.816,,315,715,133
01:34:54.853,,434,764,155
01:34:54.890,,631,851,156
01:34:54.927,,862,871,151
01:34:54.964,,1091,819,202
01:34:55.001,,1201,770,242
01:34:55.038,,1089,746,246
01:34:55.075,,960,657,206
01:34:55.112,,872,501,147
01:34:55.149,,856,416,142
01:34:55.186,,862,380,157
01:34:55.223,,773,349,146
01:34:55.260,,693,327,136
01:34:55.298,,650,305,144
01:34:55.335,,655,288,166
01:34:55.372,,692,278,191
01:34:55.409,,762,282,215
01:34:55.446,,882,301,232
01:34:55.483,,948,287,262
01:34:55.520,,1030,316,283
01:34:55.557,,973,364,315
01:34:55.594,,1103,592,431
01:34:55.631,,631,1063,393
01:34:55.668,,990,168,498
01:34:55.705,,736,711,544
01:34:55.742,,901,465,400
01:34:55.779,,789,324,367
01:34:55.816,,647,285,369
01:34:55.853,,583,354,341
01:34:55.890,,618,433,312
01:34:55.927,,601,471,330
01:34:55.964,,641,455,371
01:34:56.001,,846,479,426
01:34:56.038,,979,423,391
01:34:56.076,,1094,422,372
01:34:56.113,,1141,429,432
01:34:56.150,,1181,537,441
01:34:56.187,,990,516,413
01:34:56.224,,829,450,349
01:34:56.261,,798,452,333
01:34:56.298,,880,425,287
01:34:56.335,,961,399,274
01:34:56.372,,847,308,254
01:34:56.409,,697,263,231
01:34:56.446,,628,289,227
01:34:56.483,,676,336,221
01:34:56.520,,767,325,223
01:34:56.557,,897,290,225
01:34:56.594,,1001,262,236
01:34:56.631,,1004,279,281
01:34:56.668,,1114,315,289
01:34:56.705,,959,337,335
01:34:56.742,,898,393,373
01:34:56.779,,764,400,449
01:34:56.817,,803,416,480
01:34:56.854,,934,359,437
01:34:56.891,,944,236,366
01:34:56.928,,775,238,350
01:34:56.965,,661,325,333
01:34:57.002,,632,432,276
01:34:57.039,,653,531,302
01:34:57.076,,654,488,358
01:34:57.113,,776,484,440
01:34:57.150,,941,518,481
01:34:57.187,,988,557,483
01:34:57.224,,1058,572,477
01:34:57.261,,1009,485,427
01:34:57.298,,1148,469,403
01:34:57.335,,1143,435,413
01:34:57.372,,993,440,341
01:34:57.409,,1005,467,234
01:34:57.446,,1017,385,181
01:34:57.483,,1093,376,171
01:34:57.520,,993,367,203
01:34:57.558,,798,259,156
01:34:57.595,,608,276,116
01:34:57.632,,637,346,125
01:34:57.669,,683,282,169
01:34:57.706,,699,274,216
01:34:57.743,,759,263,278
01:34:57.780,,809,258,312
01:34:57.817,,839,249,332
01:34:57.854,,993,287,334
01:34:57.891,,1072,353,369
01:34:57.928,,1209,455,410
01:34:57.965,,1106,521,484
01:34:58.002,,1023,546,487
01:34:58.039,,958,549,422
01:34:58.076,,936,296,323
01:34:58.113,,822,166,318
01:34:58.150,,695,260,335
01:34:58.187,,605,427,301
01:34:58.224,,583,561,274
01:34:58.261,,580,551,348
01:34:58.299,,678,460,402
01:34:58.336,,934,432,456
01:34:58.373,,1054,365,423
01:34:58.410,,1110,421,454
01:34:58.447,,1152,432,512
01:34:58.484,,1242,474,484
01:34:58.521,,1120,428,427
01:34:58.558,,982,384,353
01:34:58.595,,932,375,272
01:34:58.632,,963,362,215
01:34:58.669,,990,350,202
01:34:58.706,,896,299,198
01:34:58.743,,750,254,180
01:34:58.780,,639,248,190
01:34:58.817,,618,257,198
01:34:58.854,,633,246,196
01:34:58.891,,661,240,223
01:34:58.928,,715,232,245
01:34:58.965,,824,265,301
01:34:59.002,,1109,342,350
01:34:59.040,,1189,365,338
01:34:59.077,,1139,472,391
01:34:59.114,,987,579,474
01:34:59.151,,908,651,447
01:34:59.188,,923,555,307
01:34:59.225,,971,482,264
01:34:59.262,,840,412,318
01:34:59.299,,670,410,321
01:34:59.336,,613,444,282
01:34:59.373,,613,483,268
01:34:59.410,,631,484,340
01:34:59.447,,661,453,399
01:34:59.484,,798,464,442
01:34:59.521,,955,457,468
01:34:59.558,,1183,513,521
01:34:59.595,,1221,482,564
01:34:59.632,,1162,466,488
01:34:59.669,,1030,419,452
01:34:59.706,,1062,367,381
01:34:59.743,,1050,346,290
01:34:59.780,,1022,332,246
01:34:59.818,,898,298,202
01:34:59.855,,759,283,166
01:34:59.892,,634,288,152
01:34:59.929,,614,311,160
01:34:59.966,,610,292,188
01:35:00.003,,636,268,210
01:35:00.040,,742,253,239
01:35:00.077,,856,221,263
01:35:00.114,,913,230,307
01:35:00.151,,1038,317,346
01:35:00.188,,1021,378,360
01:35:00.225,,1152,492,452
01:35:00.262,,1019,470,588
01:35:00.299,,925,410,538
01:35:00.336,,973,351,446
01:35:00.373,,973,233,394
01:35:00.410,,828,256,345
01:35:00.447,,714,347,329
01:35:00.484,,639,459,270
01:35:00.521,,628,543,286
01:35:00.558,,598,514,361
01:35:00.595,,731,510,439
01:35:00.633,,1003,558,486
01:35:00.670,,1081,468,437
01:35:00.707,,1213,435,473
01:35:00.744,,1066,379,465
01:35:00.781,,1161,459,434
01:35:00.818,,1047,435,408
01:35:00.855,,994,446,357
01:35:00.892,,981,408,289
01:35:00.929,,1026,385,252
01:35:00.966,,1027,353,228
01:35:01.003,,862,286,200
01:35:01.040,,700,217,164
01:35:01.077,,648,278,243
01:35:01.114,,621,284,146
01:35:01.151,,724,269,207
01:35:01.188,,818,237,238
01:35:01.225,,888,198,248
01:35:01.262,,1027,245,273
01:35:01.299,,1015,331,301
01:35:01.336,,1150,503,400
01:35:01.373,,1006,546,488
01:35:01.411,,927,-644,-359
01:35:01.448,,779,-161,452
01:35:01.485,,945,388,465
01:35:01.522,,998,-12,391
01:35:01.559,,760,271,390
01:35:01.596,,657,421,345
01:35:01.633,,612,508,331
01:35:01.670,,611,431,347
01:35:01.707,,647,328,387
01:35:01.744,,812,362,399
01:35:01.781,,1044,439,430
01:35:01.818,,1331,532,464
01:35:01.855,,1329,500,471
01:35:01.892,,1243,369,429
01:35:01.929,,1034,255,373
01:35:01.966,,1056,285,314
01:35:02.003,,1064,316,259
01:35:02.040,,1087,325,230
01:35:02.077,,948,280,197
01:35:02.114,,816,235,146
01:35:02.151,,724,241,122
01:35:02.188,,711,260,126
01:35:02.226,,707,234,126
01:35:02.263,,713,213,144
01:35:02.300,,804,216,188
01:35:02.337,,854,195,225
01:35:02.374,,888,169,229
01:35:02.411,,1003,206,261
01:35:02.448,,1117,289,299
01:35:02.485,,1117,372,378
01:35:02.522,,1062,379,454
01:35:02.559,,1047,375,479
01:35:02.596,,1068,380,424
01:35:02.633,,942,303,361
01:35:02.670,,812,238,359
01:35:02.707,,717,289,334
01:35:02.744,,680,366,287
01:35:02.781,,684,442,337
01:35:02.818,,659,412,385
01:35:02.855,,814,432,444
01:35:02.892,,1042,461,491
01:35:02.929,,1243,447,485
01:35:02.967,,1295,393,480
01:35:03.004,,1215,349,451
01:35:03.041,,1142,348,433
01:35:03.078,,1134,350,370
01:35:03.115,,1119,333,266
01:35:03.152,,1114,294,208
01:35:03.189,,1097,256,200
01:35:03.226,,902,205,154
01:35:03.263,,727,202,95
01:35:03.300,,641,239,83
01:35:03.337,,659,286,104
01:35:03.374,,666,258,128
01:35:03.411,,658,215,138
01:35:03.448,,706,180,172
01:35:03.485,,758,176,227
01:35:03.522,,921,198,240
01:35:03.559,,1095,276,289
01:35:03.596,,1194,390,353
01:35:03.633,,1277,469,494
01:35:03.670,,1265,522,619
01:35:03.707,,1057,472,502
01:35:03.745,,1018,151,416
01:35:03.782,,885,-10,452
01:35:03.819,,708,71,408
01:35:03.856,,580,301,311
01:35:03.893,,624,1253,772
01:35:03.930,,331,-491,-25
01:35:03.967,,666,161,344
01:35:04.004,,1084,-22,417
01:35:04.041,,1184,506,469
01:35:04.078,,1309,554,372
01:35:04.115,,1078,562,439
01:35:04.152,,1189,423,423
01:35:04.189,,1032,315,343
01:35:04.226,,961,222,254
01:35:04.263,,946,259,238
01:35:04.300,,948,279,240
01:35:04.337,,855,265,237
01:35:04.374,,746,208,202
01:35:04.411,,655,213,183
01:35:04.448,,630,253,194
01:35:04.486,,644,257,198
01:35:04.523,,704,232,214
01:35:04.560,,790,203,220
01:35:04.597,,882,197,235
01:35:04.634,,1009,216,252
01:35:04.671,,1142,267,280
01:35:04.708,,1083,365,335
01:35:04.745,,1116,529,410
01:35:04.782,,1032,669,479
01:35:04.819,,942,632,457
01:35:04.856,,942,434,430
01:35:04.893,,889,314,433
01:35:04.930,,704,209,351
01:35:04.967,,610,363,287
01:35:05.004,,549,409,229
01:35:05.041,,546,467,213
01:35:05.078,,600,488,239
01:35:05.115,,734,471,256
01:35:05.152,,970,504,295
01:35:05.190,,1204,548,339
01:35:05.227,,1245,507,371
01:35:05.264,,1194,470,394
01:35:05.301,,1091,389,382
01:35:05.338,,999,354,339
01:35:05.375,,958,328,271
01:35:05.412,,978,317,245
01:35:05.449,,963,297,242
01:35:05.486,,833,249,209
01:35:05.523,,709,227,181
01:35:05.560,,652,255,206
01:35:05.597,,656,263,217
01:35:05.634,,681,239,206
01:35:05.671,,796,214,223
01:35:05.708,,905,172,245
01:35:05.745,,964,166,269
01:35:05.782,,1058,218,298
01:35:05.819,,973,276,323
01:35:05.856,,1107,398,372
01:35:05.894,,976,410,502
01:35:05.931,,925,394,549
01:35:05.968,,938,312,476
01:35:06.005,,981,186,381
01:35:06.042,,836,137,345
01:35:06.079,,696,193,315
01:35:06.116,,635,320,266
01:35:06.153,,640,429,255
01:35:06.190,,649,451,309
01:35:06.227,,726,398,364
01:35:06.264,,919,414,431
01:35:06.301,,1076,419,466
01:35:06.338,,1252,451,492
01:35:06.375,,1115,415,531
01:35:06.412,,1143,442,572
01:35:06.449,,1089,387,533
01:35:06.486,,1106,351,400
01:35:06.523,,1080,316,321
01:35:06.560,,1131,262,298
01:35:06.598,,1006,227,279
01:35:06.635,,820,244,243
01:35:06.672,,717,255,188
01:35:06.709,,691,260,139
01:35:06.746,,725,234,142
01:35:06.783,,694,178,171
01:35:06.820,,693,160,179
01:35:06.857,,773,181,213
01:35:06.894,,853,212,253
01:35:06.931,,1024,241,294
01:35:06.968,,955,236,327
01:35:07.005,,1070,330,388
01:35:07.042,,1079,377,535
01:35:07.079,,1113,366,555
01:35:07.116,,1152,303,458
01:35:07.153,,1006,179,388
01:35:07.190,,822,168,406
01:35:07.227,,720,254,377
01:35:07.264,,700,410,330
01:35:07.301,,716,505,337
01:35:07.339,,705,443,400
01:35:07.376,,866,442,479
01:35:07.413,,1023,450,461
01:35:07.450,,1099,478,434
01:35:07.487,,1190,432,450
01:35:07.524,,1148,422,459
01:35:07.561,,1227,417,476
01:35:07.598,,1160,387,439
01:35:07.635,,1100,351,337
01:35:07.672,,1133,289,264
01:35:07.709,,1141,248,255
01:35:07.746,,1007,207,227
01:35:07.783,,819,186,168
01:35:07.820,,673,206,128
01:35:07.857,,654,256,134
01:35:07.894,,688,242,139
01:35:07.931,,696,202,167
01:35:07.968,,713,164,182
01:35:08.005,,777,190,233
01:35:08.043,,924,226,307
01:35:08.080,,984,226,331
01:35:08.117,,1136,281,357
01:35:08.154,,1149,369,485
01:35:08.191,,1235,434,594
01:35:08.228,,1263,396,480
01:35:08.265,,1088,258,395
01:35:08.302,,849,88,381
01:35:08.339,,810,182,351
01:35:08.376,,733,348,266
01:35:08.413,,695,506,200
01:35:08.450,,694,548,264
01:35:08.487,,810,555,383
01:35:08.524,,997,583,472
01:35:08.561,,1142,649,504
01:35:08.598,,1323,605,491
01:35:08.635,,1357,391,485
01:35:08.672,,1139,306,462
01:35:08.709,,1071,317,410
01:35:08.746,,1067,359,316
01:35:08.783,,1093,364,244
01:35:08.821,,1099,293,239
01:35:08.858,,980,182,169
01:35:08.895,,873,156,132
01:35:08.932,,835,203,150
01:35:08.969,,807,222,165
01:35:09.006,,805,202,164
01:35:09.043,,802,186,177
01:35:09.080,,753,135,188
01:35:09.117,,692,114,218
01:35:09.154,,704,126,205
01:35:09.191,,799,224,212
01:35:09.228,,978,372,299
01:35:09.265,,1217,591,480
01:35:09.302,,1448,752,641
01:35:09.339,,1315,963,549
01:35:09.376,,1056,659,472
01:35:09.413,,849,275,529
01:35:09.450,,713,335,500
01:35:09.487,,601,484,372
01:35:09.524,,518,603,357
01:35:09.561,,577,584,427
01:35:09.599,,756,523,485
01:35:09.636,,1028,501,496
01:35:09.673,,1186,492,495
01:35:09.710,,1282,464,475
01:35:09.747,,1271,405,419
01:35:09.784,,1182,349,361
01:35:09.821,,1000,319,296
01:35:09.858,,1007,334,226
01:35:09.895,,1043,328,178
01:35:09.932,,1024,311,154
01:35:09.969,,919,252,147
01:35:10.006,,754,207,123
01:35:10.043,,633,228,142
01:35:10.080,,602,252,172
01:35:10.117,,639,240,204
01:35:10.154,,702,216,231
01:35:10.191,,765,183,274
01:35:10.228,,817,165,302
01:35:10.265,,968,202,306
01:35:10.302,,1035,288,327
01:35:10.340,,1215,449,366
01:35:10.377,,1262,586,515
01:35:10.414,,1166,627,570
01:35:10.451,,993,581,445
01:35:10.488,,946,152,353
01:35:10.525,,877,30,359
01:35:10.562,,776,183,329
01:35:10.599,,702,382,244
01:35:10.636,,660,517,214
01:35:10.673,,667,516,289
01:35:10.710,,677,392,356
01:35:10.747,,877,351,410
01:35:10.784,,1059,332,434
01:35:10.821,,1233,356,424
01:35:10.858,,1151,345,454
01:35:10.895,,1195,394,481
01:35:10.932,,1040,382,423
01:35:10.969,,950,349,337
01:35:11.006,,962,348,286
01:35:11.043,,1008,330,246
01:35:11.080,,947,295,204
01:35:11.117,,812,245,161
01:35:11.155,,729,241,161
01:35:11.192,,714,270,164
01:35:11.229,,737,275,154
01:35:11.266,,752,248,185
01:35:11.303,,803,229,220
01:35:11.340,,911,209,251
01:35:11.377,,986,185,267
01:35:11.414,,1034,189,297
01:35:11.451,,1063,269,334
01:35:11.488,,852,330,398
01:35:11.525,,796,381,461
01:35:11.562,,915,385,522
01:35:11.599,,1053,333,483
01:35:11.636,,1038,228,450
01:35:11.673,,865,159,477
01:35:11.710,,743,261,461
01:35:11.747,,712,353,422
01:35:11.784,,695,404,417
01:35:11.821,,667,392,454
01:35:11.858,,677,357,478
01:35:11.896,,855,391,487
01:35:11.933,,1038,400,459
01:35:11.970,,1195,366,453
01:35:12.007,,1203,365,442
01:35:12.044,,1115,370,416
01:35:12.081,,1093,364,384
01:35:12.118,,1145,308,295
01:35:12.155,,1129,242,212
01:35:12.192,,1068,218,208
01:35:12.229,,911,233,248
01:35:12.266,,722,256,219
01:35:12.303,,614,245,192
01:35:12.340,,641,227,222
01:35:12.377,,656,186,245
01:35:12.414,,651,141,258
01:35:12.451,,750,134,302
01:35:12.488,,850,137,336
01:35:12.525,,983,174,307
01:35:12.562,,1123,251,289
01:35:12.599,,1304,415,374
01:35:12.637,,1217,542,491
01:35:12.674,,1129,565,477
01:35:12.711,,1044,667,324
01:35:12.748,,1023,492,213
01:35:12.785,,912,387,307
01:35:12.822,,788,413,337
01:35:12.859,,634,420,238
01:35:12.896,,544,443,204
01:35:12.933,,592,423,275
01:35:12.970,,647,382,347
01:35:13.007,,793,381,368
01:35:13.044,,996,428,404
01:35:13.081,,1196,536,452
01:35:13.118,,1236,512,441
01:35:13.155,,1258,475,390
01:35:13.192,,1019,402,346
01:35:13.229,,1037,451,265
01:35:13.266,,1064,447,189
01:35:13.303,,1054,396,158
01:35:13.340,,1008,354,170
01:35:13.377,,891,316,162
01:35:13.415,,750,280,145
01:35:13.452,,680,254,162
01:35:13.489,,714,238,174
01:35:13.526,,745,220,181
01:35:13.563,,768,207,184
01:35:13.600,,736,185,176
01:35:13.637,,718,239,200
01:35:13.674,,824,367,237
01:35:13.711,,902,572,175
01:35:13.748,,1014,894,225
01:35:13.785,,881,987,351
01:35:13.822,,805,874,324
01:35:13.859,,826,729,292
01:35:13.896,,601,591,249
01:35:13.933,,369,733,183
01:35:13.970,,445,779,-6
01:35:14.007,,659,882,-48
01:35:14.044,,807,754,22
01:35:14.081,,794,616,93
01:35:14.118,,848,622,161
01:35:14.155,,899,584,154
01:35:14.193,,953,540,192
01:35:14.230,,1029,513,214
01:35:14.267,,1136,554,238
01:35:14.304,,1050,539,240
01:35:14.341,,854,449,205
01:35:14.378,,763,383,175
01:35:14.415,,778,370,155
01:35:14.452,,749,342,151
01:35:14.489,,731,319,138
01:35:14.526,,698,327,160
01:35:14.563,,664,367,172
01:35:14.600,,616,382,185
01:35:14.637,,590,406,183
01:35:14.674,,666,470,187
01:35:14.711,,806,593,222
01:35:14.748,,887,672,259
01:35:14.785,,1026,557,264
01:35:14.822,,1259,849,201
01:35:14.859,,1338,654,155
01:35:14.897,,862,750,251
01:35:14.934,,696,639,341
01:35:14.971,,868,608,285
01:35:15.008,,1065,426,199
01:35:15.045,,925,215,233
01:35:15.082,,661,167,269
01:35:15.119,,480,273,260
01:35:15.156,,410,363,247
01:35:15.193,,421,339,298
01:35:15.230,,459,273,375
01:35:15.267,,625,301,452
01:35:15.304,,871,406,436
01:35:15.341,,1134,509,365
01:35:15.378,,1339,622,408
01:35:15.415,,1243,686,426
01:35:15.452,,905,597,393
01:35:15.489,,896,515,326
01:35:15.526,,905,517,274
01:35:15.563,,923,432,245
01:35:15.600,,839,326,251
01:35:15.637,,747,285,262
01:35:15.675,,692,292,265
01:35:15.712,,696,300,264
01:35:15.749,,719,285,267
01:35:15.786,,786,256,264
01:35:15.823,,837,222,273
01:35:15.860,,837,238,309
01:35:15.897,,842,276,337
01:35:15.934,,1010,335,328
01:35:15.971,,1037,357,310
01:35:16.008,,1048,453,368
01:35:16.045,,905,549,457
01:35:16.082,,899,582,424
01:35:16.119,,948,423,321
01:35:16.156,,891,309,335
01:35:16.193,,726,302,330
01:35:16.230,,596,387,233
01:35:16.267,,580,471,191
01:35:16.304,,633,552,248
01:35:16.341,,638,529,297
01:35:16.378,,746,558,355
01:35:16.416,,911,532,363
01:35:16.453,,1011,479,373
01:35:16.490,,1154,489,411
01:35:16.527,,1189,509,416
01:35:16.564,,1180,489,378
01:35:16.601,,1015,406,342
01:35:16.638,,1011,363,275
01:35:16.675,,1032,338,217
01:35:16.712,,1063,330,216
01:35:16.749,,1002,296,229
01:35:16.786,,827,257,203
01:35:16.823,,711,253,201
01:35:16.860,,656,230,196
01:35:16.897,,627,206,198
01:35:16.934,,597,200,230
01:35:16.971,,642,218,271
01:35:17.008,,762,240,329
01:35:17.045,,915,251,393
01:35:17.082,,1135,258,453
01:35:17.120,,1326,326,531
01:35:17.157,,1265,408,669
01:35:17.194,,947,401,718
01:35:17.231,,803,336,617
01:35:17.268,,928,165,483
01:35:17.305,,943,86,414
01:35:17.342,,735,154,406
01:35:17.379,,594,277,413
01:35:17.416,,565,371,383
01:35:17.453,,582,380,369
01:35:17.490,,581,313,396
01:35:17.527,,591,225,438
01:35:17.564,,684,188,471
01:35:17.601,,870,184,479
01:35:17.638,,975,177,515
01:35:17.675,,1118,245,601
01:35:17.712,,1065,287,714
01:35:17.749,,1132,310,702
01:35:17.786,,1087,231,662
01:35:17.823,,932,117,533
01:35:17.861,,796,150,407
01:35:17.898,,827,198,388
01:35:17.935,,861,277,391
01:35:17.972,,779,293,332
01:35:18.009,,664,253,299
01:35:18.046,,629,238,299
01:35:18.083,,685,249,290
01:35:18.120,,689,225,305
01:35:18.157,,692,191,321
01:35:18.194,,775,201,353
01:35:18.231,,903,223,424
01:35:18.268,,1037,252,478
01:35:18.305,,1186,258,466
01:35:18.342,,1221,310,492
01:35:18.379,,908,372,634
01:35:18.416,,718,350,642
01:35:18.453,,828,251,426
01:35:18.490,,985,147,266
01:35:18.527,,864,147,292
01:35:18.564,,683,260,348
01:35:18.602,,619,387,332
01:35:18.639,,603,481,305
01:35:18.676,,634,462,331
01:35:18.713,,687,346,401
01:35:18.750,,836,270,429
01:35:18.787,,1010,273,452
01:35:18.824,,987,338,510
01:35:18.861,,1148,452,576
01:35:18.898,,1104,471,617
01:35:18.935,,1060,405,509
01:35:18.972,,1072,323,497
01:35:19.009,,1071,293,408
01:35:19.046,,1086,301,331
01:35:19.083,,1123,267,299
01:35:19.120,,952,247,254
01:35:19.157,,796,255,233
01:35:19.194,,709,273,215
01:35:19.231,,684,286,187
01:35:19.268,,762,269,202
01:35:19.305,,796,217,231
01:35:19.342,,799,159,237
01:35:19.380,,792,122,241
01:35:19.417,,774,148,259
01:35:19.454,,848,229,257
01:35:19.491,,941,343,284
01:35:19.528,,1068,473,407
01:35:19.565,,1167,516,581
01:35:19.602,,1178,467,553
01:35:19.639,,1140,392,379
01:35:19.676,,1003,205,332
01:35:19.713,,811,208,369
01:35:19.750,,680,338,329
01:35:19.787,,619,467,243
01:35:19.824,,599,508,250
01:35:19.861,,594,470,344
01:35:19.898,,742,470,442
01:35:19.935,,1037,521,486
01:35:19.972,,1170,512,460
01:35:20.009,,1290,465,482
01:35:20.046,,1166,337,458
01:35:20.083,,1233,392,437
01:35:20.120,,1103,384,388
01:35:20.157,,1034,406,302
01:35:20.195,,1028,389,231
01:35:20.232,,1094,365,177
01:35:20.269,,1009,312,158
01:35:20.306,,837,225,129
01:35:20.343,,693,200,122
01:35:20.380,,638,232,145
01:35:20.417,,649,252,152
01:35:20.454,,698,249,180
01:35:20.491,,773,223,212
01:35:20.528,,821,185,248
01:35:20.565,,907,194,308
01:35:20.602,,962,208,351
01:35:20.639,,985,276,333
01:35:20.676,,1037,378,435
01:35:20.713,,1067,451,551
01:35:20.750,,1071,451,500
01:35:20.787,,1113,489,456
01:35:20.824,,1042,367,389
01:35:20.861,,864,285,346
01:35:20.898,,713,433,324
01:35:20.936,,624,559,234
01:35:20.973,,592,634,213
01:35:21.010,,594,583,254
01:35:21.047,,902,610,339
01:35:21.084,,1074,611,330
01:35:21.121,,1342,682,273
01:35:21.158,,1296,464,124
01:35:21.195,,1383,163,450
01:35:21.232,,1214,177,439
01:35:21.269,,1207,-210,290
01:35:21.306,,927,482,110
01:35:21.343,,1020,386,118
01:35:21.380,,821,440,27
01:35:21.417,,756,329,0
01:35:21.454,,731,248,64
01:35:21.491,,718,277,87
01:35:21.528,,668,293,90
01:35:21.565,,636,282,130
01:35:21.602,,648,235,196
01:35:21.639,,647,133,237
01:35:21.676,,802,101,261
01:35:21.714,,1056,160,312
01:35:21.751,,1296,314,351
01:35:21.788,,1507,516,515
01:35:21.825,,1450,586,654
01:35:21.862,,1169,622,517
01:35:21.899,,938,305,333
01:35:21.936,,915,-49,322
01:35:21.973,,816,60,287
01:35:22.010,,680,341,202
01:35:22.047,,611,560,123
01:35:22.084,,560,619,182
01:35:22.121,,568,502,260
01:35:22.158,,771,422,343
01:35:22.195,,1066,425,415
01:35:22.232,,1320,477,433
01:35:22.269,,1311,489,458
01:35:22.306,,1200,411,449
01:35:22.343,,1103,369,441
01:35:22.380,,1110,315,375
01:35:22.417,,1123,330,323
01:35:22.455,,1142,299,261
01:35:22.492,,1015,259,203
01:35:22.529,,878,231,172
01:35:22.566,,769,221,146
01:35:22.603,,714,250,133
01:35:22.640,,757,266,160
01:35:22.677,,785,237,159
01:35:22.714,,822,210,181
01:35:22.751,,836,163,197
01:35:22.788,,854,146,212
01:35:22.825,,1036,282,201
01:35:22.862,,1014,412,292
01:35:22.899,,1033,495,443
01:35:22.936,,1163,452,464
01:35:22.973,,1219,377,372
01:35:23.010,,1122,289,365
01:35:23.047,,883,163,377
01:35:23.084,,776,264,348
01:35:23.121,,743,426,312
01:35:23.158,,693,536,310
01:35:23.196,,639,525,367
01:35:23.233,,712,482,446
01:35:23.270,,930,506,498
01:35:23.307,,1131,540,484
01:35:23.344,,1261,531,478
01:35:23.381,,1154,380,466
01:35:23.418,,1255,360,470
01:35:23.455,,1167,361,447
01:35:23.492,,1179,372,343
01:35:23.529,,1194,350,269
01:35:23.566,,1232,284,218
01:35:23.603,,1050,241,214
01:35:23.640,,844,219,183
01:35:23.677,,719,248,153
01:35:23.714,,694,263,151
01:35:23.751,,689,228,170
01:35:23.788,,713,167,240
01:35:23.825,,200,444,513
01:35:23.862,,1178,496,335
01:35:23.899,,937,-281,56
01:35:23.936,,1035,-213,190
01:35:23.973,,962,406,529
01:35:24.011,,669,511,451
01:35:24.048,,747,469,400
01:35:24.085,,942,365,451
01:35:24.122,,1027,171,477
01:35:24.159,,1002,57,510
01:35:24.196,,934,240,477
01:35:24.233,,898,448,475
01:35:24.270,,819,513,468
01:35:24.307,,803,450,453
01:35:24.344,,961,402,443
01:35:24.381,,1213,82,402
01:35:24.418,,841,578,383
01:35:24.455,,664,859,401
01:35:24.492,,1226,770,299
01:35:24.529,,977,363,333
01:35:24.566,,928,178,147
01:35:24.603,,1155,-15,-362
01:35:24.640,,1075,349,-161
01:35:24.677,,948,458,80
01:35:24.714,,905,296,-53
01:35:24.751,,966,254,-232
01:35:24.789,,1017,193,-226
01:35:24.826,,1012,236,-183
01:35:24.863,,1015,178,-155
01:35:24.900,,586,408,-105
01:35:24.937,,414,745,-96
01:35:24.974,,1134,-5,94
01:35:25.011,,881,405,168
01:35:25.048,,1001,237,35
01:35:25.085,,967,430,14
01:35:25.122,,1076,566,7
01:35:25.159,,855,614,17
01:35:25.196,,753,596,38
01:35:25.233,,788,523,58
01:35:25.270,,890,452,68
01:35:25.307,,859,405,86
01:35:25.344,,762,362,101
01:35:25.381,,691,409,89
01:35:25.418,,1077,730,-96
01:35:25.455,,-335,190,318
01:35:25.492,,1463,563,-39
01:35:25.529,,589,414,261
01:35:25.566,,1029,485,298
01:35:25.603,,1124,589,281
01:35:25.641,,1163,637,344
01:35:25.678,,1181,591,381
01:35:25.715,,1017,543,311
01:35:25.752,,919,548,229
01:35:25.789,,984,518,158
01:35:25.826,,1070,501,127
01:35:25.863,,1107,425,77
01:35:25.900,,931,337,34
01:35:25.937,,814,334,36
01:35:25.974,,777,334,43
01:35:26.011,,771,312,32
01:35:26.048,,786,293,47
01:35:26.085,,836,274,66
01:35:26.122,,847,233,86
01:35:26.159,,841,217,114
01:35:26.196,,853,233,141
01:35:26.233,,880,269,151
01:35:26.270,,1084,386,160
01:35:26.307,,1021,487,266
01:35:26.344,,1005,535,391
01:35:26.382,,1088,500,378
01:35:26.419,,1133,484,309
01:35:26.456,,984,334,299
01:35:26.493,,852,249,313
01:35:26.530,,774,361,294
01:35:26.567,,726,496,270
01:35:26.604,,685,532,308
01:35:26.641,,685,484,373
01:35:26.678,,829,498,427
01:35:26.715,,1027,571,433
01:35:26.752,,1142,658,446
01:35:26.789,,1124,629,425
01:35:26.826,,1277,582,393
01:35:26.863,,1093,410,321
01:35:26.900,,973,394,311
01:35:26.937,,1020,435,262
01:35:26.974,,1142,451,169
01:35:27.011,,1231,417,125
01:35:27.048,,1138,267,70
01:35:27.085,,943,174,16
01:35:27.122,,820,225,17
01:35:27.159,,779,310,12
01:35:27.197,,776,343,-3
01:35:27.234,,827,325,19
01:35:27.271,,841,311,94
01:35:27.308,,826,298,149
01:35:27.345,,924,288,222
01:35:27.382,,833,215,258
01:35:27.419,,807,194,246
01:35:27.456,,974,302,307
01:35:27.493,,1213,452,397
01:35:27.530,,1515,617,454
01:35:27.567,,1491,682,466
01:35:27.604,,1105,671,478
01:35:27.641,,865,433,380
01:35:27.678,,840,309,357
01:35:27.715,,792,400,334
01:35:27.752,,720,559,356
01:35:27.789,,657,698,443
01:35:27.826,,790,708,470
01:35:27.863,,976,613,417
01:35:27.901,,1006,408,352
01:35:27.938,,1144,370,361
01:35:27.975,,1314,430,337
01:35:28.012,,1448,467,295
01:35:28.049,,1252,438,266
01:35:28.086,,1140,395,211
01:35:28.123,,1037,395,144
01:35:28.160,,1026,415,111
01:35:28.197,,938,379,95
01:35:28.234,,828,309,70
01:35:28.271,,720,249,69
01:35:28.308,,665,249,97
01:35:28.345,,645,259,130
01:35:28.382,,655,251,157
01:35:28.419,,670,220,161
01:35:28.456,,724,211,170
01:35:28.493,,790,286,210
01:35:28.530,,952,431,250
01:35:28.567,,1186,591,266
01:35:28.604,,1466,829,319
01:35:28.642,,1127,886,451
01:35:28.679,,865,818,540
01:35:28.716,,826,651,436
01:35:28.753,,958,435,325
01:35:28.790,,957,229,321
01:35:28.827,,778,248,310
01:35:28.864,,634,375,253
01:35:28.901,,572,471,187
01:35:28.938,,541,526,230
01:35:28.975,,544,508,283
01:35:29.012,,650,485,327
01:35:29.049,,831,470,332
01:35:29.086,,1046,469,357
