Sensors' Acquisition [Hz]: Acc@26.0 
hh:mm:ss.ms, Annotation , AccX [mg], AccY, AccZ
20:25:15.330,,827,430,347
20:25:15.367,,926,302,253
20:25:15.391,>Walk,,,
20:25:15.404,,1043,163,168
20:25:15.441,,1022,247,193
20:25:15.478,,925,320,243
20:25:15.515,,881,352,197
20:25:15.552,,906,397,191
20:25:15.589,,901,393,169
20:25:15.627,,887,415,157
20:25:15.664,,832,496,139
20:25:15.701,,763,583,155
20:25:15.738,,866,592,139
20:25:15.775,,895,539,100
20:25:15.812,,1191,567,34
20:25:15.849,,1424,656,-73
20:25:15.886,,780,590,96
20:25:15.923,,704,517,136
20:25:15.960,,1017,595,-106
20:25:15.997,,1123,614,-94
20:25:16.034,,941,450,17
20:25:16.071,,912,430,75
20:25:16.108,,1012,544,53
20:25:16.145,,1046,550,32
20:25:16.182,,992,605,95
20:25:16.219,,883,557,160
20:25:16.256,,782,488,154
20:25:16.293,,681,432,144
20:25:16.330,,607,341,158
20:25:16.367,,618,332,195
20:25:16.405,,901,363,113
20:25:16.442,,782,343,126
20:25:16.479,,645,370,330
20:25:16.516,,872,368,392
20:25:16.553,,1152,329,251
20:25:16.590,,1162,129,182
20:25:16.627,,1021,94,55
20:25:16.664,,1013,283,127
20:25:16.701,,956,399,97
20:25:16.738,,884,449,113
20:25:16.775,,902,556,206
20:25:16.812,,828,697,395
20:25:16.849,,814,670,447
20:25:16.886,,950,526,323
20:25:16.923,,1033,413,215
20:25:16.960,,1026,356,191
20:25:16.997,,1595,505,-32
20:25:17.034,,890,581,59
20:25:17.071,,566,497,200
20:25:17.108,,648,465,6
20:25:17.146,,1071,536,-326
20:25:17.183,,1196,562,-296
20:25:17.220,,1155,513,-159
20:25:17.257,,1149,435,33
20:25:17.294,,1163,228,130
20:25:17.331,,1107,95,256
20:25:17.368,,938,269,325
20:25:17.405,,760,387,312
20:25:17.442,,648,378,244
20:25:17.479,,567,345,209
20:25:17.516,,586,405,266
20:25:17.553,,577,263,154
20:25:17.590,,835,206,-92
20:25:17.627,,810,386,-52
20:25:17.664,,731,456,152
20:25:17.701,,1120,445,246
20:25:17.738,,1493,463,174
20:25:17.775,,1180,232,128
20:25:17.812,,906,365,271
20:25:17.849,,898,308,288
20:25:17.886,,911,234,250
20:25:17.924,,883,213,290
20:25:17.961,,778,261,355
20:25:17.998,,730,346,385
20:25:18.035,,817,393,325
20:25:18.072,,1001,444,225
20:25:18.109,,1083,431,120
20:25:18.146,,1487,466,77
20:25:18.183,,1283,492,109
20:25:18.220,,804,425,144
20:25:18.257,,692,397,114
20:25:18.294,,921,468,-28
20:25:18.331,,1138,509,-16
20:25:18.368,,1056,501,58
20:25:18.405,,1085,796,-33
20:25:18.442,,1232,508,-103
20:25:18.479,,1167,191,48
20:25:18.516,,967,107,210
20:25:18.553,,743,83,306
20:25:18.590,,626,97,297
20:25:18.627,,592,91,305
20:25:18.664,,663,72,343
20:25:18.701,,836,76,249
20:25:18.738,,969,158,175
20:25:18.775,,791,215,372
20:25:18.812,,881,229,306
20:25:18.849,,1219,271,166
20:25:18.887,,1262,266,107
20:25:18.924,,1127,185,20
20:25:18.961,,1096,267,115
20:25:18.998,,1012,376,142
20:25:19.035,,892,426,152
20:25:19.072,,859,460,153
20:25:19.109,,840,540,150
20:25:19.146,,810,540,187
20:25:19.183,,811,451,215
20:25:19.220,,951,397,167
20:25:19.257,,1108,433,106
20:25:19.294,,1602,568,14
20:25:19.331,,903,494,59
20:25:19.368,,640,354,129
20:25:19.405,,940,363,-35
20:25:19.442,,1235,520,-129
20:25:19.479,,1057,383,-38
20:25:19.516,,903,311,-5
20:25:19.553,,917,360,4
20:25:19.590,,958,377,-8
20:25:19.627,,990,338,-68
20:25:19.664,,903,394,-8
20:25:19.701,,803,447,-7
20:25:19.739,,657,418,-61
20:25:19.776,,678,473,-81
20:25:19.813,,778,498,-77
20:25:19.850,,1160,447,-60
20:25:19.887,,1093,457,227
20:25:19.924,,819,554,938
20:25:19.961,,1082,38,453
20:25:19.998,,1139,15,282
20:25:20.035,,1027,373,334
20:25:20.072,,864,528,341
20:25:20.109,,697,463,220
20:25:20.146,,625,353,67
20:25:20.183,,602,364,-25
20:25:20.220,,614,391,-94
20:25:20.257,,448,960,11
20:25:20.294,,376,1367,91
20:25:20.331,,561,722,174
20:25:20.368,,852,120,327
20:25:20.405,,936,350,380
20:25:20.442,,1171,644,149
20:25:20.479,,794,1294,-26
20:25:20.516,,483,1060,-97
20:25:20.554,,551,701,118
20:25:20.591,,1178,291,329
20:25:20.628,,1549,87,336
20:25:20.665,,1195,-438,636
20:25:20.702,,1003,-354,686
20:25:20.739,,953,177,560
20:25:20.776,,721,521,366
20:25:20.813,,514,734,232
20:25:20.850,,392,809,81
20:25:20.887,,371,578,-40
20:25:20.924,,410,476,-110
20:25:20.961,,486,403,-182
20:25:20.998,,769,383,-188
20:25:21.035,,1115,289,-379
20:25:21.072,,1022,489,-255
20:25:21.109,,1070,824,58
20:25:21.146,,1180,361,-364
20:25:21.183,,980,408,-395
20:25:21.220,,880,580,-23
20:25:21.257,,843,679,-71
20:25:21.294,,797,621,-135
20:25:21.331,,751,690,-121
20:25:21.369,,759,781,-147
20:25:21.406,,754,692,-154
20:25:21.443,,687,693,-34
20:25:21.480,,695,532,-59
20:25:21.517,,837,493,-43
20:25:21.554,,861,600,-51
20:25:21.591,,1412,762,-7
20:25:21.628,,1286,699,-49
20:25:21.665,,574,530,81
20:25:21.702,,893,535,40
20:25:21.739,,1380,624,-132
20:25:21.776,,1252,568,-125
20:25:21.813,,1067,374,5
20:25:21.850,,1056,338,80
20:25:21.887,,1073,355,71
20:25:21.924,,956,494,162
20:25:21.961,,776,481,201
20:25:21.998,,622,412,217
20:25:22.035,,482,366,263
20:25:22.072,,443,372,256
20:25:22.109,,442,375,199
20:25:22.146,,527,339,183
20:25:22.183,,895,390,77
20:25:22.221,,885,397,164
20:25:22.258,,805,504,389
20:25:22.295,,1034,481,335
20:25:22.332,,1329,333,94
20:25:22.369,,1217,126,41
20:25:22.406,,1061,227,175
20:25:22.443,,1016,377,152
20:25:22.480,,943,437,80
20:25:22.517,,900,471,81
20:25:22.554,,851,554,128
20:25:22.591,,815,554,175
20:25:22.628,,764,539,219
20:25:22.665,,910,532,199
20:25:22.702,,995,519,93
20:25:22.739,,1216,558,13
20:25:22.776,,1418,615,18
20:25:22.813,,878,592,200
20:25:22.850,,721,470,223
20:25:22.887,,967,472,32
20:25:22.924,,1218,513,-38
20:25:22.961,,1079,444,46
20:25:22.998,,1020,424,91
20:25:23.035,,1036,417,116
20:25:23.072,,985,375,71
20:25:23.110,,872,386,73
20:25:23.147,,720,374,150
20:25:23.184,,635,344,151
20:25:23.221,,614,313,157
20:25:23.258,,606,277,159
20:25:23.295,,714,279,130
20:25:23.332,,1044,332,94
20:25:23.369,,1006,361,229
20:25:23.406,,1031,406,442
20:25:23.443,,1149,351,395
20:25:23.480,,1205,232,197
20:25:23.517,,1153,137,140
20:25:23.554,,1040,235,138
20:25:23.591,,941,365,92
20:25:23.628,,890,441,78
20:25:23.665,,800,429,59
20:25:23.702,,754,433,59
20:25:23.739,,744,481,90
20:25:23.776,,748,471,148
20:25:23.813,,682,436,206
20:25:23.850,,834,443,160
20:25:23.887,,927,444,96
20:25:23.924,,984,452,100
20:25:23.962,,1356,603,84
20:25:23.999,,845,528,103
20:25:24.036,,649,415,151
20:25:24.073,,933,438,-38
20:25:24.110,,1335,553,-117
20:25:24.147,,1095,438,4
20:25:24.184,,983,395,81
20:25:24.221,,1002,498,112
20:25:24.258,,1033,830,-116
20:25:24.295,,964,1091,-175
20:25:24.332,,857,907,-148
20:25:24.369,,595,732,-82
20:25:24.406,,347,650,-48
20:25:24.443,,277,502,-76
20:25:24.480,,306,453,-29
20:25:24.517,,370,478,103
20:25:24.554,,771,376,-103
20:25:24.591,,683,327,284
20:25:24.628,,987,288,256
20:25:24.665,,1284,336,25
20:25:24.702,,1259,221,30
20:25:24.739,,1074,278,110
20:25:24.776,,1112,443,189
20:25:24.813,,1087,554,212
20:25:24.851,,1068,278,193
20:25:24.888,,1199,318,179
20:25:24.925,,1098,815,-255
20:25:24.962,,735,1146,-336
20:25:24.999,,777,825,-170
20:25:25.036,,938,673,-233
20:25:25.073,,1427,727,-374
20:25:25.110,,1049,471,-267
20:25:25.147,,790,455,-181
20:25:25.184,,896,563,-336
20:25:25.221,,1183,575,-460
20:25:25.258,,1169,496,-380
20:25:25.295,,1143,425,-364
20:25:25.332,,1118,535,-363
20:25:25.369,,1141,699,-310
20:25:25.406,,1090,712,-237
20:25:25.443,,1008,656,-130
20:25:25.480,,920,446,11
20:25:25.517,,834,314,142
20:25:25.554,,764,244,166
20:25:25.591,,842,9,171
20:25:25.628,,866,242,171
20:25:25.665,,800,519,494
20:25:25.702,,893,323,570
20:25:25.740,,995,70,277
20:25:25.777,,1002,-58,260
20:25:25.814,,935,89,301
20:25:25.851,,864,242,280
20:25:25.888,,907,315,219
20:25:25.925,,1040,399,153
20:25:25.962,,1131,504,164
20:25:25.999,,1151,559,172
20:25:26.036,,1102,625,163
20:25:26.073,,1085,649,118
20:25:26.110,,1044,440,165
20:25:26.147,,1224,504,10
20:25:26.184,,1256,887,-147
20:25:26.221,,804,744,5
20:25:26.258,,1014,510,-59
20:25:26.295,,1136,546,-177
20:25:26.332,,928,467,-22
20:25:26.369,,852,440,20
20:25:26.406,,948,430,-84
20:25:26.443,,1052,417,-97
20:25:26.480,,1129,389,-51
20:25:26.517,,1133,353,-17
20:25:26.554,,1176,372,-6
20:25:26.591,,1103,357,47
20:25:26.629,,1092,271,134
20:25:26.666,,1306,22,47
20:25:26.703,,933,77,281
20:25:26.740,,770,22,474
20:25:26.777,,945,10,332
20:25:26.814,,907,14,220
20:25:26.851,,790,132,267
20:25:26.888,,690,283,364
20:25:26.925,,669,296,349
20:25:26.962,,738,312,304
20:25:26.999,,902,395,274
20:25:27.036,,1057,479,185
20:25:27.073,,1075,574,197
20:25:27.110,,999,514,269
20:25:27.147,,969,462,262
20:25:27.184,,909,471,238
20:25:27.221,,1215,649,148
20:25:27.258,,1226,791,103
20:25:27.295,,808,507,166
20:25:27.332,,1029,455,82
20:25:27.369,,1161,555,-5
20:25:27.406,,994,479,114
20:25:27.443,,919,384,170
20:25:27.481,,1024,382,86
20:25:27.518,,1108,529,82
20:25:27.555,,1183,768,-25
20:25:27.592,,1234,1034,-79
20:25:27.629,,950,873,-109
20:25:27.666,,594,590,-2
20:25:27.703,,361,447,152
20:25:27.740,,275,359,244
20:25:27.777,,393,271,285
20:25:27.814,,535,321,285
20:25:27.851,,457,159,427
20:25:27.888,,629,32,486
20:25:27.925,,940,116,347
20:25:27.962,,1047,277,239
20:25:27.999,,1163,379,186
20:25:28.036,,1261,441,181
20:25:28.073,,1354,458,16
20:25:28.110,,1255,741,8
20:25:28.147,,1016,946,33
20:25:28.184,,819,760,87
20:25:28.221,,836,543,154
20:25:28.258,,871,386,7
20:25:28.295,,920,653,-45
20:25:28.332,,874,939,-31
20:25:28.370,,801,929,-100
20:25:28.407,,1156,983,-219
20:25:28.444,,883,812,-150
20:25:28.481,,695,688,-106
20:25:28.518,,932,667,-223
20:25:28.555,,1131,642,-251
20:25:28.592,,987,572,-174
20:25:28.629,,866,532,-98
20:25:28.666,,870,600,-74
20:25:28.703,,864,613,-24
20:25:28.740,,771,658,0
20:25:28.777,,626,673,77
20:25:28.814,,446,737,29
20:25:28.851,,303,795,-55
20:25:28.888,,247,783,-123
20:25:28.925,,267,753,-27
20:25:28.962,,338,724,116
20:25:28.999,,699,597,-18
20:25:29.036,,628,584,93
20:25:29.073,,580,595,333
20:25:29.110,,642,443,284
20:25:29.147,,741,204,186
20:25:29.184,,891,132,191
20:25:29.222,,928,299,305
20:25:29.259,,965,394,375
20:25:29.296,,1044,465,270
20:25:29.333,,1075,584,240
20:25:29.370,,958,708,325
20:25:29.407,,848,514,403
20:25:29.444,,856,376,403
20:25:29.481,,940,472,326
20:25:29.518,,992,580,267
20:25:29.555,,995,561,243
20:25:29.592,,1525,583,24
20:25:29.629,,1061,673,21
20:25:29.666,,666,565,227
20:25:29.703,,691,455,128
20:25:29.740,,927,552,-42
20:25:29.777,,1066,415,30
20:25:29.814,,1016,374,123
20:25:29.851,,973,374,195
20:25:29.888,,1074,329,104
20:25:29.925,,1251,524,39
20:25:29.962,,1221,631,-88
20:25:29.999,,981,528,55
20:25:30.036,,748,392,249
20:25:30.074,,590,251,292
20:25:30.111,,516,206,289
20:25:30.148,,471,190,370
20:25:30.185,,612,98,232
20:25:30.222,,922,217,127
20:25:30.259,,876,354,351
20:25:30.296,,1103,322,453
20:25:30.333,,1574,323,194
20:25:30.370,,1422,323,-22
20:25:30.407,,1055,285,65
20:25:30.444,,932,374,171
20:25:30.481,,874,523,205
20:25:30.518,,895,630,225
20:25:30.555,,831,539,208
20:25:30.592,,825,433,149
20:25:30.629,,790,457,192
20:25:30.666,,840,470,168
20:25:30.703,,917,490,99
20:25:30.740,,879,471,57
20:25:30.777,,1422,580,-107
20:25:30.814,,1009,616,-59
20:25:30.852,,812,550,44
20:25:30.889,,1076,525,-31
20:25:30.926,,1131,605,-38
20:25:30.963,,1014,543,63
20:25:31.000,,1016,564,159
20:25:31.037,,1090,495,307
20:25:31.074,,992,443,251
20:25:31.111,,751,167,193
20:25:31.148,,555,128,216
20:25:31.185,,530,301,231
20:25:31.222,,674,360,199
20:25:31.259,,780,340,210
20:25:31.296,,1095,347,135
20:25:31.333,,1293,373,6
20:25:31.370,,1107,360,171
20:25:31.407,,1098,392,260
20:25:31.444,,1036,371,128
20:25:31.481,,993,287,50
20:25:31.518,,991,291,49
20:25:31.555,,886,386,88
20:25:31.592,,828,463,146
20:25:31.629,,828,470,157
20:25:31.667,,818,452,114
20:25:31.704,,790,489,154
20:25:31.741,,796,515,165
20:25:31.778,,826,523,145
20:25:31.815,,928,470,106
20:25:31.852,,975,469,42
20:25:31.889,,1101,511,-3
20:25:31.926,,1480,673,-101
20:25:31.963,,805,582,-20
20:25:32.000,,776,439,-3
20:25:32.037,,1113,426,-190
20:25:32.074,,1214,434,-192
20:25:32.111,,1042,382,-29
20:25:32.148,,997,478,121
20:25:32.185,,1109,552,77
20:25:32.222,,1065,627,115
20:25:32.259,,924,606,276
20:25:32.296,,757,535,239
20:25:32.333,,625,472,222
20:25:32.370,,563,381,256
20:25:32.407,,542,304,248
20:25:32.444,,615,274,222
20:25:32.482,,872,254,75
20:25:32.519,,692,245,80
20:25:32.556,,756,363,288
20:25:32.593,,1059,456,291
20:25:32.630,,1244,428,40
20:25:32.667,,1244,296,-72
20:25:32.704,,1113,364,80
20:25:32.741,,991,447,116
20:25:32.778,,936,434,134
20:25:32.815,,952,419,125
20:25:32.852,,927,498,110
20:25:32.889,,868,512,123
20:25:32.926,,802,563,169
20:25:32.963,,819,559,169
20:25:33.000,,951,545,132
20:25:33.037,,1004,509,120
20:25:33.074,,1383,617,51
20:25:33.111,,1109,666,52
20:25:33.148,,793,475,86
20:25:33.185,,889,383,-17
20:25:33.222,,1139,409,-152
20:25:33.259,,1224,393,-113
20:25:33.297,,1023,304,-60
20:25:33.334,,920,266,-94
20:25:33.371,,908,298,-116
20:25:33.408,,931,294,-154
20:25:33.445,,865,449,-146
20:25:33.482,,796,570,-201
20:25:33.519,,738,658,-150
20:25:33.556,,612,746,-64
20:25:33.593,,574,759,-74
20:25:33.630,,591,706,-57
20:25:33.667,,662,609,0
20:25:33.704,,883,487,-104
20:25:33.741,,846,517,-127
20:25:33.778,,886,630,-107
20:25:33.815,,722,772,-242
20:25:33.852,,682,628,-368
20:25:33.889,,726,505,-575
20:25:33.926,,560,550,-874
20:25:33.963,,253,709,-1274
20:25:34.000,,110,651,-1455
20:25:34.037,,139,426,-1326
20:25:34.074,,188,532,-1159
20:25:34.111,,169,468,-852
20:25:34.149,,157,431,-627
20:25:34.186,,199,962,-287
20:25:34.223,,108,297,-97
20:25:34.260,,-50,303,-80
20:25:34.297,,-262,373,-238
20:25:34.334,,-329,238,-655
20:25:34.371,,-373,634,-821
20:25:34.408,,-454,411,-1027
20:25:34.445,,-451,470,-1027
20:25:34.482,,-320,579,-939
20:25:34.519,,-193,580,-887
20:25:34.556,,-174,694,-723
20:25:34.593,,-258,663,-678
20:25:34.630,,-284,680,-510
20:25:34.667,,-306,625,-489
20:25:34.704,,-290,720,-496
20:25:34.741,,-225,707,-492
20:25:34.778,,-161,627,-467
20:25:34.815,,-111,589,-360
20:25:34.852,,-62,547,-235
20:25:34.889,,47,505,-177
20:25:34.926,,259,487,-141
20:25:34.963,,611,507,-148
20:25:35.001,,1046,436,69
20:25:35.038,,1849,487,379
20:25:35.075,,1997,429,50
20:25:35.112,,1420,763,-13
20:25:35.149,,803,-339,410
20:25:35.186,,880,-14,181
20:25:35.223,,1092,614,-246
20:25:35.260,,986,1046,-137
20:25:35.297,,641,164,-42
20:25:35.334,,405,434,113
20:25:35.371,,753,509,93
20:25:35.408,,932,582,95
20:25:35.445,,1069,513,46
20:25:35.482,,1079,461,56
20:25:35.519,,1438,486,83
20:25:35.556,,1163,539,83
20:25:35.593,,888,501,106
20:25:35.630,,833,435,42
20:25:35.667,,1012,483,-53
20:25:35.704,,1165,480,-43
20:25:35.741,,1143,418,-3
20:25:35.778,,1085,412,58
20:25:35.816,,1048,514,96
20:25:35.853,,1006,602,128
20:25:35.890,,876,644,175
20:25:35.927,,705,561,198
20:25:35.964,,542,465,137
20:25:36.001,,464,441,171
20:25:36.038,,453,416,195
20:25:36.075,,482,340,190
20:25:36.112,,701,281,113
20:25:36.149,,747,233,95
20:25:36.186,,959,317,198
20:25:36.223,,1164,377,210
20:25:36.260,,1270,390,103
20:25:36.297,,1310,479,171
20:25:36.334,,1181,448,153
20:25:36.371,,992,211,129
20:25:36.408,,958,176,14
20:25:36.445,,932,398,-155
20:25:36.482,,809,453,-262
20:25:36.519,,710,473,-181
20:25:36.556,,697,614,51
20:25:36.593,,789,606,180
20:25:36.630,,841,538,140
20:25:36.668,,914,452,129
20:25:36.705,,981,418,74
20:25:36.742,,1347,527,-30
20:25:36.779,,1319,618,-81
20:25:36.816,,900,563,29
20:25:36.853,,654,455,103
20:25:36.890,,870,490,-78
20:25:36.927,,1140,512,-230
20:25:36.964,,1047,443,-122
20:25:37.001,,943,318,-5
20:25:37.038,,940,386,137
20:25:37.075,,970,412,62
20:25:37.112,,942,565,43
20:25:37.149,,877,484,123
20:25:37.186,,787,397,109
20:25:37.223,,698,351,93
20:25:37.260,,672,369,127
20:25:37.297,,663,388,131
20:25:37.334,,865,348,74
20:25:37.371,,1127,389,-54
20:25:37.408,,1095,396,38
20:25:37.445,,1181,504,226
20:25:37.483,,1106,414,102
20:25:37.520,,929,296,75
20:25:37.557,,860,275,123
20:25:37.594,,857,336,131
20:25:37.631,,832,388,131
20:25:37.668,,804,418,115
20:25:37.705,,768,394,109
20:25:37.742,,749,406,104
20:25:37.779,,785,430,105
20:25:37.816,,831,436,95
20:25:37.853,,868,484,144
20:25:37.890,,957,455,139
20:25:37.927,,1012,444,98
20:25:37.964,,1414,505,45
20:25:38.001,,1268,563,11
20:25:38.038,,778,439,95
20:25:38.075,,692,388,97
20:25:38.112,,954,466,-90
20:25:38.149,,1172,486,-134
20:25:38.186,,953,376,-74
20:25:38.223,,874,328,-69
20:25:38.261,,920,517,-139
20:25:38.298,,990,746,-137
20:25:38.335,,933,669,-49
20:25:38.372,,912,747,1
20:25:38.409,,876,807,59
20:25:38.446,,730,753,175
20:25:38.483,,637,560,212
20:25:38.520,,579,482,230
20:25:38.557,,545,397,314
20:25:38.594,,620,265,224
20:25:38.631,,588,313,171
20:25:38.668,,583,336,338
20:25:38.705,,735,314,348
20:25:38.742,,885,271,184
20:25:38.779,,1035,215,125
20:25:38.816,,1114,315,112
20:25:38.853,,1026,429,163
20:25:38.890,,1045,454,162
20:25:38.927,,1007,503,137
20:25:38.964,,1006,517,179
20:25:39.001,,993,571,213
20:25:39.038,,909,545,215
20:25:39.075,,876,537,235
20:25:39.113,,931,582,204
20:25:39.150,,1015,560,143
20:25:39.187,,1086,522,122
20:25:39.224,,1321,612,71
20:25:39.261,,1129,531,53
20:25:39.298,,782,437,87
20:25:39.335,,763,508,58
20:25:39.372,,1004,522,-31
20:25:39.409,,1159,371,-45
20:25:39.446,,1078,317,-9
20:25:39.483,,1034,465,19
20:25:39.520,,1007,578,84
20:25:39.557,,970,536,199
20:25:39.594,,865,578,304
20:25:39.631,,717,571,330
20:25:39.668,,560,489,337
20:25:39.705,,445,417,344
20:25:39.742,,417,372,318
20:25:39.779,,500,347,280
20:25:39.816,,598,351,139
20:25:39.853,,768,428,217
20:25:39.891,,1079,440,312
20:25:39.928,,1154,448,288
20:25:39.965,,1210,237,171
20:25:40.002,,1201,199,26
20:25:40.039,,1012,384,114
20:25:40.076,,874,498,255
20:25:40.113,,857,541,261
20:25:40.150,,845,529,224
20:25:40.187,,834,403,236
20:25:40.224,,814,376,221
20:25:40.261,,802,417,203
20:25:40.298,,867,431,192
20:25:40.335,,945,468,138
20:25:40.372,,989,423,131
20:25:40.409,,1392,467,110
20:25:40.446,,1164,580,55
20:25:40.483,,749,463,152
20:25:40.520,,829,441,140
20:25:40.557,,1030,563,2
20:25:40.594,,984,471,80
20:25:40.631,,847,267,282
20:25:40.668,,839,301,262
20:25:40.706,,897,390,247
20:25:40.743,,862,417,196
20:25:40.780,,850,371,192
20:25:40.817,,906,299,173
20:25:40.854,,945,317,147
20:25:40.891,,1006,292,154
20:25:40.928,,1128,185,107
20:25:40.965,,1403,169,-71
20:25:41.002,,1196,379,104
20:25:41.039,,880,296,281
20:25:41.076,,730,243,295
20:25:41.113,,667,146,294
20:25:41.150,,759,290,242
20:25:41.187,,759,376,188
20:25:41.224,,747,349,198
20:25:41.261,,781,345,198
20:25:41.298,,807,390,156
20:25:41.335,,846,421,161
20:25:41.372,,873,435,182
20:25:41.409,,830,486,226
20:25:41.446,,908,438,263
20:25:41.483,,996,456,224
20:25:41.520,,1084,480,185
20:25:41.558,,1430,595,127
20:25:41.595,,960,529,94
20:25:41.632,,708,376,176
20:25:41.669,,875,427,60
20:25:41.706,,1098,468,-41
20:25:41.743,,964,394,9
20:25:41.780,,848,363,45
20:25:41.817,,867,511,-29
20:25:41.854,,898,609,-70
20:25:41.891,,886,638,-99
20:25:41.928,,796,636,-6
20:25:41.965,,790,654,-18
20:25:42.002,,756,689,-10
20:25:42.039,,727,616,5
20:25:42.076,,758,551,20
20:25:42.113,,898,481,-12
20:25:42.150,,894,481,-103
20:25:42.187,,750,545,64
20:25:42.224,,734,517,178
20:25:42.261,,734,362,72
20:25:42.298,,780,213,89
20:25:42.335,,853,269,133
20:25:42.372,,845,330,136
20:25:42.409,,830,332,127
20:25:42.447,,881,373,139
20:25:42.484,,925,404,115
20:25:42.521,,956,448,142
20:25:42.558,,946,466,200
20:25:42.595,,924,508,226
20:25:42.632,,913,530,256
20:25:42.669,,909,510,176
20:25:42.706,,1062,483,66
20:25:42.743,,1574,631,-38
20:25:42.780,,1025,619,3
20:25:42.817,,856,453,-32
20:25:42.854,,1010,460,-180
20:25:42.891,,979,539,-183
20:25:42.928,,907,382,-197
20:25:42.965,,931,438,-267
20:25:43.002,,1064,539,-347
20:25:43.039,,1134,588,-359
20:25:43.076,,1100,528,-307
20:25:43.113,,1025,529,-222
20:25:43.150,,965,521,-147
20:25:43.187,,912,449,-38
20:25:43.224,,884,358,52
20:25:43.261,,813,321,164
20:25:43.299,,825,224,225
20:25:43.336,,959,229,36
20:25:43.373,,809,366,409
20:25:43.410,,928,353,511
20:25:43.447,,953,289,327
20:25:43.484,,960,72,235
20:25:43.521,,905,139,183
20:25:43.558,,894,373,189
20:25:43.595,,897,514,194
20:25:43.632,,913,586,199
20:25:43.669,,932,635,207
20:25:43.706,,925,652,117
20:25:43.743,,881,601,57
20:25:43.780,,906,361,59
20:25:43.817,,981,391,27
20:25:43.854,,1298,569,6
20:25:43.891,,1364,685,-77
20:25:43.928,,746,466,65
20:25:43.965,,859,422,44
20:25:44.002,,1011,630,-141
20:25:44.039,,939,502,-122
20:25:44.076,,953,323,-73
20:25:44.113,,952,368,-4
20:25:44.151,,935,423,123
20:25:44.188,,947,409,213
20:25:44.225,,977,367,277
20:25:44.262,,1009,281,168
20:25:44.299,,1031,222,149
20:25:44.336,,1031,235,168
20:25:44.373,,974,196,181
20:25:44.410,,1144,52,-136
20:25:44.447,,912,299,-131
20:25:44.484,,750,463,185
20:25:44.521,,932,368,176
20:25:44.558,,955,355,102
20:25:44.595,,800,219,108
20:25:44.632,,707,236,88
20:25:44.669,,689,358,170
20:25:44.706,,703,402,221
20:25:44.743,,813,423,217
20:25:44.780,,940,450,201
20:25:44.817,,1020,471,180
20:25:44.854,,1098,532,179
20:25:44.891,,1156,573,163
20:25:44.928,,1121,493,219
20:25:44.965,,1569,598,92
20:25:45.002,,939,701,71
20:25:45.040,,664,461,226
20:25:45.077,,990,419,86
20:25:45.114,,1243,628,-49
20:25:45.151,,1078,506,17
20:25:45.188,,982,332,83
20:25:45.225,,1002,413,126
20:25:45.262,,1024,510,99
20:25:45.299,,945,364,176
20:25:45.336,,801,335,212
20:25:45.373,,690,211,300
20:25:45.410,,717,214,348
20:25:45.447,,776,170,499
20:25:45.484,,818,-1,543
20:25:45.521,,973,152,423
20:25:45.558,,767,242,419
20:25:45.595,,733,241,598
20:25:45.632,,811,124,553
20:25:45.669,,931,238,532
20:25:45.706,,918,526,482
20:25:45.743,,856,354,366
20:25:45.780,,732,261,453
20:25:45.817,,706,107,624
20:25:45.855,,649,24,705
20:25:45.892,,585,172,773
20:25:45.929,,577,233,915
20:25:45.966,,604,31,954
20:25:46.003,,577,110,836
20:25:46.040,,638,255,830
20:25:46.077,,669,566,776
20:25:46.114,,934,657,711
20:25:46.151,,809,533,700
20:25:46.188,,891,317,670
20:25:46.225,,951,224,649
20:25:46.262,,813,113,710
20:25:46.299,,754,54,739
20:25:46.336,,776,11,748
20:25:46.373,,733,33,705
20:25:46.410,,619,-6,663
20:25:46.447,,568,-1,616
20:25:46.484,,577,28,561
20:25:46.521,,641,35,558
20:25:46.558,,738,67,520
20:25:46.595,,878,88,523
20:25:46.632,,1233,207,452
20:25:46.670,,970,233,428
20:25:46.707,,920,131,626
20:25:46.744,,1019,142,601
20:25:46.781,,952,125,513
20:25:46.818,,831,151,515
20:25:46.855,,742,279,583
20:25:46.892,,629,191,435
20:25:46.929,,621,82,336
20:25:46.966,,741,65,364
20:25:47.003,,811,150,453
20:25:47.040,,872,206,484
20:25:47.077,,903,240,403
20:25:47.114,,1088,416,315
20:25:47.151,,1145,481,181
20:25:47.188,,1512,609,48
20:25:47.225,,1219,702,0
20:25:47.262,,752,511,142
20:25:47.299,,846,480,69
20:25:47.336,,1001,542,-41
20:25:47.373,,983,505,43
20:25:47.410,,932,351,90
20:25:47.447,,999,370,201
20:25:47.485,,1056,497,131
20:25:47.522,,1015,620,195
20:25:47.559,,906,447,274
20:25:47.596,,772,373,265
20:25:47.633,,683,364,305
20:25:47.670,,666,320,321
20:25:47.707,,688,256,327
20:25:47.744,,914,230,227
20:25:47.781,,889,283,219
20:25:47.818,,861,270,436
20:25:47.855,,1017,236,396
20:25:47.892,,1127,175,174
20:25:47.929,,1041,110,94
20:25:47.966,,970,288,138
20:25:48.003,,877,360,202
20:25:48.040,,807,295,130
20:25:48.077,,840,313,103
20:25:48.114,,913,398,63
20:25:48.151,,973,418,90
20:25:48.188,,996,447,127
20:25:48.225,,1031,535,197
20:25:48.262,,1046,517,178
20:25:48.299,,1063,530,146
20:25:48.337,,1281,601,73
20:25:48.374,,1249,762,55
20:25:48.411,,798,542,203
20:25:48.448,,714,405,189
20:25:48.485,,994,543,-16
20:25:48.522,,1160,559,-54
20:25:48.559,,1064,401,33
20:25:48.596,,1159,434,97
20:25:48.633,,1308,462,-78
20:25:48.670,,1217,797,-15
20:25:48.707,,1102,795,42
20:25:48.744,,861,569,77
20:25:48.781,,620,291,126
20:25:48.818,,510,210,244
20:25:48.855,,487,149,344
20:25:48.892,,591,67,279
20:25:48.929,,707,112,234
20:25:48.966,,795,147,388
20:25:49.003,,1025,198,364
20:25:49.040,,1268,212,236
20:25:49.077,,1338,212,76
20:25:49.114,,1238,282,-65
20:25:49.152,,1136,474,113
20:25:49.189,,1035,492,131
20:25:49.226,,966,501,93
20:25:49.263,,928,508,58
20:25:49.300,,917,551,62
20:25:49.337,,885,572,71
20:25:49.374,,850,614,148
20:25:49.411,,857,664,214
20:25:49.448,,988,639,199
20:25:49.485,,1142,593,159
20:25:49.522,,1409,665,38
20:25:49.559,,937,626,111
20:25:49.596,,781,461,158
20:25:49.633,,998,416,-41
20:25:49.670,,1188,449,-96
20:25:49.707,,1087,456,-28
20:25:49.744,,1072,358,-27
20:25:49.781,,1118,477,-34
20:25:49.818,,1165,618,-26
20:25:49.855,,1148,552,105
20:25:49.892,,1011,606,242
20:25:49.930,,942,749,309
20:25:49.967,,799,588,320
20:25:50.004,,541,319,335
20:25:50.041,,392,246,380
20:25:50.078,,518,215,389
20:25:50.115,,488,177,340
20:25:50.152,,685,241,344
20:25:50.189,,785,291,309
20:25:50.226,,858,221,253
20:25:50.263,,992,180,135
20:25:50.300,,1126,307,34
20:25:50.337,,1191,330,57
20:25:50.374,,1272,302,106
20:25:50.411,,1367,271,62
20:25:50.448,,1361,399,-65
20:25:50.485,,1274,741,16
20:25:50.522,,1034,912,148
20:25:50.559,,859,807,159
20:25:50.596,,966,639,83
20:25:50.633,,1273,669,-34
20:25:50.670,,1197,662,-88
20:25:50.707,,982,593,107
20:25:50.744,,765,614,140
20:25:50.781,,780,587,-29
20:25:50.818,,1050,485,-177
20:25:50.856,,1095,360,-144
20:25:50.893,,1114,283,-76
20:25:50.930,,1180,321,-58
20:25:50.967,,1237,442,-60
20:25:51.004,,1249,498,34
20:25:51.041,,1118,468,140
20:25:51.078,,967,384,247
20:25:51.115,,817,356,290
20:25:51.152,,724,329,411
20:25:51.189,,716,233,476
20:25:51.226,,825,48,301
20:25:51.263,,690,82,376
20:25:51.300,,740,206,528
20:25:51.337,,827,150,423
20:25:51.374,,925,110,297
20:25:51.411,,1029,128,168
20:25:51.448,,1091,260,96
20:25:51.485,,1045,339,118
20:25:51.522,,984,367,58
20:25:51.559,,989,431,107
20:25:51.596,,986,473,110
20:25:51.633,,983,461,135
20:25:51.670,,944,437,163
20:25:51.707,,891,470,219
20:25:51.744,,889,563,301
20:25:51.781,,1075,595,375
20:25:51.819,,1037,601,373
20:25:51.856,,1308,735,265
20:25:51.893,,1153,768,138
20:25:51.930,,912,587,202
20:25:51.967,,770,434,225
20:25:52.004,,1030,413,-7
20:25:52.041,,1314,430,-149
20:25:52.078,,1254,402,-91
20:25:52.115,,1154,330,-70
20:25:52.152,,1118,394,-134
20:25:52.189,,1109,462,-194
20:25:52.226,,1021,458,-111
20:25:52.263,,878,416,11
20:25:52.300,,768,396,107
20:25:52.337,,696,398,176
20:25:52.374,,687,363,305
20:25:52.411,,696,250,396
20:25:52.448,,824,44,297
20:25:52.485,,1008,3,221
20:25:52.522,,890,95,386
20:25:52.559,,1007,249,470
20:25:52.596,,1111,267,382
20:25:52.633,,1160,247,273
20:25:52.670,,1172,208,130
20:25:52.708,,1080,289,130
20:25:52.745,,946,355,202
20:25:52.782,,874,407,204
20:25:52.819,,845,467,221
20:25:52.856,,826,468,191
20:25:52.893,,778,445,255
20:25:52.930,,776,441,279
20:25:52.967,,796,469,298
20:25:53.004,,943,419,254
20:25:53.041,,1021,419,183
20:25:53.078,,1460,523,76
20:25:53.115,,1050,573,128
20:25:53.152,,704,439,211
20:25:53.189,,855,403,99
20:25:53.226,,1141,528,-76
20:25:53.263,,1154,455,-45
20:25:53.300,,1052,319,25
20:25:53.337,,1059,357,47
20:25:53.374,,1097,455,39
20:25:53.411,,1061,533,19
20:25:53.448,,953,647,102
20:25:53.485,,866,594,90
20:25:53.523,,748,506,108
20:25:53.560,,640,467,127
20:25:53.597,,590,415,137
20:25:53.634,,600,376,163
20:25:53.671,,757,325,59
20:25:53.708,,658,349,72
20:25:53.745,,754,448,266
20:25:53.782,,913,399,274
20:25:53.819,,1066,332,134
20:25:53.856,,1145,293,49
20:25:53.893,,1109,389,48
20:25:53.930,,961,387,144
20:25:53.967,,898,332,206
20:25:54.004,,913,409,256
20:25:54.041,,911,377,287
20:25:54.078,,832,332,315
20:25:54.115,,830,358,312
20:25:54.152,,819,383,282
20:25:54.189,,887,390,279
20:25:54.226,,1023,394,224
20:25:54.263,,1054,397,194
20:25:54.300,,1350,422,129
20:25:54.337,,1211,502,117
20:25:54.375,,990,432,150
20:25:54.412,,820,409,193
20:25:54.449,,995,447,75
20:25:54.486,,1091,408,66
20:25:54.523,,976,319,119
20:25:54.560,,965,311,120
20:25:54.597,,954,410,153
20:25:54.634,,939,406,175
20:25:54.671,,816,274,210
20:25:54.708,,773,190,163
20:25:54.745,,762,233,150
20:25:54.782,,790,265,159
20:25:54.819,,872,280,130
20:25:54.856,,1034,284,66
20:25:54.893,,1358,279,-137
20:25:54.930,,1179,398,-51
20:25:54.967,,1097,532,247
20:25:55.004,,977,395,222
20:25:55.041,,868,260,135
20:25:55.078,,780,193,143
20:25:55.115,,739,272,211
20:25:55.152,,700,381,258
20:25:55.190,,684,406,314
20:25:55.227,,722,386,312
20:25:55.264,,815,423,349
20:25:55.301,,879,362,319
20:25:55.338,,892,303,298
20:25:55.375,,1005,291,293
20:25:55.412,,1077,309,218
20:25:55.449,,1240,342,171
20:25:55.486,,1405,538,144
20:25:55.523,,800,416,166
20:25:55.560,,714,285,181
20:25:55.597,,971,394,25
20:25:55.634,,1116,551,-8
20:25:55.671,,935,378,81
20:25:55.708,,851,311,126
20:25:55.745,,886,521,83
20:25:55.782,,922,612,57
20:25:55.819,,862,672,78
20:25:55.856,,786,674,90
20:25:55.893,,716,641,69
20:25:55.930,,625,604,82
20:25:55.967,,546,579,108
20:25:56.005,,536,556,154
20:25:56.042,,656,486,145
20:25:56.079,,772,461,20
20:25:56.116,,720,471,130
20:25:56.153,,811,468,287
20:25:56.190,,903,360,204
20:25:56.227,,981,244,159
20:25:56.264,,1027,175,79
20:25:56.301,,972,286,155
20:25:56.338,,909,342,234
20:25:56.375,,915,370,214
20:25:56.412,,916,385,217
20:25:56.449,,938,347,134
20:25:56.486,,918,389,51
20:25:56.523,,843,660,-16
20:25:56.560,,764,821,-50
20:25:56.597,,788,795,-4
20:25:56.634,,920,571,-44
20:25:56.671,,1289,544,-36
20:25:56.708,,1321,675,-72
20:25:56.745,,1016,579,-60
20:25:56.783,,749,424,48
20:25:56.820,,740,359,-35
20:25:56.857,,910,377,-115
20:25:56.894,,978,426,-115
20:25:56.931,,919,358,-105
20:25:56.968,,864,701,-127
20:25:57.005,,1030,1020,-214
20:25:57.042,,1013,425,200
20:25:57.079,,842,481,580
20:25:57.116,,641,502,507
20:25:57.153,,482,263,499
20:25:57.190,,384,239,555
20:25:57.227,,333,214,541
20:25:57.264,,346,196,524
20:25:57.301,,500,279,460
20:25:57.338,,530,211,300
20:25:57.375,,713,211,247
20:25:57.412,,960,361,379
20:25:57.449,,1177,384,299
20:25:57.486,,1258,298,41
20:25:57.523,,1157,280,24
20:25:57.561,,1020,278,149
20:25:57.598,,985,338,212
20:25:57.635,,986,386,251
20:25:57.672,,937,420,238
20:25:57.709,,864,393,216
20:25:57.746,,843,394,202
20:25:57.783,,829,399,197
20:25:57.820,,790,395,198
20:25:57.857,,846,417,213
20:25:57.894,,1000,389,135
20:25:57.931,,1444,442,42
20:25:57.968,,1168,492,76
20:25:58.005,,938,371,104
20:25:58.042,,796,353,85
20:25:58.079,,834,383,-27
20:25:58.116,,1003,376,-63
20:25:58.153,,1024,420,-46
20:25:58.190,,959,423,-25
20:25:58.227,,967,398,0
20:25:58.264,,977,529,11
20:25:58.301,,935,592,73
20:25:58.338,,887,633,128
20:25:58.376,,792,700,220
20:25:58.413,,685,650,298
20:25:58.450,,589,561,311
20:25:58.487,,522,544,312
20:25:58.524,,523,512,327
20:25:58.561,,547,450,336
20:25:58.598,,637,397,237
20:25:58.635,,629,372,188
20:25:58.672,,704,433,205
20:25:58.709,,794,471,229
20:25:58.746,,972,367,264
20:25:58.783,,1094,263,186
20:25:58.820,,1027,275,144
20:25:58.857,,931,276,109
20:25:58.894,,963,299,22
20:25:58.931,,1050,367,-36
20:25:58.968,,930,402,71
20:25:59.005,,737,502,280
20:25:59.042,,794,506,398
20:25:59.079,,797,589,328
20:25:59.116,,907,558,328
20:25:59.154,,1107,404,194
20:25:59.191,,1129,390,225
20:25:59.228,,1452,406,185
20:25:59.265,,1160,497,65
20:25:59.302,,835,431,118
20:25:59.339,,639,393,171
20:25:59.376,,777,376,8
20:25:59.413,,1038,439,-59
20:25:59.450,,1018,449,-51
20:25:59.487,,999,441,-55
20:25:59.524,,1005,430,-47
20:25:59.561,,1004,418,-51
20:25:59.598,,991,479,-15
20:25:59.635,,900,536,227
20:25:59.672,,885,555,310
20:25:59.709,,812,587,226
20:25:59.746,,765,524,367
20:25:59.783,,666,421,399
20:25:59.820,,628,364,380
20:25:59.857,,713,329,330
20:25:59.894,,812,339,230
20:25:59.932,,782,367,269
20:25:59.969,,886,357,263
20:26:00.006,,940,240,47
20:26:00.043,,960,246,-35
20:26:00.080,,964,294,-33
20:26:00.117,,820,400,87
20:26:00.154,,797,405,175
20:26:00.191,,871,442,215
20:26:00.228,,920,471,274
20:26:00.265,,947,492,343
20:26:00.302,,914,566,377
20:26:00.339,,875,571,382
20:26:00.376,,1000,574,341
20:26:00.413,,1128,536,247
20:26:00.450,,1455,545,49
20:26:00.487,,1111,704,39
20:26:00.524,,791,702,130
20:26:00.561,,865,618,-11
20:26:00.598,,1047,529,-145
20:26:00.635,,1070,454,-74
20:26:00.673,,1079,378,-24
20:26:00.710,,1114,399,-35
20:26:00.747,,1218,442,-46
20:26:00.784,,1215,418,-72
20:26:00.821,,1046,493,41
20:26:00.858,,900,515,185
20:26:00.895,,727,340,155
20:26:00.932,,608,279,176
20:26:00.969,,544,310,238
20:26:01.006,,534,268,263
20:26:01.043,,795,249,105
20:26:01.080,,638,259,260
20:26:01.117,,840,381,572
20:26:01.154,,1186,422,453
20:26:01.191,,1227,222,232
20:26:01.228,,1075,78,113
20:26:01.265,,976,287,177
20:26:01.302,,952,435,212
20:26:01.339,,928,428,210
20:26:01.376,,828,411,219
20:26:01.413,,746,407,163
20:26:01.451,,714,390,88
20:26:01.488,,704,402,116
20:26:01.525,,776,497,142
20:26:01.562,,941,540,129
20:26:01.599,,1055,521,142
20:26:01.636,,1582,642,79
20:26:01.673,,1012,592,114
20:26:01.710,,717,466,305
20:26:01.747,,851,474,170
20:26:01.784,,1114,560,-45
20:26:01.821,,1098,438,-12
20:26:01.858,,1004,332,84
20:26:01.895,,1059,248,179
20:26:01.932,,1093,310,60
20:26:01.969,,1037,1051,-355
20:26:02.006,,883,1085,-218
20:26:02.043,,775,765,-158
20:26:02.080,,566,525,-127
20:26:02.117,,434,460,-119
20:26:02.154,,417,410,-139
20:26:02.191,,519,452,-42
20:26:02.229,,858,351,-169
20:26:02.266,,953,318,-242
20:26:02.303,,888,299,10
20:26:02.340,,994,300,83
20:26:02.377,,946,322,59
20:26:02.414,,1062,248,153
20:26:02.451,,1275,360,219
20:26:02.488,,1473,481,125
20:26:02.525,,1475,595,38
20:26:02.562,,1056,717,-12
20:26:02.599,,860,407,386
20:26:02.636,,859,446,100
20:26:02.673,,828,860,-271
20:26:02.710,,694,738,-309
20:26:02.747,,828,611,-96
20:26:02.784,,1033,467,7
20:26:02.821,,1381,487,-141
20:26:02.858,,1086,592,-225
20:26:02.895,,976,505,-277
20:26:02.933,,1062,386,-294
20:26:02.970,,1212,303,-215
20:26:03.007,,1119,289,-156
20:26:03.044,,1007,321,-152
20:26:03.081,,1040,432,-180
20:26:03.118,,1157,603,-224
20:26:03.155,,1241,523,-144
20:26:03.192,,1083,429,81
20:26:03.229,,810,382,118
20:26:03.266,,622,386,129
20:26:03.303,,474,448,167
20:26:03.340,,355,244,257
20:26:03.377,,341,165,288
20:26:03.414,,746,214,215
20:26:03.451,,1021,496,-31
20:26:03.488,,894,986,-336
20:26:03.525,,700,1207,-388
20:26:03.562,,667,1000,-352
20:26:03.599,,661,695,-309
20:26:03.637,,617,552,-329
20:26:03.674,,573,543,-161
20:26:03.711,,534,570,-41
20:26:03.748,,571,507,-25
20:26:03.785,,665,451,17
20:26:03.822,,745,430,80
20:26:03.859,,824,450,124
20:26:03.896,,934,474,146
20:26:03.933,,1080,433,84
20:26:03.970,,1297,397,10
20:26:04.007,,1680,598,19
20:26:04.044,,918,594,115
20:26:04.081,,755,426,188
20:26:04.118,,903,460,-25
20:26:04.155,,1021,686,-69
20:26:04.192,,965,633,-50
20:26:04.229,,1023,506,7
20:26:04.266,,1079,493,-11
20:26:04.303,,1084,674,-82
20:26:04.340,,992,739,-69
20:26:04.377,,859,593,-17
20:26:04.415,,721,491,-4
20:26:04.452,,629,559,-21
20:26:04.489,,582,580,10
20:26:04.526,,498,401,90
20:26:04.563,,514,321,137
20:26:04.600,,688,338,69
20:26:04.637,,656,289,188
20:26:04.674,,868,261,351
20:26:04.711,,1250,242,144
20:26:04.748,,1299,192,2
20:26:04.785,,1195,229,89
20:26:04.822,,1062,324,119
20:26:04.859,,974,369,135
20:26:04.896,,955,413,94
20:26:04.933,,907,426,90
20:26:04.970,,954,399,114
20:26:05.007,,963,437,95
20:26:05.044,,1023,501,124
20:26:05.081,,1094,566,79
20:26:05.118,,1119,591,3
20:26:05.156,,1556,676,-137
20:26:05.193,,981,668,-40
20:26:05.230,,716,513,101
20:26:05.267,,825,446,-54
20:26:05.304,,1129,495,-162
20:26:05.341,,1134,477,-81
20:26:05.378,,1081,301,-90
20:26:05.415,,1098,428,-54
20:26:05.452,,1091,356,-103
20:26:05.489,,1072,453,-11
20:26:05.526,,979,409,55
20:26:05.563,,908,385,63
20:26:05.600,,827,323,58
20:26:05.637,,751,273,87
20:26:05.674,,743,278,164
20:26:05.711,,769,296,249
20:26:05.748,,968,170,139
20:26:05.785,,1063,244,69
20:26:05.822,,799,296,210
20:26:05.860,,1037,350,242
20:26:05.897,,1237,421,73
20:26:05.934,,1163,380,-15
20:26:05.971,,1007,405,78
20:26:06.008,,841,308,127
20:26:06.045,,798,254,79
20:26:06.082,,839,346,114
20:26:06.119,,811,436,109
20:26:06.156,,797,682,276
20:26:06.193,,714,492,267
20:26:06.230,,1026,414,76
20:26:06.267,,1417,547,-67
20:26:06.304,,1579,657,-79
20:26:06.341,,1018,450,113
20:26:06.378,,838,276,143
20:26:06.415,,1102,393,-75
20:26:06.452,,1250,533,-88
20:26:06.489,,1130,278,28
20:26:06.526,,967,253,28
20:26:06.564,,913,354,18
20:26:06.601,,862,420,22
20:26:06.638,,817,380,35
20:26:06.675,,773,306,91
20:26:06.712,,786,395,140
20:26:06.749,,839,408,265
20:26:06.786,,933,338,282
20:26:06.823,,1181,101,-62
20:26:06.860,,1077,170,106
20:26:06.897,,1179,453,393
20:26:06.934,,1127,328,284
20:26:06.971,,1042,232,145
20:26:07.008,,1026,205,26
20:26:07.045,,928,295,-24
20:26:07.082,,845,303,-37
20:26:07.119,,808,357,30
20:26:07.156,,777,355,48
20:26:07.193,,793,274,48
20:26:07.230,,713,362,-67
20:26:07.267,,667,549,102
20:26:07.305,,700,568,138
20:26:07.342,,747,606,196
20:26:07.379,,906,635,222
20:26:07.416,,1282,589,138
20:26:07.453,,1495,434,13
20:26:07.490,,1332,337,37
20:26:07.527,,1059,408,88
20:26:07.564,,968,436,48
20:26:07.601,,1088,382,-8
20:26:07.638,,1075,360,68
20:26:07.675,,930,302,57
20:26:07.712,,884,327,43
20:26:07.749,,851,341,94
20:26:07.786,,840,316,196
20:26:07.823,,867,266,194
20:26:07.860,,913,228,138
20:26:07.897,,935,248,179
20:26:07.934,,932,297,245
20:26:07.971,,1023,250,269
20:26:08.009,,1313,175,20
20:26:08.046,,994,225,89
20:26:08.083,,1211,410,321
20:26:08.120,,1357,457,318
20:26:08.157,,1017,249,140
20:26:08.194,,727,143,97
20:26:08.231,,729,236,49
20:26:08.268,,752,391,-20
20:26:08.305,,756,490,58
20:26:08.342,,773,522,137
20:26:08.379,,829,524,190
20:26:08.416,,795,530,309
20:26:08.453,,873,461,337
20:26:08.490,,1003,373,288
20:26:08.527,,1168,342,249
20:26:08.564,,1393,351,230
20:26:08.601,,1671,426,262
20:26:08.638,,1364,314,169
20:26:08.675,,1423,226,-11
20:26:08.713,,1401,244,-116
20:26:08.750,,1208,329,-17
20:26:08.787,,926,236,-23
20:26:08.824,,694,192,-95
20:26:08.861,,654,226,-92
20:26:08.898,,610,184,-4
20:26:08.935,,574,182,72
20:26:08.972,,602,298,61
20:26:09.009,,653,518,91
20:26:09.046,,680,617,112
20:26:09.083,,654,611,128
20:26:09.120,,648,635,202
20:26:09.157,,726,549,273
20:26:09.194,,878,537,107
20:26:09.231,,853,509,47
20:26:09.268,,809,585,181
20:26:09.305,,798,518,168
20:26:09.342,,911,467,154
20:26:09.379,,1007,360,87
20:26:09.417,,947,290,50
20:26:09.454,,880,326,99
20:26:09.491,,909,381,111
20:26:09.528,,932,445,138
20:26:09.565,,864,450,133
20:26:09.602,,837,423,148
20:26:09.639,,808,399,144
20:26:09.676,,815,400,169
20:26:09.713,,868,399,175
20:26:09.750,,1016,391,142
20:26:09.787,,1364,449,95
20:26:09.824,,1441,468,114
20:26:09.861,,1224,403,132
20:26:09.898,,839,343,54
20:26:09.935,,777,314,-49
20:26:09.972,,833,392,5
20:26:10.009,,856,606,266
20:26:10.046,,739,686,-108
20:26:10.083,,875,566,-431
20:26:10.121,,1067,452,-388
20:26:10.158,,1086,202,-89
20:26:10.195,,984,117,172
20:26:10.232,,962,358,203
20:26:10.269,,864,490,262
20:26:10.306,,672,579,238
20:26:10.343,,636,778,245
20:26:10.380,,622,695,317
20:26:10.417,,719,344,166
20:26:10.454,,656,310,155
20:26:10.491,,869,389,276
20:26:10.528,,970,289,155
20:26:10.565,,919,112,63
20:26:10.602,,965,125,76
20:26:10.639,,929,315,125
20:26:10.676,,838,428,131
20:26:10.713,,827,449,124
20:26:10.750,,899,396,218
20:26:10.788,,950,365,155
20:26:10.825,,1004,392,229
20:26:10.862,,965,407,212
20:26:10.899,,884,469,246
20:26:10.936,,840,476,280
20:26:10.973,,896,437,239
20:26:11.010,,1149,384,188
20:26:11.047,,1460,516,212
20:26:11.084,,1328,389,131
20:26:11.121,,1031,297,147
20:26:11.158,,978,366,78
20:26:11.195,,959,494,154
20:26:11.232,,872,484,16
20:26:11.269,,893,478,-181
20:26:11.306,,883,459,-155
20:26:11.343,,820,502,-51
20:26:11.380,,750,591,86
20:26:11.417,,646,483,58
20:26:11.455,,537,665,-1
20:26:11.492,,474,695,191
20:26:11.529,,429,788,256
20:26:11.566,,415,815,267
20:26:11.603,,461,600,328
20:26:11.640,,613,315,269
20:26:11.677,,768,334,121
20:26:11.714,,1063,651,240
20:26:11.751,,1053,635,290
20:26:11.788,,914,647,215
20:26:11.825,,922,514,113
20:26:11.862,,962,279,100
20:26:11.899,,895,80,123
20:26:11.936,,926,178,135
20:26:11.973,,937,356,210
20:26:12.010,,841,441,175
20:26:12.047,,787,446,157
20:26:12.084,,741,520,149
20:26:12.121,,773,507,269
20:26:12.158,,888,510,323
20:26:12.196,,970,466,392
20:26:12.233,,993,289,301
20:26:12.270,,1069,157,183
20:26:12.307,,1404,259,91
20:26:12.344,,1311,505,120
20:26:12.381,,1097,460,99
20:26:12.418,,887,376,17
20:26:12.455,,885,441,-9
20:26:12.492,,844,406,-34
20:26:12.529,,773,400,-48
20:26:12.566,,840,400,-60
20:26:12.603,,885,432,-63
20:26:12.640,,903,480,7
20:26:12.677,,805,634,112
20:26:12.714,,719,652,392
20:26:12.751,,667,535,443
20:26:12.788,,711,437,430
20:26:12.825,,661,419,382
20:26:12.862,,627,410,336
20:26:12.899,,674,125,263
20:26:12.937,,876,73,240
20:26:12.974,,1274,322,420
20:26:13.011,,1288,307,364
20:26:13.048,,1077,150,94
20:26:13.085,,870,72,63
20:26:13.122,,793,147,49
20:26:13.159,,760,296,-23
20:26:13.196,,820,412,-2
20:26:13.233,,862,482,92
20:26:13.270,,833,458,194
20:26:13.307,,860,391,286
20:26:13.344,,938,345,289
20:26:13.381,,1031,315,179
20:26:13.418,,1047,277,185
20:26:13.455,,1121,342,293
20:26:13.492,,1439,498,384
20:26:13.529,,1162,587,381
20:26:13.566,,935,425,281
20:26:13.603,,989,365,90
20:26:13.640,,958,560,93
20:26:13.678,,806,547,140
20:26:13.715,,829,384,141
20:26:13.752,,917,321,106
20:26:13.789,,943,426,69
20:26:13.826,,943,524,107
20:26:13.863,,863,447,122
20:26:13.900,,825,329,183
20:26:13.937,,905,333,250
20:26:13.974,,995,398,304
20:26:14.011,,1110,248,220
20:26:14.048,,1048,206,88
20:26:14.085,,887,292,174
20:26:14.122,,786,269,195
20:26:14.159,,770,238,327
20:26:14.196,,730,190,240
20:26:14.233,,807,244,141
20:26:14.270,,842,290,201
20:26:14.307,,816,339,244
20:26:14.344,,876,304,252
20:26:14.381,,972,343,169
20:26:14.418,,943,420,124
20:26:14.456,,998,550,228
20:26:14.493,,969,575,243
20:26:14.530,,983,491,254
20:26:14.567,,1058,382,208
20:26:14.604,,1143,428,159
20:26:14.641,,1329,625,99
20:26:14.678,,1120,572,69
20:26:14.715,,1098,344,37
20:26:14.752,,909,454,60
20:26:14.789,,913,535,73
20:26:14.826,,974,437,5
20:26:14.863,,950,377,3
20:26:14.900,,998,446,-8
20:26:14.937,,1176,539,-30
20:26:14.974,,1085,506,116
20:26:15.011,,946,532,230
20:26:15.048,,850,517,218
20:26:15.085,,731,455,240
20:26:15.122,,687,373,261
20:26:15.159,,681,330,290
20:26:15.196,,680,289,336
20:26:15.234,,780,230,313
20:26:15.271,,856,145,207
20:26:15.308,,832,145,353
20:26:15.345,,900,157,349
20:26:15.382,,889,155,214
20:26:15.419,,998,241,190
20:26:15.456,,1106,294,222
20:26:15.493,,1029,169,291
20:26:15.530,,1004,139,151
20:26:15.567,,1034,335,262
20:26:15.604,,996,508,298
20:26:15.641,,869,591,336
20:26:15.678,,874,509,303
20:26:15.715,,844,569,308
20:26:15.752,,847,542,270
20:26:15.789,,915,500,250
20:26:15.826,,1047,431,200
20:26:15.863,,1198,435,129
20:26:15.900,,1429,569,121
20:26:15.938,,1346,479,124
20:26:15.975,,980,413,103
20:26:16.012,,944,409,-39
20:26:16.049,,1120,414,-38
20:26:16.086,,1115,326,11
20:26:16.123,,1001,198,-29
20:26:16.160,,921,305,-47
20:26:16.197,,908,300,-29
20:26:16.234,,846,254,-23
20:26:16.271,,704,241,-25
20:26:16.308,,528,388,13
20:26:16.345,,406,1234,468
20:26:16.382,,706,1521,357
20:26:16.419,,608,388,1011
20:26:16.456,,541,-182,1165
20:26:16.493,,786,553,484
20:26:16.530,,883,921,287
20:26:16.567,,1180,738,39
20:26:16.604,,1105,601,-247
20:26:16.642,,987,355,-281
20:26:16.679,,979,261,-160
20:26:16.716,,875,216,-194
20:26:16.753,,695,275,-95
20:26:16.790,,608,366,127
20:26:16.827,,654,354,142
20:26:16.864,,830,351,268
20:26:16.901,,877,361,479
20:26:16.938,,973,327,516
20:26:16.975,,980,319,614
20:26:17.012,,968,349,628
20:26:17.049,,954,340,564
20:26:17.086,,1031,365,449
20:26:17.123,,1053,408,369
20:26:17.160,,1375,489,251
20:26:17.197,,1356,592,196
20:26:17.234,,1061,429,217
20:26:17.271,,780,299,231
20:26:17.309,,833,343,80
20:26:17.346,,963,435,21
20:26:17.383,,911,426,69
20:26:17.420,,825,357,37
20:26:17.457,,805,461,30
20:26:17.494,,844,555,70
20:26:17.531,,826,612,46
20:26:17.568,,787,716,71
20:26:17.605,,717,672,-54
20:26:17.642,,681,548,72
20:26:17.679,,628,361,220
20:26:17.716,,537,313,223
20:26:17.753,,504,281,342
20:26:17.790,,704,200,404
20:26:17.827,,967,132,446
20:26:17.864,,1095,-35,718
20:26:17.901,,1375,-67,597
20:26:17.938,,1459,42,338
20:26:17.975,,1273,175,244
20:26:18.012,,1070,267,176
20:26:18.049,,955,330,104
20:26:18.087,,837,329,-66
20:26:18.124,,783,452,-27
20:26:18.161,,758,540,27
20:26:18.198,,749,523,4
20:26:18.235,,717,507,134
20:26:18.272,,758,466,148
20:26:18.309,,883,420,79
20:26:18.346,,848,434,106
20:26:18.383,,1356,535,32
20:26:18.420,,1263,827,290
20:26:18.457,,759,924,857
20:26:18.494,,1323,789,462
20:26:18.531,,1473,496,206
20:26:18.568,,1281,244,101
20:26:18.605,,1256,538,220
20:26:18.642,,1221,819,329
20:26:18.679,,1122,810,108
20:26:18.716,,904,835,64
20:26:18.753,,800,999,342
20:26:18.790,,779,879,651
20:26:18.827,,583,734,706
20:26:18.865,,459,522,658
20:26:18.902,,345,308,718
20:26:18.939,,201,142,662
20:26:18.976,,12,125,647
20:26:19.013,,162,309,774
20:26:19.050,,273,248,753
20:26:19.087,,250,1,679
20:26:19.124,,158,31,729
20:26:19.161,,83,119,796
20:26:19.198,,-9,81,850
20:26:19.235,,-92,-47,767
20:26:19.272,,-180,-59,763
20:26:19.309,,-279,-68,799
20:26:19.346,,-361,-78,826
20:26:19.383,,-448,-66,863
20:26:19.420,,-529,-88,936
20:26:19.457,,-786,-29,1105
20:26:19.494,,-755,-74,1224
20:26:19.531,,-586,-210,1260
20:26:19.568,,-256,-298,1121
20:26:19.606,,-193,-166,1022
20:26:19.643,,-163,-78,907
20:26:19.680,,-85,196,678
20:26:19.717,,-378,-284,169
20:26:19.754,,-1015,-829,-323
20:26:19.791,,-1054,-990,-240
20:26:19.828,,-790,-140,131
20:26:19.865,,-699,-110,436
20:26:19.902,,-733,-262,573
20:26:19.939,,-767,-469,623
20:26:19.976,,-772,-583,614
20:26:20.013,,-817,-617,526
20:26:20.050,,-871,-544,522
20:26:20.087,,-928,-478,566
20:26:20.124,,-861,-492,578
20:26:20.161,,-1043,-548,514
20:26:20.198,,-1050,-412,608
20:26:20.235,,-1001,-419,833
20:26:20.272,,-793,-453,883
20:26:20.309,,-609,-384,743
20:26:20.347,,-400,-311,550
20:26:20.384,,-408,-248,536
20:26:20.421,,-405,-266,529
20:26:20.458,,-404,-298,450
20:26:20.495,,-462,-327,562
20:26:20.532,,-508,-371,497
20:26:20.569,,-535,-469,493
20:26:20.606,,-570,-404,577
20:26:20.643,,-606,-390,633
20:26:20.680,,-648,-619,695
20:26:20.717,,-610,-838,583
20:26:20.754,,-456,-926,117
20:26:20.791,,-358,-916,-486
20:26:20.828,,-209,-543,-289
20:26:20.865,,360,-94,393
20:26:20.902,,344,1165,1055
20:26:20.939,,-464,1351,889
20:26:20.976,,493,1512,-224
20:26:21.013,,233,1900,771
20:26:21.050,,-165,952,1598
20:26:21.088,,-462,866,1393
20:26:21.125,,-109,1085,997
20:26:21.162,,0,593,891
20:26:21.199,,152,453,482
20:26:21.236,,-83,110,-93
20:26:21.273,,-162,-12,-455
20:26:21.310,,1252,1334,-1003
20:26:21.347,,762,1510,-159
20:26:21.384,,1116,1640,680
20:26:21.421,,980,1213,-39
20:26:21.458,,1097,250,-337
20:26:21.495,,1094,-413,2
20:26:21.532,,953,-65,265
20:26:21.569,,1001,440,412
20:26:21.606,,881,682,728
20:26:21.643,,965,418,510
20:26:21.680,,876,166,353
20:26:21.717,,812,186,183
20:26:21.754,,971,359,9
20:26:21.792,,1137,611,-2
20:26:21.829,,1382,606,335
20:26:21.866,,1449,396,497
20:26:21.903,,1357,398,311
20:26:21.940,,970,673,238
20:26:21.977,,547,421,200
20:26:22.014,,436,554,114
20:26:22.051,,461,456,-19
20:26:22.088,,530,431,-56
20:26:22.125,,549,464,-88
20:26:22.162,,653,438,-161
20:26:22.199,,772,598,-188
20:26:22.236,,834,654,-286
20:26:22.273,,878,902,-335
20:26:22.310,,870,980,-416
20:26:22.347,,916,810,-591
20:26:22.384,,1017,923,-655
20:26:22.421,,1076,1028,-626
20:26:22.458,,1274,1174,-395
20:26:22.495,,1184,1021,-581
20:26:22.533,,1042,1564,-292
20:26:22.570,,1000,1328,-516
20:26:22.607,,928,1649,-599
20:26:22.644,,608,483,1536
20:26:22.681,,72,835,-203
20:26:22.718,,-11,476,-262
20:26:22.755,,-16,175,-13
20:26:22.792,,-68,-222,122
20:26:22.829,,-93,-477,480
20:26:22.866,,-141,-427,632
20:26:22.903,,-243,-223,700
20:26:22.940,,-367,-231,711
20:26:22.977,,-522,15,627
20:26:23.014,,-726,175,410
20:26:23.051,,-952,351,326
20:26:23.088,,-748,1105,262
20:26:23.125,,-584,1952,-361
20:26:23.162,,-559,1951,-728
20:26:23.199,,-762,1477,-674
20:26:23.236,,-666,1269,-311
20:26:23.274,,-427,599,22
20:26:23.311,,-380,291,279
20:26:23.348,,-286,-251,347
20:26:23.385,,-344,-501,336
20:26:23.422,,-306,-496,539
20:26:23.459,,-352,-494,680
20:26:23.496,,-615,-251,440
20:26:23.533,,-744,-138,210
20:26:23.570,,-784,182,226
20:26:23.607,,-796,136,202
20:26:23.644,,-567,463,20
20:26:23.681,,-398,1660,-485
20:26:23.718,,-194,1997,-1099
20:26:23.755,,-219,1904,-920
20:26:23.792,,-167,1424,-449
20:26:23.829,,-300,972,-236
20:26:23.866,,-398,556,32
20:26:23.903,,-348,262,172
20:26:23.941,,-390,-40,392
20:26:23.978,,-437,-513,591
20:26:24.015,,-529,-366,468
20:26:24.052,,-575,-444,425
20:26:24.089,,-639,-242,485
20:26:24.126,,-679,-24,549
20:26:24.163,,-560,180,818
20:26:24.200,,-289,569,310
20:26:24.237,,-11,1842,-917
20:26:24.274,,-151,1996,-1551
20:26:24.311,,-803,1904,-1118
20:26:24.348,,-652,973,-528
20:26:24.385,,-466,463,-59
20:26:24.422,,-401,39,132
20:26:24.459,,-383,-77,289
20:26:24.496,,-345,-191,341
20:26:24.533,,-374,-225,357
20:26:24.570,,-527,10,479
20:26:24.607,,-659,100,320
20:26:24.644,,-715,167,147
20:26:24.682,,-731,489,-96
20:26:24.719,,-654,1571,-1304
20:26:24.756,,-455,1892,-1982
20:26:24.793,,-616,1692,-1681
20:26:24.830,,-738,924,-741
20:26:24.867,,-609,382,34
20:26:24.904,,-414,28,510
20:26:24.941,,-323,-77,602
20:26:24.978,,-318,39,692
20:26:25.015,,-249,80,707
20:26:25.052,,-289,33,451
20:26:25.089,,-305,270,302
20:26:25.126,,-343,534,143
20:26:25.163,,-375,1117,-322
20:26:25.200,,-521,1665,-1191
20:26:25.237,,-371,1800,-1342
20:26:25.274,,-762,1156,-952
20:26:25.311,,-969,182,-109
20:26:25.348,,-864,81,1049
20:26:25.385,,-935,-327,1337
20:26:25.423,,-1059,130,-119
20:26:25.460,,-833,351,213
20:26:25.497,,-560,-61,11
20:26:25.534,,-407,-110,40
20:26:25.571,,-276,-89,118
20:26:25.608,,-74,30,210
20:26:25.645,,50,175,78
20:26:25.682,,604,1061,-928
20:26:25.719,,777,1817,-692
20:26:25.756,,592,703,-346
20:26:25.793,,795,290,135
20:26:25.830,,1014,166,281
20:26:25.867,,1191,383,422
20:26:25.904,,1244,228,217
20:26:25.941,,1448,507,19
20:26:25.978,,1639,742,-164
20:26:26.015,,1906,849,-233
20:26:26.052,,1826,1003,-82
20:26:26.089,,1314,822,-61
20:26:26.126,,854,596,-37
20:26:26.164,,691,370,-28
20:26:26.201,,633,366,-129
20:26:26.238,,589,494,-102
20:26:26.275,,494,675,113
20:26:26.312,,720,803,106
20:26:26.349,,803,672,-13
20:26:26.386,,830,526,-75
20:26:26.423,,889,431,-97
20:26:26.460,,1059,426,-59
20:26:26.497,,1220,363,-96
20:26:26.534,,1584,306,-191
20:26:26.571,,1679,523,-174
20:26:26.608,,1321,640,-55
20:26:26.645,,1129,381,-25
20:26:26.682,,1108,333,-109
20:26:26.719,,999,533,-76
20:26:26.756,,868,475,209
20:26:26.793,,717,415,307
20:26:26.831,,665,399,416
20:26:26.868,,554,439,345
20:26:26.905,,456,413,254
20:26:26.942,,395,552,218
20:26:26.979,,341,831,201
20:26:27.016,,168,826,126
20:26:27.053,,-28,1087,-86
20:26:27.090,,238,1145,-186
20:26:27.127,,561,665,-12
20:26:27.164,,814,668,649
20:26:27.201,,1079,625,801
20:26:27.238,,1051,499,385
20:26:27.275,,922,174,178
20:26:27.312,,765,91,80
20:26:27.349,,696,233,60
20:26:27.386,,724,445,124
20:26:27.423,,741,443,95
20:26:27.460,,761,442,105
20:26:27.498,,878,451,85
20:26:27.535,,1002,548,60
20:26:27.572,,1057,629,122
20:26:27.609,,1074,700,168
20:26:27.646,,974,690,143
20:26:27.683,,922,570,182
20:26:27.720,,1017,453,216
20:26:27.757,,1130,540,200
20:26:27.794,,1279,608,107
20:26:27.831,,1134,520,22
20:26:27.868,,1011,369,-48
20:26:27.905,,1056,406,-56
20:26:27.942,,1167,483,-83
20:26:27.979,,1142,389,-123
20:26:28.016,,1106,407,-171
20:26:28.053,,1021,410,-203
20:26:28.090,,1010,683,-114
20:26:28.127,,928,647,-4
20:26:28.165,,807,580,-7
20:26:28.202,,658,541,94
20:26:28.239,,579,500,170
20:26:28.276,,517,496,250
20:26:28.313,,457,459,273
20:26:28.350,,428,380,236
20:26:28.387,,472,364,333
20:26:28.424,,652,307,304
20:26:28.461,,742,240,159
20:26:28.498,,993,370,281
20:26:28.535,,1055,374,407
20:26:28.572,,1146,234,356
20:26:28.609,,1275,99,104
20:26:28.646,,1263,189,38
20:26:28.683,,1169,313,49
20:26:28.720,,1086,415,49
20:26:28.757,,1061,459,-14
20:26:28.795,,958,509,-3
20:26:28.832,,869,479,-13
20:26:28.869,,847,478,-16
20:26:28.906,,843,462,-1
20:26:28.943,,858,519,60
20:26:28.980,,871,496,105
20:26:29.017,,956,409,58
20:26:29.054,,1440,553,10
20:26:29.091,,1146,667,87
20:26:29.128,,907,472,168
20:26:29.165,,863,348,86
20:26:29.202,,965,449,65
20:26:29.239,,915,505,126
20:26:29.276,,911,406,116
20:26:29.313,,1033,334,92
20:26:29.350,,950,421,112
20:26:29.387,,788,538,141
20:26:29.424,,648,629,205
20:26:29.462,,609,638,268
20:26:29.499,,633,637,306
20:26:29.536,,697,582,284
20:26:29.573,,977,534,217
20:26:29.610,,1337,411,28
20:26:29.647,,1115,332,-153
20:26:29.684,,788,510,143
20:26:29.721,,789,605,342
20:26:29.758,,665,523,266
20:26:29.795,,685,344,267
20:26:29.832,,984,370,203
20:26:29.869,,895,188,57
20:26:29.906,,881,180,-43
20:26:29.943,,927,329,75
20:26:29.980,,839,532,121
20:26:30.017,,700,515,133
20:26:30.054,,670,421,174
20:26:30.091,,775,443,222
20:26:30.129,,860,461,225
20:26:30.166,,928,369,164
20:26:30.203,,1233,388,135
20:26:30.240,,1413,574,156
20:26:30.277,,1277,518,0
20:26:30.314,,916,553,-29
20:26:30.351,,1008,612,-91
20:26:30.388,,1054,422,22
20:26:30.425,,886,209,-58
20:26:30.462,,911,359,8
20:26:30.499,,984,432,10
20:26:30.536,,1028,433,-20
20:26:30.573,,832,514,-40
20:26:30.610,,649,585,11
20:26:30.647,,552,579,21
20:26:30.684,,548,687,66
20:26:30.721,,536,709,79
20:26:30.758,,494,662,137
20:26:30.796,,443,613,209
20:26:30.833,,559,557,146
20:26:30.870,,824,583,193
20:26:30.907,,967,619,268
20:26:30.944,,1043,556,305
20:26:30.981,,1040,364,191
20:26:31.018,,1048,126,180
20:26:31.055,,869,169,234
20:26:31.092,,716,287,301
20:26:31.129,,569,484,483
20:26:31.166,,627,543,786
20:26:31.203,,714,394,624
20:26:31.240,,836,396,512
20:26:31.277,,906,358,338
20:26:31.314,,904,403,189
20:26:31.351,,976,485,116
20:26:31.388,,933,614,66
20:26:31.425,,955,613,70
20:26:31.462,,1230,700,97
20:26:31.500,,809,719,191
20:26:31.537,,900,714,243
20:26:31.574,,943,823,348
20:26:31.611,,940,519,406
20:26:31.648,,937,504,479
20:26:31.685,,943,496,462
20:26:31.722,,933,379,495
20:26:31.759,,917,79,459
20:26:31.796,,931,83,444
20:26:31.833,,851,146,465
20:26:31.870,,650,177,527
20:26:31.907,,495,133,503
20:26:31.944,,415,99,469
20:26:31.981,,462,116,376
20:26:32.018,,681,152,257
20:26:32.055,,1083,184,-21
20:26:32.092,,1031,414,2
20:26:32.129,,923,540,74
20:26:32.166,,857,584,311
20:26:32.204,,892,411,147
20:26:32.241,,898,386,-64
20:26:32.278,,946,934,2
20:26:32.315,,780,1167,219
20:26:32.352,,633,889,252
20:26:32.389,,618,937,250
20:26:32.426,,568,881,142
20:26:32.463,,539,1015,135
20:26:32.500,,520,1293,163
20:26:32.537,,647,1615,139
20:26:32.574,,667,1400,-186
20:26:32.611,,440,1154,-363
20:26:32.648,,320,1035,-264
20:26:32.685,,247,1000,-75
20:26:32.722,,265,826,-35
20:26:32.759,,285,781,-14
20:26:32.796,,423,851,-20
20:26:32.834,,534,796,-12
20:26:32.871,,592,771,-24
20:26:32.908,,589,712,-4
20:26:32.945,,533,722,36
20:26:32.982,,434,690,62
20:26:33.019,,387,692,104
20:26:33.056,,322,727,140
20:26:33.093,,292,900,161
20:26:33.130,,293,890,287
20:26:33.167,,319,708,365
20:26:33.204,,417,662,297
20:26:33.241,,529,846,320
20:26:33.278,,718,871,487
20:26:33.315,,702,713,450
20:26:33.352,,701,582,366
20:26:33.389,,691,559,371
20:26:33.426,,625,599,357
20:26:33.464,,569,702,414
20:26:33.501,,475,624,399
20:26:33.538,,385,527,195
20:26:33.575,,442,540,141
20:26:33.612,,544,600,172
20:26:33.649,,668,760,254
20:26:33.686,,753,826,342
20:26:33.723,,813,764,340
20:26:33.760,,1049,831,308
20:26:33.797,,1136,929,323
20:26:33.834,,851,740,247
20:26:33.871,,653,594,249
20:26:33.908,,804,522,285
20:26:33.945,,891,386,383
20:26:33.982,,923,269,309
20:26:34.019,,848,195,232
20:26:34.056,,793,204,267
20:26:34.093,,774,244,295
20:26:34.131,,790,264,308
20:26:34.168,,819,274,300
20:26:34.205,,891,286,267
20:26:34.242,,978,320,251
20:26:34.279,,960,301,251
20:26:34.316,,1007,197,118
20:26:34.353,,1258,178,-99
20:26:34.390,,1162,266,-43
20:26:34.427,,1207,467,52
20:26:34.464,,857,436,120
20:26:34.501,,750,345,111
20:26:34.538,,847,314,43
20:26:34.575,,923,338,-44
20:26:34.612,,920,323,-25
20:26:34.649,,888,334,27
20:26:34.686,,832,417,137
20:26:34.723,,855,386,131
20:26:34.760,,859,379,129
20:26:34.798,,831,343,143
20:26:34.835,,792,332,123
20:26:34.872,,797,350,145
20:26:34.909,,783,357,165
20:26:34.946,,797,386,193
20:26:34.983,,850,374,239
20:26:35.020,,1226,437,201
20:26:35.057,,1260,463,153
20:26:35.094,,1083,431,208
20:26:35.131,,858,376,284
20:26:35.168,,758,395,180
20:26:35.205,,896,421,75
20:26:35.242,,959,399,57
20:26:35.279,,953,337,49
20:26:35.316,,912,401,105
20:26:35.353,,946,434,166
20:26:35.390,,963,532,127
20:26:35.427,,968,632,188
20:26:35.465,,938,615,179
20:26:35.502,,854,553,187
20:26:35.539,,732,469,161
20:26:35.576,,636,423,131
20:26:35.613,,622,405,161
20:26:35.650,,671,399,197
20:26:35.687,,795,371,180
20:26:35.724,,1074,297,32
20:26:35.761,,1039,254,-11
20:26:35.798,,1160,379,51
20:26:35.835,,1115,468,166
20:26:35.872,,864,361,135
20:26:35.909,,806,267,69
20:26:35.946,,980,364,80
20:26:35.983,,1021,396,30
20:26:36.020,,934,367,83
20:26:36.057,,871,398,106
20:26:36.094,,860,419,103
20:26:36.131,,820,434,97
20:26:36.169,,794,458,174
20:26:36.206,,806,460,181
20:26:36.243,,809,423,217
20:26:36.280,,806,405,212
20:26:36.317,,788,407,210
20:26:36.354,,768,399,203
20:26:36.391,,733,362,204
20:26:36.428,,1042,405,175
20:26:36.465,,1309,469,78
20:26:36.502,,1225,400,-8
20:26:36.539,,1132,398,69
20:26:36.576,,893,402,30
20:26:36.613,,724,351,20
20:26:36.650,,755,375,-16
20:26:36.687,,875,440,-58
20:26:36.724,,954,495,-93
20:26:36.761,,948,533,-120
20:26:36.798,,923,541,-100
20:26:36.836,,881,602,-79
20:26:36.873,,861,660,-21
20:26:36.910,,807,661,4
20:26:36.947,,743,670,43
20:26:36.984,,672,640,99
20:26:37.021,,626,586,122
20:26:37.058,,602,559,139
20:26:37.095,,600,525,188
20:26:37.132,,643,463,179
20:26:37.169,,816,426,82
20:26:37.206,,799,387,86
20:26:37.243,,884,396,123
20:26:37.280,,1011,499,201
20:26:37.317,,988,452,162
20:26:37.354,,952,359,105
20:26:37.391,,997,354,68
20:26:37.428,,1117,419,57
20:26:37.465,,1015,397,100
20:26:37.503,,881,369,101
20:26:37.540,,862,383,101
20:26:37.577,,838,378,65
20:26:37.614,,804,424,90
20:26:37.651,,765,431,133
20:26:37.688,,754,443,173
20:26:37.725,,776,424,190
20:26:37.762,,781,430,203
20:26:37.799,,810,415,209
20:26:37.836,,829,429,191
20:26:37.873,,825,438,183
20:26:37.910,,1094,456,151
20:26:37.947,,1318,518,111
20:26:37.984,,1044,429,82
20:26:38.021,,873,403,125
20:26:38.058,,752,478,83
20:26:38.095,,745,426,23
20:26:38.132,,933,396,-20
20:26:38.170,,1140,509,-55
20:26:38.207,,1120,515,-161
20:26:38.244,,1018,582,-105
20:26:38.281,,970,633,8
20:26:38.318,,962,759,-2
20:26:38.355,,935,819,9
20:26:38.392,,848,855,38
20:26:38.429,,710,820,124
20:26:38.466,,547,711,165
20:26:38.503,,419,607,191
20:26:38.540,,330,544,235
20:26:38.577,,277,471,286
20:26:38.614,,247,340,308
20:26:38.651,,379,268,246
20:26:38.688,,693,334,150
20:26:38.725,,704,317,234
20:26:38.762,,779,359,376
20:26:38.799,,933,361,335
20:26:38.837,,1164,345,170
20:26:38.874,,1277,287,53
20:26:38.911,,1214,351,98
20:26:38.948,,1126,419,185
20:26:38.985,,1065,468,144
20:26:39.022,,1064,476,119
20:26:39.059,,1022,528,119
20:26:39.096,,931,542,156
20:26:39.133,,872,593,215
20:26:39.170,,810,605,204
20:26:39.207,,771,630,208
20:26:39.244,,818,591,165
20:26:39.281,,1043,570,106
20:26:39.318,,1477,606,20
20:26:39.355,,1125,487,16
20:26:39.392,,988,451,31
20:26:39.429,,921,443,-65
20:26:39.466,,1100,416,-109
20:26:39.503,,1168,364,-96
20:26:39.541,,1094,302,-133
20:26:39.578,,998,287,-126
20:26:39.615,,937,294,-124
20:26:39.652,,919,322,-94
20:26:39.689,,875,299,-80
20:26:39.726,,831,293,-77
20:26:39.763,,828,336,-21
20:26:39.800,,835,356,21
20:26:39.837,,814,353,96
20:26:39.874,,917,309,129
20:26:39.911,,1201,348,31
20:26:39.948,,937,336,203
20:26:39.985,,835,390,416
20:26:40.022,,811,406,427
20:26:40.059,,919,284,267
20:26:40.096,,1033,220,220
20:26:40.133,,1014,331,245
20:26:40.170,,863,369,208
20:26:40.208,,860,388,167
20:26:40.245,,847,420,152
20:26:40.282,,814,424,153
20:26:40.319,,792,431,174
20:26:40.356,,753,438,176
20:26:40.393,,753,446,183
20:26:40.430,,806,445,185
20:26:40.467,,821,416,161
20:26:40.504,,1164,482,131
20:26:40.541,,1327,537,87
20:26:40.578,,983,419,13
20:26:40.615,,788,354,53
20:26:40.652,,879,396,21
20:26:40.689,,1124,427,-30
20:26:40.726,,1154,371,-67
20:26:40.763,,1016,273,-60
20:26:40.800,,925,303,-40
20:26:40.837,,868,310,-40
20:26:40.875,,870,277,-33
20:26:40.912,,924,294,12
20:26:40.949,,880,282,26
20:26:40.986,,883,277,69
20:26:41.023,,946,303,129
20:26:41.060,,1030,313,131
20:26:41.097,,1143,268,53
20:26:41.134,,941,290,148
20:26:41.171,,877,376,283
20:26:41.208,,902,399,308
20:26:41.245,,883,280,174
20:26:41.282,,899,278,114
20:26:41.319,,999,382,160
20:26:41.356,,958,421,144
20:26:41.393,,862,422,159
20:26:41.430,,888,437,158
20:26:41.467,,890,441,142
20:26:41.504,,868,413,168
20:26:41.541,,855,426,192
20:26:41.578,,838,418,211
20:26:41.616,,830,404,209
20:26:41.653,,837,379,218
20:26:41.690,,835,335,202
20:26:41.727,,813,310,174
20:26:41.764,,837,310,161
20:26:41.801,,1234,371,175
20:26:41.838,,1042,222,86
20:26:41.875,,910,70,88
20:26:41.912,,976,154,163
20:26:41.949,,858,132,173
20:26:41.986,,780,126,197
20:26:42.023,,877,230,146
20:26:42.060,,1109,302,68
20:26:42.097,,1160,295,20
20:26:42.134,,969,323,33
20:26:42.171,,810,390,105
20:26:42.208,,787,433,103
20:26:42.246,,817,425,73
20:26:42.283,,833,417,74
20:26:42.320,,843,432,61
20:26:42.357,,836,430,61
20:26:42.394,,846,438,36
20:26:42.431,,794,392,34
20:26:42.468,,766,413,28
20:26:42.505,,774,452,23
20:26:42.542,,827,419,44
20:26:42.579,,868,385,128
20:26:42.616,,1017,321,218
20:26:42.653,,1205,115,118
20:26:42.690,,1291,261,175
20:26:42.727,,1003,346,447
20:26:42.764,,915,110,366
20:26:42.801,,1216,216,176
20:26:42.838,,1077,303,158
20:26:42.876,,928,424,281
20:26:42.913,,924,492,357
20:26:42.950,,761,482,311
20:26:42.987,,735,429,234
20:26:43.024,,782,404,237
20:26:43.061,,811,352,220
20:26:43.098,,813,377,193
20:26:43.135,,792,366,147
20:26:43.172,,776,363,86
20:26:43.209,,1254,470,-22
20:26:43.246,,1173,564,-63
20:26:43.283,,918,334,-210
20:26:43.320,,843,557,23
20:26:43.357,,911,455,-3
20:26:43.394,,1043,458,-22
20:26:43.431,,1005,536,-71
20:26:43.468,,985,583,-40
20:26:43.506,,885,583,118
20:26:43.543,,846,794,264
20:26:43.580,,838,868,265
20:26:43.617,,798,810,222
20:26:43.654,,750,792,248
20:26:43.691,,628,727,266
20:26:43.728,,446,595,201
20:26:43.765,,374,524,174
20:26:43.802,,359,414,183
20:26:43.839,,363,335,206
20:26:43.876,,488,370,134
20:26:43.913,,562,434,24
20:26:43.950,,753,455,70
20:26:43.987,,986,524,195
20:26:44.024,,1194,451,109
20:26:44.061,,1321,375,43
20:26:44.098,,1139,449,100
20:26:44.135,,928,457,164
20:26:44.173,,938,463,191
20:26:44.210,,986,495,185
20:26:44.247,,934,589,177
20:26:44.284,,873,603,189
20:26:44.321,,865,639,169
20:26:44.358,,825,530,40
20:26:44.395,,934,512,-18
20:26:44.432,,992,477,-44
20:26:44.469,,1382,601,-106
20:26:44.506,,1050,641,-57
20:26:44.543,,1023,454,-85
20:26:44.580,,1288,420,-198
20:26:44.617,,1295,484,-184
20:26:44.654,,1089,494,-9
20:26:44.691,,995,500,42
20:26:44.728,,1038,504,82
20:26:44.765,,990,454,55
20:26:44.803,,847,418,46
20:26:44.840,,710,290,58
20:26:44.877,,668,275,49
20:26:44.914,,655,286,97
20:26:44.951,,704,136,100
20:26:44.988,,1006,-76,-93
20:26:45.025,,1220,221,-267
20:26:45.062,,1230,885,-281
20:26:45.099,,1005,851,-255
20:26:45.136,,838,737,39
20:26:45.173,,814,633,-18
20:26:45.210,,736,548,-198
20:26:45.247,,735,564,-211
20:26:45.284,,783,539,-230
20:26:45.321,,839,492,-294
20:26:45.358,,859,601,-268
20:26:45.395,,813,541,-337
20:26:45.432,,886,565,-402
20:26:45.470,,941,731,-585
20:26:45.507,,1011,673,-649
20:26:45.544,,1399,173,-886
20:26:45.581,,747,661,-454
20:26:45.618,,786,543,-373
20:26:45.655,,1029,359,-580
20:26:45.692,,1052,393,-440
20:26:45.729,,988,547,-244
20:26:45.766,,981,807,-168
20:26:45.803,,1062,1057,-115
20:26:45.840,,1149,1039,-526
20:26:45.877,,1225,609,-603
20:26:45.914,,960,-228,-393
20:26:45.951,,626,-634,-4
20:26:45.988,,617,-305,285
20:26:46.025,,827,-45,239
20:26:46.062,,1293,63,-114
20:26:46.099,,1281,184,-288
20:26:46.136,,1216,593,-181
20:26:46.173,,1285,694,123
20:26:46.211,,1156,575,127
20:26:46.248,,846,437,94
20:26:46.285,,884,416,27
20:26:46.322,,937,296,-65
20:26:46.359,,892,351,43
20:26:46.396,,958,534,114
20:26:46.433,,951,705,136
20:26:46.470,,982,671,62
20:26:46.507,,1078,719,-58
20:26:46.544,,926,701,-89
20:26:46.581,,1128,616,-45
20:26:46.618,,1119,772,-134
20:26:46.655,,847,650,-31
20:26:46.692,,1208,515,-224
20:26:46.729,,1332,535,-308
20:26:46.766,,1205,538,-133
20:26:46.803,,1163,437,-46
20:26:46.840,,1268,389,14
20:26:46.877,,1241,258,-33
20:26:46.915,,1058,229,57
20:26:46.952,,877,186,116
20:26:46.989,,758,190,77
20:26:47.026,,735,186,99
20:26:47.063,,752,167,166
20:26:47.100,,1115,154,163
20:26:47.137,,1084,335,175
20:26:47.174,,849,277,530
20:26:47.211,,1105,125,436
20:26:47.248,,1256,211,92
20:26:47.285,,1123,215,-95
20:26:47.322,,978,319,-107
20:26:47.359,,1001,552,106
20:26:47.396,,979,554,37
20:26:47.433,,948,657,6
20:26:47.470,,839,706,-68
20:26:47.507,,802,745,-146
20:26:47.544,,889,807,-175
20:26:47.581,,761,947,-239
20:26:47.619,,1258,1462,-518
20:26:47.656,,925,1011,-685
20:26:47.693,,1096,283,-483
20:26:47.730,,1603,256,-148
20:26:47.767,,1457,185,100
20:26:47.804,,1244,161,205
20:26:47.841,,1271,180,186
20:26:47.878,,1386,230,128
20:26:47.915,,1435,185,92
20:26:47.952,,1400,-27,-255
20:26:47.989,,833,-335,-299
20:26:48.026,,565,-303,62
20:26:48.063,,807,-155,157
20:26:48.100,,970,179,258
20:26:48.137,,897,136,687
20:26:48.174,,1422,156,743
20:26:48.211,,1943,416,29
20:26:48.248,,1652,-8,-245
20:26:48.285,,909,370,-259
20:26:48.323,,710,719,-220
20:26:48.360,,714,826,-333
20:26:48.397,,682,857,-362
20:26:48.434,,556,564,-175
20:26:48.471,,538,453,-126
20:26:48.508,,755,454,-148
20:26:48.545,,865,467,-181
20:26:48.582,,1426,542,-326
20:26:48.619,,951,786,-145
20:26:48.656,,972,515,-155
20:26:48.693,,1376,380,-241
20:26:48.730,,1159,399,-24
20:26:48.767,,983,313,169
20:26:48.804,,1005,358,226
20:26:48.841,,1022,176,145
20:26:48.878,,924,167,165
20:26:48.915,,912,172,172
20:26:48.953,,950,212,146
20:26:48.990,,1058,194,131
20:26:49.027,,1377,125,-78
20:26:49.064,,936,342,29
20:26:49.101,,897,439,303
20:26:49.138,,1220,276,201
20:26:49.175,,986,280,133
20:26:49.212,,707,186,130
20:26:49.249,,623,275,139
20:26:49.286,,569,410,191
20:26:49.323,,538,421,334
20:26:49.360,,860,81,312
20:26:49.397,,1516,546,44
20:26:49.434,,1438,1040,-25
20:26:49.471,,1275,887,22
20:26:49.508,,1260,681,-9
20:26:49.545,,1126,664,52
20:26:49.582,,858,692,127
20:26:49.619,,1076,774,7
20:26:49.657,,1321,539,-241
20:26:49.694,,1393,146,-217
20:26:49.731,,1412,203,-138
20:26:49.768,,1522,418,-117
20:26:49.805,,1494,475,-186
20:26:49.842,,1453,743,-189
20:26:49.879,,1280,256,-443
20:26:49.916,,1006,-6,-366
20:26:49.953,,759,-170,-143
20:26:49.990,,586,-182,52
20:26:50.027,,501,-168,151
20:26:50.064,,380,-448,58
20:26:50.101,,462,-903,-131
20:26:50.138,,1143,500,419
20:26:50.175,,1746,418,50
20:26:50.212,,1910,531,240
20:26:50.249,,1997,846,798
20:26:50.286,,1683,403,187
20:26:50.324,,1166,-240,76
20:26:50.361,,1078,-995,300
20:26:50.398,,1269,-479,261
20:26:50.435,,1227,644,-227
20:26:50.472,,899,996,-214
20:26:50.509,,671,497,-20
20:26:50.546,,657,297,89
20:26:50.583,,626,131,184
20:26:50.620,,653,361,76
20:26:50.657,,1177,587,-162
20:26:50.694,,1267,874,-4
20:26:50.731,,1347,529,-34
20:26:50.768,,1662,455,-5
20:26:50.805,,1477,287,63
20:26:50.842,,1379,215,103
20:26:50.879,,1388,227,56
20:26:50.916,,1328,282,9
20:26:50.953,,1121,181,55
20:26:50.991,,1025,102,169
20:26:51.028,,847,-79,176
20:26:51.065,,701,-140,168
20:26:51.102,,872,-67,153
20:26:51.139,,983,182,227
20:26:51.176,,751,110,488
20:26:51.213,,1090,30,498
20:26:51.250,,1466,280,323
20:26:51.287,,1321,241,169
20:26:51.324,,1255,245,59
20:26:51.361,,1281,573,158
20:26:51.398,,1105,828,122
20:26:51.435,,831,826,150
20:26:51.472,,772,487,197
20:26:51.509,,868,531,36
20:26:51.546,,879,698,-69
20:26:51.583,,731,748,-48
20:26:51.621,,1412,858,-193
20:26:51.658,,1181,1054,-118
20:26:51.695,,1489,942,-252
20:26:51.732,,1760,735,-289
20:26:51.769,,1510,348,-190
20:26:51.806,,1363,660,-234
20:26:51.843,,1468,724,-496
20:26:51.880,,1300,695,-509
20:26:51.917,,1017,382,-373
20:26:51.954,,685,73,-200
20:26:51.991,,537,6,-99
20:26:52.028,,420,-108,-82
20:26:52.065,,416,29,-164
20:26:52.102,,453,280,-208
20:26:52.139,,850,840,-637
20:26:52.176,,809,1587,-188
20:26:52.213,,970,602,815
20:26:52.250,,1315,314,1129
20:26:52.287,,1047,633,830
20:26:52.324,,699,224,866
20:26:52.362,,449,-213,692
20:26:52.399,,372,24,767
20:26:52.436,,333,204,836
20:26:52.473,,410,302,998
20:26:52.510,,468,313,902
20:26:52.547,,551,251,743
20:26:52.584,,727,277,728
20:26:52.621,,772,215,681
20:26:52.658,,837,270,666
20:26:52.695,,1076,352,828
20:26:52.732,,1006,460,485
20:26:52.769,,883,503,231
20:26:52.806,,759,261,453
20:26:52.843,,715,107,749
20:26:52.880,,702,-115,428
20:26:52.917,,853,514,566
20:26:52.954,,778,252,789
20:26:52.991,,599,364,781
20:26:53.028,,587,400,617
20:26:53.066,,597,404,513
20:26:53.103,,615,398,474
20:26:53.140,,661,366,424
20:26:53.177,,825,340,333
20:26:53.214,,1099,309,126
20:26:53.251,,996,378,117
20:26:53.288,,1051,544,388
20:26:53.325,,955,462,562
20:26:53.362,,928,253,407
20:26:53.399,,911,23,77
20:26:53.436,,929,-428,6
20:26:53.473,,999,-143,-233
20:26:53.510,,837,766,-472
20:26:53.547,,737,1009,-321
20:26:53.584,,698,811,-37
20:26:53.621,,719,553,-101
20:26:53.658,,656,672,-171
20:26:53.695,,713,709,-241
20:26:53.732,,896,673,-304
20:26:53.770,,951,912,-168
20:26:53.807,,1290,977,-334
20:26:53.844,,1053,156,-243
20:26:53.881,,917,78,238
20:26:53.918,,788,540,-67
20:26:53.955,,810,1290,-174
20:26:53.992,,879,1547,-210
20:26:54.029,,1052,601,-409
20:26:54.066,,905,-334,2
20:26:54.103,,955,-25,219
20:26:54.140,,971,581,613
20:26:54.177,,712,210,381
20:26:54.214,,624,147,357
20:26:54.251,,574,104,406
20:26:54.288,,667,14,402
20:26:54.325,,821,-33,475
20:26:54.362,,1057,-300,183
20:26:54.399,,1140,-269,-124
20:26:54.436,,1214,250,-395
20:26:54.474,,1087,905,-575
20:26:54.511,,697,1164,-268
20:26:54.548,,812,1191,-356
20:26:54.585,,667,1042,-274
20:26:54.622,,533,388,-261
20:26:54.659,,650,108,59
20:26:54.696,,825,-47,186
20:26:54.733,,915,193,134
20:26:54.770,,853,510,144
20:26:54.807,,787,695,237
20:26:54.844,,772,565,207
20:26:54.881,,940,482,185
20:26:54.918,,1065,378,189
20:26:54.955,,1304,411,83
20:26:54.992,,1418,649,93
20:26:55.029,,1018,588,178
20:26:55.066,,766,521,160
20:26:55.103,,977,509,-57
20:26:55.140,,1106,472,-11
20:26:55.178,,1007,348,142
20:26:55.215,,987,300,100
20:26:55.252,,991,513,91
20:26:55.289,,977,557,99
20:26:55.326,,910,461,115
20:26:55.363,,895,406,154
20:26:55.400,,885,395,153
20:26:55.437,,943,425,241
20:26:55.474,,1054,344,213
20:26:55.511,,1071,247,83
20:26:55.548,,900,283,187
20:26:55.585,,752,353,339
20:26:55.622,,602,285,405
20:26:55.659,,624,221,328
20:26:55.696,,696,244,155
20:26:55.733,,745,316,48
20:26:55.770,,855,386,62
20:26:55.807,,1002,464,68
20:26:55.844,,946,529,114
20:26:55.881,,914,518,196
20:26:55.919,,906,487,212
20:26:55.956,,891,507,203
20:26:55.993,,927,559,218
20:26:56.030,,961,577,213
20:26:56.067,,1538,692,61
20:26:56.104,,1214,662,113
20:26:56.141,,869,492,232
20:26:56.178,,1076,508,35
20:26:56.215,,1178,569,-68
20:26:56.252,,1006,536,49
20:26:56.289,,914,393,95
20:26:56.326,,1032,406,53
20:26:56.363,,1126,543,36
20:26:56.400,,1027,649,89
20:26:56.437,,846,356,84
20:26:56.474,,669,190,95
20:26:56.511,,592,267,165
20:26:56.549,,568,281,216
20:26:56.586,,690,245,227
20:26:56.623,,1044,186,116
20:26:56.660,,1098,205,22
20:26:56.697,,1123,317,236
20:26:56.734,,1167,393,289
20:26:56.771,,1088,355,158
20:26:56.808,,997,262,62
20:26:56.845,,913,302,69
20:26:56.882,,904,368,58
20:26:56.919,,935,419,76
20:26:56.956,,937,498,81
20:26:56.993,,872,579,143
20:26:57.030,,855,568,157
20:26:57.067,,885,591,139
20:26:57.104,,983,566,107
20:26:57.141,,1024,504,64
20:26:57.178,,1235,553,32
20:26:57.215,,1304,743,-55
20:26:57.252,,775,582,48
20:26:57.290,,947,454,25
20:26:57.327,,1143,488,-144
20:26:57.364,,1080,457,-100
20:26:57.401,,1022,337,-31
20:26:57.438,,1016,362,-45
20:26:57.475,,1012,399,-48
20:26:57.512,,993,364,-22
20:26:57.549,,885,339,-11
20:26:57.586,,805,368,79
20:26:57.623,,757,384,95
20:26:57.660,,736,396,145
20:26:57.697,,811,352,242
20:26:57.734,,1125,274,95
20:26:57.771,,971,230,121
20:26:57.808,,991,344,234
20:26:57.845,,946,323,135
20:26:57.882,,963,381,188
20:26:57.920,,1013,363,92
20:26:57.957,,946,390,95
20:26:57.994,,878,352,89
20:26:58.031,,875,384,80
20:26:58.068,,886,438,84
20:26:58.105,,892,485,76
20:26:58.142,,866,498,115
20:26:58.179,,834,486,129
20:26:58.216,,899,474,117
20:26:58.253,,981,473,28
20:26:58.290,,1290,526,-64
20:26:58.327,,1374,748,-25
20:26:58.364,,920,614,-22
20:26:58.401,,908,400,0
20:26:58.438,,1047,419,-106
20:26:58.475,,1058,446,-95
20:26:58.512,,1009,361,-51
20:26:58.549,,974,344,-59
20:26:58.586,,940,363,-95
20:26:58.624,,914,378,-73
20:26:58.661,,882,383,-42
20:26:58.698,,866,400,-30
20:26:58.735,,846,410,-18
20:26:58.772,,833,447,-2
20:26:58.809,,813,457,-5
20:26:58.846,,753,446,86
20:26:58.883,,838,415,95
20:26:58.920,,944,395,-35
20:26:58.957,,801,416,83
20:26:58.994,,989,486,197
20:26:59.031,,1073,488,160
20:26:59.068,,989,385,83
20:26:59.105,,824,328,107
20:26:59.142,,781,311,150
20:26:59.179,,770,363,131
20:26:59.216,,817,402,140
20:26:59.253,,847,442,132
20:26:59.290,,809,468,121
20:26:59.327,,881,455,170
20:26:59.365,,841,460,257
20:26:59.402,,858,459,223
20:26:59.439,,984,408,67
20:26:59.476,,1141,443,20
20:26:59.513,,1540,639,-9
20:26:59.550,,989,551,27
20:26:59.587,,897,381,46
20:26:59.624,,972,407,-77
20:26:59.661,,1029,441,-120
20:26:59.698,,894,382,-61
20:26:59.735,,803,383,-22
20:26:59.772,,841,459,-19
20:26:59.809,,959,488,-145
20:26:59.846,,1018,545,-38
20:26:59.883,,855,510,-17
20:26:59.920,,721,461,-21
20:26:59.957,,627,412,34
20:26:59.994,,542,353,37
20:27:00.031,,498,371,71
20:27:00.069,,521,405,159
20:27:00.106,,757,394,104
20:27:00.143,,1113,398,-45
20:27:00.180,,1155,434,41
20:27:00.217,,1330,596,123
20:27:00.254,,1326,568,-7
20:27:00.291,,1014,342,3
20:27:00.328,,871,235,101
20:27:00.365,,833,256,79
20:27:00.402,,796,439,46
20:27:00.439,,760,519,46
20:27:00.476,,749,441,65
20:27:00.513,,724,461,104
20:27:00.550,,775,451,145
20:27:00.587,,792,441,143
20:27:00.624,,885,399,128
20:27:00.661,,1037,352,53
20:27:00.698,,1229,402,0
20:27:00.736,,1380,567,22
20:27:00.773,,1054,484,44
20:27:00.810,,874,342,80
20:27:00.847,,924,374,-27
20:27:00.884,,1045,399,-84
20:27:00.921,,988,408,-44
20:27:00.958,,867,406,-21
20:27:00.995,,858,403,-13
20:27:01.032,,900,434,-17
20:27:01.069,,888,472,-28
20:27:01.106,,828,473,22
20:27:01.143,,780,429,68
20:27:01.180,,727,411,52
20:27:01.217,,704,418,79
20:27:01.254,,696,414,141
20:27:01.291,,747,379,156
20:27:01.328,,1141,387,-13
20:27:01.365,,1023,478,134
20:27:01.403,,957,537,488
20:27:01.440,,968,462,425
20:27:01.477,,994,217,176
20:27:01.514,,978,126,56
20:27:01.551,,977,288,57
20:27:01.588,,883,480,95
20:27:01.625,,768,418,0
20:27:01.662,,766,388,22
20:27:01.699,,755,420,-4
20:27:01.736,,732,407,106
20:27:01.773,,781,390,156
20:27:01.810,,817,423,191
20:27:01.847,,879,441,236
20:27:01.884,,933,385,280
20:27:01.921,,928,333,258
20:27:01.958,,1241,452,206
20:27:01.995,,1389,585,289
20:27:02.032,,1034,428,243
20:27:02.069,,716,320,207
20:27:02.107,,811,331,30
20:27:02.144,,994,454,8
20:27:02.181,,956,378,26
20:27:02.218,,866,328,4
20:27:02.255,,878,393,-22
20:27:02.292,,917,484,-79
20:27:02.329,,918,405,-97
20:27:02.366,,901,469,-61
20:27:02.403,,880,524,-101
20:27:02.440,,718,946,-388
20:27:02.477,,764,1189,71
20:27:02.514,,712,857,472
20:27:02.551,,723,885,195
20:27:02.588,,872,886,91
20:27:02.625,,1004,504,133
20:27:02.662,,756,308,280
20:27:02.699,,987,340,514
20:27:02.736,,955,128,269
20:27:02.773,,835,27,83
20:27:02.811,,749,155,103
20:27:02.848,,710,271,154
20:27:02.885,,661,250,87
20:27:02.922,,644,225,-44
20:27:02.959,,809,410,-91
20:27:02.996,,894,544,-29
20:27:03.033,,1056,379,-146
20:27:03.070,,1172,578,-12
20:27:03.107,,1301,731,-38
20:27:03.144,,1190,686,-252
20:27:03.181,,1277,306,103
20:27:03.218,,1506,432,175
20:27:03.255,,719,840,183
20:27:03.292,,931,614,26
20:27:03.329,,1107,584,-123
20:27:03.366,,836,552,18
20:27:03.403,,777,419,76
20:27:03.440,,853,313,-23
20:27:03.478,,930,387,-81
20:27:03.515,,1027,470,-121
20:27:03.552,,1080,490,-105
20:27:03.589,,1040,587,-83
20:27:03.626,,1022,828,-71
20:27:03.663,,1045,927,-37
20:27:03.700,,919,731,-35
20:27:03.737,,553,672,-81
20:27:03.774,,199,780,39
20:27:03.811,,37,708,145
20:27:03.848,,75,584,181
20:27:03.885,,163,611,325
20:27:03.922,,607,755,739
20:27:03.959,,1114,706,615
20:27:03.996,,1263,287,251
20:27:04.033,,1050,67,165
20:27:04.070,,790,387,252
20:27:04.108,,562,676,320
20:27:04.145,,381,393,162
20:27:04.182,,441,259,-15
20:27:04.219,,567,432,-136
20:27:04.256,,707,654,-211
20:27:04.293,,802,764,-277
20:27:04.330,,922,611,-377
20:27:04.367,,1123,665,-254
20:27:04.404,,1239,700,-122
20:27:04.441,,1474,541,-313
20:27:04.478,,1435,609,-131
20:27:04.515,,1048,477,99
20:27:04.552,,1052,493,-21
20:27:04.589,,1063,654,-152
20:27:04.626,,853,624,-13
20:27:04.663,,670,481,34
20:27:04.700,,620,482,29
20:27:04.738,,702,434,-34
20:27:04.775,,862,424,-82
20:27:04.812,,1030,480,-74
20:27:04.849,,1175,465,-144
20:27:04.886,,1190,362,-183
20:27:04.923,,1095,327,-133
20:27:04.960,,950,343,-72
20:27:04.997,,993,292,-124
20:27:05.034,,1012,286,-203
20:27:05.071,,808,596,-57
20:27:05.108,,844,792,-399
20:27:05.145,,916,36,-558
20:27:05.182,,759,-468,-105
20:27:05.219,,646,-62,93
20:27:05.256,,1126,512,1068
20:27:05.293,,1092,295,946
20:27:05.330,,883,378,79
20:27:05.368,,753,847,-99
20:27:05.405,,657,461,75
20:27:05.442,,539,26,99
20:27:05.479,,596,278,137
20:27:05.516,,617,536,106
20:27:05.553,,678,395,-99
20:27:05.590,,757,100,-447
20:27:05.627,,1440,434,-711
20:27:05.664,,1396,1251,1244
20:27:05.701,,599,-364,5
20:27:05.738,,705,47,-41
20:27:05.775,,952,496,-284
20:27:05.812,,819,403,-716
20:27:05.849,,589,588,-659
20:27:05.886,,610,671,-761
20:27:05.923,,655,416,-985
20:27:05.960,,660,109,-1333
20:27:05.998,,677,-226,-1777
20:27:06.035,,521,590,-248
20:27:06.072,,505,-780,-63
20:27:06.109,,281,1087,-1083
20:27:06.146,,-4,53,-1023
20:27:06.183,,-19,53,-690
20:27:06.220,,104,134,-982
20:27:06.257,,369,122,-1202
20:27:06.294,,487,297,-1447
20:27:06.331,,571,529,-1744
20:27:06.368,,512,341,-1214
20:27:06.405,,359,153,-890
20:27:06.442,,236,-20,-568
20:27:06.479,,171,129,-403
20:27:06.516,,144,162,-426
20:27:06.553,,107,170,-501
20:27:06.590,,106,232,-568
20:27:06.627,,42,38,-679
20:27:06.665,,-104,172,-812
20:27:06.702,,-161,85,-1019
20:27:06.739,,-136,70,-1746
20:27:06.776,,-150,-70,-1763
20:27:06.813,,-195,50,-1236
20:27:06.850,,-429,585,-1323
20:27:06.887,,-323,467,-1566
20:27:06.924,,-389,514,-925
20:27:06.961,,-165,185,-623
20:27:06.998,,-91,128,-455
20:27:07.035,,-228,-129,-453
20:27:07.072,,-333,-596,-597
20:27:07.109,,-357,2,-571
20:27:07.146,,-598,732,-1282
20:27:07.183,,-831,1152,-1101
20:27:07.220,,-610,604,-715
20:27:07.257,,-379,-722,-89
20:27:07.294,,-432,-756,947
20:27:07.332,,-484,377,1598
20:27:07.369,,-572,359,1008
20:27:07.406,,-729,300,625
20:27:07.443,,-739,115,324
20:27:07.480,,-458,-44,105
20:27:07.517,,-316,439,578
20:27:07.554,,-139,1561,1401
20:27:07.591,,275,822,1422
20:27:07.628,,995,-301,1319
20:27:07.665,,351,280,32
20:27:07.702,,-481,721,-1265
20:27:07.739,,-684,1156,-1394
20:27:07.776,,-436,1270,-990
20:27:07.813,,-434,1347,-895
20:27:07.850,,-555,1852,-1390
20:27:07.887,,-300,1015,-1991
20:27:07.924,,80,-1257,-1181
20:27:07.961,,-548,-1654,967
20:27:07.998,,-620,38,-287
20:27:08.036,,-902,612,-793
20:27:08.073,,-1325,1032,-800
20:27:08.110,,-1111,1917,-748
20:27:08.147,,-753,893,-1008
20:27:08.184,,-732,-971,-391
20:27:08.221,,-639,-789,11
20:27:08.258,,-736,951,-761
20:27:08.295,,-729,1788,-515
20:27:08.332,,-625,600,-439
20:27:08.369,,-677,-737,-223
20:27:08.406,,-579,0,201
20:27:08.443,,-801,601,110
20:27:08.480,,-928,564,-233
20:27:08.517,,-1019,304,-215
20:27:08.554,,-1057,494,-86
20:27:08.591,,-1000,678,91
20:27:08.628,,-866,765,335
20:27:08.665,,-736,724,612
20:27:08.702,,-533,478,724
20:27:08.740,,-347,649,706
20:27:08.777,,-373,801,738
20:27:08.814,,-292,768,626
20:27:08.851,,-122,554,385
20:27:08.888,,-117,282,252
20:27:08.925,,-38,353,227
20:27:08.962,,51,610,195
20:27:08.999,,119,567,171
20:27:09.036,,256,656,165
20:27:09.073,,428,511,118
20:27:09.110,,660,750,3
20:27:09.147,,697,1079,-83
20:27:09.184,,831,1042,-254
20:27:09.221,,1146,1141,-231
20:27:09.258,,1452,1062,-298
20:27:09.295,,1065,936,-333
20:27:09.332,,969,687,-65
20:27:09.369,,1332,869,-106
20:27:09.406,,1161,770,-223
20:27:09.444,,894,599,-64
20:27:09.481,,791,485,-41
20:27:09.518,,646,258,70
20:27:09.555,,602,1057,-27
20:27:09.592,,850,983,-388
20:27:09.629,,978,664,-311
20:27:09.666,,913,678,-309
20:27:09.703,,840,619,-270
20:27:09.740,,779,510,-296
20:27:09.777,,889,380,-252
20:27:09.814,,827,316,-18
20:27:09.851,,798,422,175
20:27:09.888,,889,283,261
20:27:09.925,,984,70,143
20:27:09.962,,936,79,27
20:27:09.999,,855,307,4
20:27:10.036,,743,415,74
20:27:10.074,,661,385,84
20:27:10.111,,667,387,91
20:27:10.148,,737,428,121
20:27:10.185,,759,457,127
20:27:10.222,,821,465,137
20:27:10.259,,941,522,150
20:27:10.296,,1128,651,114
20:27:10.333,,1236,538,133
20:27:10.370,,1620,345,248
20:27:10.407,,1419,434,284
20:27:10.444,,900,366,208
20:27:10.481,,945,290,95
20:27:10.518,,1008,412,42
20:27:10.555,,908,415,158
20:27:10.592,,777,363,170
20:27:10.629,,795,557,124
20:27:10.666,,879,632,90
20:27:10.703,,832,627,16
20:27:10.740,,702,569,1
20:27:10.778,,694,593,90
20:27:10.815,,705,634,195
20:27:10.852,,831,533,411
20:27:10.889,,1328,313,408
20:27:10.926,,1523,121,157
20:27:10.963,,1218,52,596
20:27:11.000,,978,-248,330
20:27:11.037,,687,-343,83
20:27:11.074,,634,267,160
20:27:11.111,,653,463,218
20:27:11.148,,612,377,112
20:27:11.185,,732,318,121
20:27:11.222,,888,426,192
20:27:11.259,,975,500,194
20:27:11.296,,947,452,153
20:27:11.333,,844,389,151
20:27:11.370,,859,363,225
20:27:11.407,,974,373,257
20:27:11.444,,1070,428,217
20:27:11.482,,1314,462,216
20:27:11.519,,1213,573,344
20:27:11.556,,1213,378,207
20:27:11.593,,925,425,233
20:27:11.630,,858,405,129
20:27:11.667,,988,511,137
20:27:11.704,,985,499,151
20:27:11.741,,915,422,148
20:27:11.778,,838,393,177
20:27:11.815,,770,402,126
20:27:11.852,,719,447,134
20:27:11.889,,681,406,129
20:27:11.926,,665,392,101
20:27:11.963,,754,495,108
20:27:12.000,,848,473,122
20:27:12.037,,922,361,90
20:27:12.074,,1155,303,26
20:27:12.111,,1119,289,104
20:27:12.148,,1073,373,445
20:27:12.186,,1064,243,524
20:27:12.223,,991,92,354
20:27:12.260,,822,208,379
20:27:12.297,,841,277,755
20:27:12.334,,801,397,739
20:27:12.371,,713,115,551
20:27:12.408,,670,317,406
20:27:12.445,,613,409,275
20:27:12.482,,562,363,208
20:27:12.519,,620,383,148
20:27:12.556,,724,368,-68
20:27:12.593,,1585,568,-134
20:27:12.630,,1276,887,169
20:27:12.667,,1120,588,325
20:27:12.704,,1042,671,271
20:27:12.741,,786,1082,170
20:27:12.778,,688,854,135
20:27:12.815,,665,589,186
20:27:12.852,,716,572,130
20:27:12.889,,715,532,59
20:27:12.927,,676,547,22
20:27:12.964,,633,509,40
20:27:13.001,,611,415,69
20:27:13.038,,615,375,85
20:27:13.075,,727,370,90
20:27:13.112,,939,314,7
20:27:13.149,,1151,305,-171
20:27:13.186,,1060,367,-77
20:27:13.223,,1311,690,447
20:27:13.260,,1436,599,148
20:27:13.297,,1131,358,-72
20:27:13.334,,881,118,124
20:27:13.371,,749,152,195
20:27:13.408,,753,334,125
20:27:13.445,,797,543,93
20:27:13.482,,733,485,130
20:27:13.519,,622,319,123
20:27:13.556,,628,399,116
20:27:13.593,,802,433,165
20:27:13.630,,1093,439,131
20:27:13.667,,1115,377,59
20:27:13.705,,1515,435,10
20:27:13.742,,1185,592,83
20:27:13.779,,886,458,36
20:27:13.816,,1100,466,-66
20:27:13.853,,1032,474,-142
20:27:13.890,,887,390,24
20:27:13.927,,848,448,5
20:27:13.964,,876,565,-70
20:27:14.001,,927,637,-54
20:27:14.038,,860,658,11
20:27:14.075,,826,642,103
20:27:14.112,,782,559,22
20:27:14.149,,774,562,56
20:27:14.186,,775,505,93
20:27:14.223,,885,392,62
20:27:14.260,,810,367,37
20:27:14.297,,962,486,201
20:27:14.334,,903,382,233
20:27:14.371,,890,275,204
20:27:14.408,,906,260,157
20:27:14.446,,839,312,114
20:27:14.483,,769,278,109
20:27:14.520,,796,275,91
20:27:14.557,,874,339,111
20:27:14.594,,978,402,131
20:27:14.631,,1029,442,140
20:27:14.668,,997,481,194
20:27:14.705,,991,599,188
20:27:14.742,,1125,486,170
20:27:14.779,,1124,366,130
20:27:14.816,,1521,576,-1
20:27:14.853,,1191,703,83
20:27:14.890,,738,452,167
20:27:14.927,,946,339,-9
20:27:14.964,,1126,397,-84
20:27:15.001,,1025,393,60
20:27:15.038,,933,318,77
20:27:15.075,,966,545,90
20:27:15.112,,1005,703,-1
20:27:15.149,,1105,1024,-121
20:27:15.187,,971,130,-5
20:27:15.224,,784,-246,305
20:27:15.261,,705,30,477
20:27:15.298,,654,50,455
20:27:15.335,,651,-21,446
20:27:15.372,,693,-77,421
20:27:15.409,,990,48,201
20:27:15.446,,832,398,336
20:27:15.483,,922,315,270
20:27:15.520,,1217,251,240
20:27:15.557,,1212,98,242
20:27:15.594,,1022,37,161
20:27:15.631,,889,152,210
20:27:15.668,,892,290,235
20:27:15.705,,873,366,211
20:27:15.742,,830,354,238
20:27:15.779,,806,498,335
20:27:15.816,,825,562,567
20:27:15.853,,849,473,358
20:27:15.891,,1058,52,438
20:27:15.928,,1129,152,457
20:27:15.965,,1168,313,335
20:27:16.002,,1486,478,153
20:27:16.039,,962,578,289
20:27:16.076,,749,408,268
20:27:16.113,,918,447,46
20:27:16.150,,1180,359,-94
20:27:16.187,,1090,283,32
20:27:16.224,,1009,270,105
20:27:16.261,,996,397,99
20:27:16.298,,1080,559,162
20:27:16.335,,1157,949,300
20:27:16.372,,1100,715,103
20:27:16.409,,889,551,62
20:27:16.446,,677,476,181
20:27:16.483,,547,404,614
20:27:16.520,,567,89,939
20:27:16.558,,487,-284,881
20:27:16.595,,460,-529,811
20:27:16.632,,594,-408,739
20:27:16.669,,773,-79,554
20:27:16.706,,1224,196,198
20:27:16.743,,1613,304,-222
20:27:16.780,,1723,545,-442
20:27:16.817,,1377,732,-304
20:27:16.854,,1079,592,-257
20:27:16.891,,903,477,-272
20:27:16.928,,949,290,-288
20:27:16.965,,960,442,-157
20:27:17.002,,901,529,-27
20:27:17.039,,884,625,-9
20:27:17.076,,925,661,-38
20:27:17.113,,998,700,-18
20:27:17.150,,1108,702,41
20:27:17.187,,1433,647,23
20:27:17.224,,968,695,130
20:27:17.262,,940,577,72
20:27:17.299,,1176,521,-100
20:27:17.336,,1252,444,-115
20:27:17.373,,1157,351,-11
20:27:17.410,,1094,315,28
20:27:17.447,,1066,355,-3
20:27:17.484,,1021,369,-28
20:27:17.521,,911,389,-30
20:27:17.558,,800,388,26
20:27:17.595,,728,313,38
20:27:17.632,,644,281,36
20:27:17.669,,604,289,73
20:27:17.706,,640,296,119
20:27:17.743,,892,308,22
20:27:17.780,,904,272,54
20:27:17.817,,1267,480,225
20:27:17.854,,1462,556,237
20:27:17.891,,1368,522,96
20:27:17.929,,1060,506,114
20:27:17.966,,902,111,144
20:27:18.003,,858,98,127
20:27:18.040,,893,357,6
20:27:18.077,,893,617,25
20:27:18.114,,684,378,65
20:27:18.151,,561,342,115
20:27:18.188,,595,359,123
20:27:18.225,,710,383,163
20:27:18.262,,849,411,213
20:27:18.299,,1068,298,58
20:27:18.336,,1598,379,-44
20:27:18.373,,1489,561,104
20:27:18.410,,1168,427,135
20:27:18.447,,932,297,58
20:27:18.484,,897,296,-33
20:27:18.521,,894,381,-12
20:27:18.558,,823,348,2
20:27:18.595,,775,343,-32
20:27:18.633,,827,417,-57
20:27:18.670,,875,471,-69
20:27:18.707,,911,470,-66
20:27:18.744,,905,529,-7
20:27:18.781,,888,522,49
20:27:18.818,,823,530,95
20:27:18.855,,789,540,134
20:27:18.892,,734,406,163
20:27:18.929,,710,369,187
20:27:18.966,,725,343,244
20:27:19.003,,904,284,181
20:27:19.040,,1006,369,76
20:27:19.077,,948,404,228
20:27:19.114,,1000,420,411
20:27:19.151,,980,375,345
20:27:19.188,,1005,268,248
20:27:19.225,,1001,235,156
20:27:19.263,,889,247,250
20:27:19.300,,736,256,208
20:27:19.337,,688,290,173
20:27:19.374,,641,361,204
20:27:19.411,,505,403,275
20:27:19.448,,475,432,349
20:27:19.485,,613,445,338
20:27:19.522,,743,409,336
20:27:19.559,,798,299,285
20:27:19.596,,879,332,272
20:27:19.633,,694,394,331
20:27:19.670,,624,399,263
20:27:19.707,,1427,541,113
20:27:19.744,,1958,911,-168
20:27:19.781,,1714,363,-393
20:27:19.818,,1728,299,-115
20:27:19.855,,1090,404,-63
20:27:19.892,,851,340,-39
20:27:19.930,,851,333,-99
20:27:19.967,,771,314,-114
20:27:20.004,,729,214,-74
20:27:20.041,,738,132,-62
20:27:20.078,,781,290,-39
20:27:20.115,,930,376,102
20:27:20.152,,1454,277,-86
20:27:20.189,,1238,400,242
20:27:20.226,,1199,290,481
20:27:20.263,,1162,56,364
20:27:20.300,,934,-53,251
20:27:20.337,,709,76,110
20:27:20.374,,660,318,83
20:27:20.411,,683,492,50
20:27:20.448,,746,546,77
20:27:20.485,,844,535,97
20:27:20.522,,1016,537,66
20:27:20.559,,1111,548,-24
20:27:20.596,,1132,346,-258
20:27:20.633,,1163,520,-199
20:27:20.671,,1382,942,-205
20:27:20.708,,1122,838,-14
20:27:20.745,,832,788,172
20:27:20.782,,828,651,180
20:27:20.819,,908,473,71
20:27:20.856,,925,443,52
20:27:20.893,,951,466,6
20:27:20.930,,1070,440,-84
20:27:20.967,,1132,371,-82
20:27:21.004,,1037,341,-132
20:27:21.041,,975,491,-61
20:27:21.078,,986,600,-49
20:27:21.115,,1035,290,-88
20:27:21.152,,929,66,-142
20:27:21.189,,684,105,52
20:27:21.226,,787,228,254
20:27:21.263,,1231,459,31
20:27:21.300,,981,525,233
20:27:21.337,,1113,417,374
20:27:21.375,,1270,226,113
20:27:21.412,,1140,108,36
20:27:21.449,,937,145,25
20:27:21.486,,831,332,52
20:27:21.523,,764,466,71
20:27:21.560,,681,489,73
20:27:21.597,,648,513,83
20:27:21.634,,755,517,26
20:27:21.671,,909,553,48
20:27:21.708,,983,506,84
20:27:21.745,,1134,504,70
20:27:21.782,,1463,510,-17
20:27:21.819,,1196,528,60
20:27:21.856,,821,470,172
20:27:21.893,,830,456,61
20:27:21.930,,976,504,-41
20:27:21.967,,960,444,63
20:27:22.005,,903,325,83
20:27:22.042,,923,278,121
20:27:22.079,,951,258,71
20:27:22.116,,947,313,110
20:27:22.153,,911,222,61
20:27:22.190,,982,244,51
20:27:22.227,,1052,710,175
20:27:22.264,,933,620,140
20:27:22.301,,860,519,144
20:27:22.338,,1153,372,-150
20:27:22.375,,720,372,-84
20:27:22.412,,548,526,208
20:27:22.449,,826,530,213
20:27:22.486,,827,404,47
20:27:22.523,,716,244,37
20:27:22.560,,711,243,94
20:27:22.597,,731,327,107
20:27:22.634,,756,360,114
20:27:22.672,,809,387,141
20:27:22.709,,893,435,166
20:27:22.746,,871,396,195
20:27:22.783,,867,386,257
20:27:22.820,,974,454,230
20:27:22.857,,1005,447,154
20:27:22.894,,1122,447,102
20:27:22.931,,1236,722,229
20:27:22.968,,944,508,158
20:27:23.005,,1083,507,129
20:27:23.042,,1181,405,14
20:27:23.079,,1030,288,53
20:27:23.116,,845,294,91
20:27:23.153,,784,422,86
20:27:23.190,,726,474,125
20:27:23.227,,710,400,115
20:27:23.264,,751,451,128
20:27:23.301,,929,513,86
20:27:23.338,,1149,573,99
20:27:23.376,,1362,526,214
20:27:23.413,,1237,315,-22
20:27:23.450,,1001,296,41
20:27:23.487,,917,309,79
20:27:23.524,,825,265,52
20:27:23.561,,687,259,25
20:27:23.598,,588,263,77
20:27:23.635,,538,256,105
20:27:23.672,,535,248,73
20:27:23.709,,606,301,89
20:27:23.746,,699,365,108
20:27:23.783,,815,411,161
20:27:23.820,,905,430,177
20:27:23.857,,934,468,199
20:27:23.894,,978,487,258
20:27:23.931,,1085,424,171
20:27:23.968,,1587,492,79
20:27:24.005,,1368,565,100
20:27:24.042,,924,434,83
20:27:24.080,,1043,397,-79
20:27:24.117,,1038,490,-130
20:27:24.154,,874,425,-32
20:27:24.191,,773,299,-1
20:27:24.228,,864,606,17
20:27:24.265,,984,516,-83
20:27:24.302,,1095,497,-216
20:27:24.339,,1060,383,-139
20:27:24.376,,909,249,-1
20:27:24.413,,789,215,52
20:27:24.450,,708,206,22
20:27:24.487,,638,333,85
20:27:24.524,,652,377,162
20:27:24.561,,790,267,59
20:27:24.598,,1024,286,-19
20:27:24.635,,1231,549,203
20:27:24.672,,1190,557,358
20:27:24.709,,1131,418,312
20:27:24.746,,990,259,201
20:27:24.783,,857,219,156
20:27:24.821,,806,269,135
20:27:24.858,,822,365,135
20:27:24.895,,850,462,152
20:27:24.932,,803,455,160
20:27:24.969,,789,434,168
20:27:25.006,,847,387,177
20:27:25.043,,870,339,175
20:27:25.080,,874,325,188
20:27:25.117,,893,302,162
20:27:25.154,,1027,333,130
20:27:25.191,,1347,450,107
20:27:25.228,,1296,423,74
20:27:25.265,,957,345,43
20:27:25.302,,843,323,-40
20:27:25.339,,960,371,-75
20:27:25.376,,914,438,-5
20:27:25.413,,795,389,-18
20:27:25.450,,753,380,53
20:27:25.487,,733,371,65
20:27:25.525,,691,326,88
20:27:25.562,,663,399,127
20:27:25.599,,726,402,138
20:27:25.636,,793,351,177
20:27:25.673,,923,297,238
20:27:25.710,,1057,257,233
20:27:25.747,,1166,280,189
20:27:25.784,,1404,304,137
20:27:25.821,,1390,369,41
20:27:25.858,,1129,426,163
20:27:25.895,,853,423,222
20:27:25.932,,731,398,229
20:27:25.969,,737,291,147
20:27:26.006,,708,268,98
20:27:26.043,,674,257,70
20:27:26.080,,655,293,49
20:27:26.117,,721,359,96
20:27:26.154,,724,423,250
20:27:26.191,,717,353,271
20:27:26.229,,709,352,294
20:27:26.266,,735,367,319
20:27:26.303,,816,387,337
20:27:26.340,,886,393,400
20:27:26.377,,900,328,280
20:27:26.414,,1264,300,251
20:27:26.451,,1386,532,107
20:27:26.488,,1000,571,5
20:27:26.525,,879,400,189
20:27:26.562,,1000,496,79
20:27:26.599,,966,485,18
20:27:26.636,,835,393,25
20:27:26.673,,791,422,47
20:27:26.710,,781,517,32
20:27:26.747,,785,629,65
20:27:26.784,,842,787,120
20:27:26.821,,920,916,264
20:27:26.858,,1070,785,272
20:27:26.895,,975,526,169
20:27:26.933,,756,439,153
20:27:26.970,,586,418,193
20:27:27.007,,512,282,245
20:27:27.044,,756,219,192
20:27:27.081,,763,233,-78
20:27:27.118,,879,335,35
20:27:27.155,,1117,311,86
20:27:27.192,,1192,284,-1
20:27:27.229,,1030,260,31
20:27:27.266,,850,292,94
20:27:27.303,,821,368,137
20:27:27.340,,842,402,100
20:27:27.377,,823,426,86
20:27:27.414,,797,437,183
20:27:27.451,,836,421,206
20:27:27.488,,871,478,240
20:27:27.525,,965,479,284
20:27:27.563,,1036,416,228
20:27:27.600,,1096,393,150
20:27:27.637,,1520,525,64
20:27:27.674,,1190,663,143
20:27:27.711,,896,454,122
20:27:27.748,,932,380,18
20:27:27.785,,1056,414,-75
20:27:27.822,,968,369,-39
20:27:27.859,,877,329,-14
20:27:27.896,,890,359,-47
20:27:27.933,,944,387,-69
20:27:27.970,,948,415,-55
20:27:28.007,,919,522,7
20:27:28.044,,941,607,10
20:27:28.081,,837,587,30
20:27:28.118,,769,573,266
20:27:28.155,,650,465,190
20:27:28.192,,569,435,214
20:27:28.230,,559,409,272
20:27:28.267,,762,369,212
20:27:28.304,,741,359,164
20:27:28.341,,880,428,294
20:27:28.378,,1069,418,247
20:27:28.415,,1119,340,163
20:27:28.452,,1027,304,143
20:27:28.489,,875,371,155
20:27:28.526,,812,414,170
20:27:28.563,,811,413,116
20:27:28.600,,862,450,98
20:27:28.637,,914,472,132
20:27:28.674,,901,460,159
20:27:28.711,,882,484,202
20:27:28.748,,896,460,242
20:27:28.785,,945,434,189
20:27:28.822,,1167,439,117
20:27:28.859,,1466,542,65
20:27:28.897,,1097,498,84
20:27:28.934,,900,405,83
20:27:28.971,,968,435,-50
20:27:29.008,,1020,432,-79
20:27:29.045,,904,330,-28
20:27:29.082,,848,329,-47
20:27:29.119,,865,454,-57
20:27:29.156,,874,496,-43
20:27:29.193,,833,534,0
20:27:29.230,,791,622,71
20:27:29.267,,759,649,98
20:27:29.304,,729,599,108
20:27:29.341,,691,551,133
20:27:29.378,,663,531,147
20:27:29.415,,651,511,185
20:27:29.452,,770,446,123
20:27:29.489,,873,439,-9
20:27:29.526,,787,467,109
20:27:29.563,,862,499,285
20:27:29.601,,894,459,236
20:27:29.638,,962,311,181
20:27:29.675,,970,239,119
20:27:29.712,,898,307,160
20:27:29.749,,868,351,159
20:27:29.786,,872,390,147
20:27:29.823,,869,406,130
20:27:29.860,,852,412,128
20:27:29.897,,830,414,134
20:27:29.934,,830,463,169
20:27:29.971,,846,448,218
20:27:30.008,,884,452,204
20:27:30.045,,1032,432,141
20:27:30.082,,1600,534,12
20:27:30.119,,1169,602,82
20:27:30.156,,805,479,167
20:27:30.193,,869,453,59
20:27:30.230,,993,479,-46
20:27:30.268,,925,387,25
20:27:30.305,,879,352,28
20:27:30.342,,930,441,6
20:27:30.379,,976,498,9
20:27:30.416,,978,534,35
20:27:30.453,,934,641,108
20:27:30.490,,888,648,136
20:27:30.527,,779,567,147
20:27:30.564,,701,505,194
20:27:30.601,,671,486,211
20:27:30.638,,657,439,262
20:27:30.675,,884,362,134
20:27:30.712,,830,384,49
20:27:30.749,,683,405,238
20:27:30.786,,787,343,277
20:27:30.823,,883,375,223
20:27:30.860,,966,260,164
20:27:30.897,,976,278,96
20:27:30.935,,920,346,185
20:27:30.972,,900,367,184
20:27:31.009,,908,420,183
20:27:31.046,,921,452,165
20:27:31.083,,911,502,183
20:27:31.120,,874,510,236
20:27:31.157,,835,515,225
20:27:31.194,,912,530,216
20:27:31.231,,1012,457,131
20:27:31.268,,1369,492,29
20:27:31.305,,1325,635,39
20:27:31.342,,991,564,137
20:27:31.379,,770,479,100
20:27:31.416,,851,472,-34
20:27:31.453,,953,380,-17
20:27:31.490,,935,291,-1
20:27:31.527,,915,381,20
20:27:31.565,,976,488,8
20:27:31.602,,995,521,22
20:27:31.639,,921,576,98
20:27:31.676,,869,622,158
20:27:31.713,,821,605,179
20:27:31.750,,729,534,145
20:27:31.787,,668,477,168
20:27:31.824,,649,489,163
20:27:31.861,,648,483,167
20:27:31.898,,770,444,112
20:27:31.935,,1008,420,-7
20:27:31.972,,653,389,127
20:27:32.009,,822,385,228
20:27:32.046,,1062,462,213
20:27:32.083,,1067,314,80
20:27:32.120,,960,200,23
20:27:32.157,,936,358,114
20:27:32.194,,867,414,141
20:27:32.231,,851,406,114
20:27:32.269,,844,422,129
20:27:32.306,,832,424,102
20:27:32.343,,807,417,164
20:27:32.380,,815,456,198
20:27:32.417,,942,472,227
20:27:32.454,,1059,426,158
20:27:32.491,,1149,480,133
20:27:32.528,,1500,624,84
20:27:32.565,,974,498,72
20:27:32.602,,748,358,145
20:27:32.639,,890,386,14
20:27:32.676,,1146,445,-91
20:27:32.713,,1067,407,-7
20:27:32.750,,916,346,10
20:27:32.787,,891,438,2
20:27:32.824,,917,507,17
20:27:32.861,,857,548,24
20:27:32.899,,781,627,112
20:27:32.936,,739,553,51
20:27:32.973,,724,484,31
20:27:33.010,,664,470,44
20:27:33.047,,611,448,87
20:27:33.084,,619,422,144
20:27:33.121,,742,408,145
20:27:33.158,,918,405,51
20:27:33.195,,955,381,61
20:27:33.232,,1169,517,261
20:27:33.269,,1272,510,251
20:27:33.306,,1186,346,137
20:27:33.343,,1008,221,83
20:27:33.380,,889,233,71
20:27:33.417,,886,361,73
20:27:33.454,,892,537,114
20:27:33.491,,777,421,82
20:27:33.528,,693,330,-41
20:27:33.565,,715,385,-40
20:27:33.603,,733,420,31
20:27:33.640,,763,398,93
20:27:33.677,,951,381,135
20:27:33.714,,1117,348,119
20:27:33.751,,1524,448,82
20:27:33.788,,1275,626,196
20:27:33.825,,861,259,126
20:27:33.862,,748,233,133
20:27:33.899,,967,422,-32
20:27:33.936,,1093,623,-116
20:27:33.973,,991,496,-91
20:27:34.010,,914,392,-83
20:27:34.047,,920,446,-58
20:27:34.084,,919,466,-69
20:27:34.121,,844,498,-62
20:27:34.158,,782,513,-15
20:27:34.195,,716,511,-21
20:27:34.232,,699,489,26
20:27:34.269,,755,450,0
20:27:34.307,,815,414,-73
20:27:34.344,,954,518,-10
20:27:34.381,,1061,688,83
20:27:34.418,,952,564,84
20:27:34.455,,1014,273,41
20:27:34.492,,998,159,64
20:27:34.529,,856,193,111
20:27:34.566,,814,307,92
20:27:34.603,,834,409,94
20:27:34.640,,812,447,53
20:27:34.677,,779,431,74
20:27:34.714,,804,407,119
20:27:34.751,,825,426,110
20:27:34.788,,797,473,129
20:27:34.825,,857,465,162
20:27:34.862,,1007,452,98
20:27:34.899,,1259,460,42
20:27:34.936,,1430,609,10
20:27:34.973,,947,523,54
20:27:35.011,,828,384,81
20:27:35.048,,982,391,-80
20:27:35.085,,1089,415,-68
20:27:35.122,,1007,377,3
20:27:35.159,,961,355,-31
20:27:35.196,,943,388,-35
20:27:35.233,,916,430,-5
20:27:35.270,,879,532,11
20:27:35.307,,804,530,46
20:27:35.344,,757,525,14
20:27:35.381,,698,539,11
20:27:35.418,,637,473,18
20:27:35.455,,630,475,34
20:27:35.492,,689,520,137
20:27:35.529,,978,412,25
20:27:35.566,,921,424,-44
20:27:35.603,,881,541,253
20:27:35.640,,988,526,308
20:27:35.677,,1079,373,178
20:27:35.715,,974,211,170
20:27:35.752,,861,232,173
20:27:35.789,,808,319,142
20:27:35.826,,783,389,116
20:27:35.863,,810,416,123
20:27:35.900,,833,399,95
20:27:35.937,,841,371,133
20:27:35.974,,800,378,163
20:27:36.011,,740,407,187
20:27:36.048,,762,404,209
20:27:36.085,,835,386,192
20:27:36.122,,837,398,136
20:27:36.159,,1400,523,66
20:27:36.196,,1257,704,137
20:27:36.233,,845,498,109
20:27:36.270,,849,329,73
20:27:36.307,,1062,420,-57
20:27:36.344,,1077,442,-23
20:27:36.381,,964,316,23
20:27:36.419,,929,340,-29
20:27:36.456,,951,433,-97
20:27:36.493,,953,421,-98
20:27:36.530,,935,434,-64
20:27:36.567,,937,558,-58
20:27:36.604,,889,614,-34
20:27:36.641,,782,627,36
20:27:36.678,,712,667,63
20:27:36.715,,682,638,100
20:27:36.752,,677,568,127
20:27:36.789,,668,524,107
20:27:36.826,,760,509,123
20:27:36.863,,841,569,239
20:27:36.900,,745,503,213
20:27:36.937,,703,382,155
20:27:36.974,,786,425,152
20:27:37.011,,801,442,164
20:27:37.048,,724,405,103
20:27:37.085,,720,423,70
20:27:37.123,,788,421,51
20:27:37.160,,833,430,19
20:27:37.197,,923,445,96
20:27:37.234,,992,465,133
20:27:37.271,,1013,505,187
20:27:37.308,,994,471,220
20:27:37.345,,935,421,162
20:27:37.382,,1129,426,82
20:27:37.419,,1576,605,73
20:27:37.456,,1303,577,75
20:27:37.493,,876,407,143
20:27:37.530,,860,381,24
20:27:37.567,,986,465,-39
20:27:37.604,,924,383,23
20:27:37.641,,875,319,-5
20:27:37.678,,861,431,-13
20:27:37.715,,881,460,0
20:27:37.752,,885,474,-20
20:27:37.789,,846,486,28
20:27:37.827,,825,455,22
20:27:37.864,,805,438,30
20:27:37.901,,829,412,55
20:27:37.938,,843,419,107
20:27:37.975,,891,404,164
20:27:38.012,,1189,367,28
20:27:38.049,,939,336,75
20:27:38.086,,906,351,238
20:27:38.123,,996,369,222
20:27:38.160,,994,321,182
20:27:38.197,,878,219,84
20:27:38.234,,814,277,60
20:27:38.271,,806,377,115
20:27:38.308,,790,432,136
20:27:38.345,,802,435,81
20:27:38.382,,846,457,110
20:27:38.419,,852,426,126
20:27:38.456,,855,437,175
20:27:38.493,,861,444,209
20:27:38.531,,881,446,197
20:27:38.568,,884,437,181
20:27:38.605,,1362,525,120
20:27:38.642,,1185,549,95
20:27:38.679,,855,414,118
20:27:38.716,,908,400,65
20:27:38.753,,1059,472,-63
20:27:38.790,,1054,404,-47
20:27:38.827,,936,339,-13
20:27:38.864,,889,386,-50
20:27:38.901,,901,504,-73
20:27:38.938,,916,617,-62
20:27:38.975,,845,1025,89
20:27:39.012,,992,1074,295
20:27:39.049,,908,560,548
20:27:39.086,,686,453,528
20:27:39.123,,530,337,510
20:27:39.160,,328,234,474
20:27:39.198,,280,234,463
20:27:39.235,,341,121,438
20:27:39.272,,509,285,291
20:27:39.309,,527,442,229
20:27:39.346,,672,289,242
20:27:39.383,,832,310,324
20:27:39.420,,949,245,228
20:27:39.457,,1131,200,185
20:27:39.494,,1127,219,187
20:27:39.531,,1084,203,89
20:27:39.568,,1128,315,141
20:27:39.605,,1169,465,144
20:27:39.642,,1076,647,197
20:27:39.679,,995,760,357
20:27:39.716,,877,550,352
20:27:39.753,,830,340,348
20:27:39.790,,953,260,265
20:27:39.827,,1081,372,171
20:27:39.864,,1427,485,45
20:27:39.902,,1392,636,86
20:27:39.939,,1333,606,158
20:27:39.976,,855,514,216
20:27:40.013,,753,453,154
20:27:40.050,,938,497,-3
20:27:40.087,,958,490,-65
20:27:40.124,,1119,501,1
20:27:40.161,,1296,807,141
20:27:40.198,,1300,754,-10
20:27:40.235,,1071,560,0
20:27:40.272,,757,490,106
20:27:40.309,,589,501,113
20:27:40.346,,460,367,152
20:27:40.383,,390,234,132
20:27:40.420,,399,222,144
20:27:40.457,,571,301,122
20:27:40.494,,720,456,-26
20:27:40.531,,784,584,-156
20:27:40.568,,849,721,-90
20:27:40.606,,788,573,25
20:27:40.643,,926,378,83
20:27:40.680,,1208,291,57
20:27:40.717,,1172,407,23
20:27:40.754,,1104,670,434
20:27:40.791,,1141,472,486
20:27:40.828,,1182,252,509
20:27:40.865,,1082,171,485
20:27:40.902,,976,340,399
20:27:40.939,,878,484,298
20:27:40.976,,940,537,208
20:27:41.013,,1009,526,52
20:27:41.050,,893,546,52
20:27:41.087,,1463,609,-153
20:27:41.124,,895,817,-75
20:27:41.161,,783,657,-87
20:27:41.198,,990,451,-188
20:27:41.235,,1118,248,-197
20:27:41.272,,963,329,4
20:27:41.310,,865,384,111
20:27:41.347,,931,461,108
20:27:41.384,,932,471,94
20:27:41.421,,858,374,93
20:27:41.458,,815,345,168
20:27:41.495,,882,368,180
20:27:41.532,,967,390,169
20:27:41.569,,1013,372,229
20:27:41.606,,1032,320,274
20:27:41.643,,1020,230,296
20:27:41.680,,1211,132,-1
20:27:41.717,,918,210,-6
20:27:41.754,,934,345,111
20:27:41.791,,870,428,123
20:27:41.828,,787,386,80
20:27:41.865,,771,296,74
20:27:41.902,,725,352,97
20:27:41.940,,768,355,51
20:27:41.977,,858,323,-14
20:27:42.014,,990,579,-61
20:27:42.051,,926,722,118
20:27:42.088,,811,558,246
20:27:42.125,,862,578,241
20:27:42.162,,1004,622,207
20:27:42.199,,1003,572,150
20:27:42.236,,1082,570,135
20:27:42.273,,1385,757,-5
20:27:42.310,,1035,1013,8
20:27:42.347,,894,690,-25
20:27:42.384,,959,336,-109
20:27:42.421,,1123,288,-35
20:27:42.458,,1084,332,46
20:27:42.495,,992,378,-2
20:27:42.532,,971,376,-71
20:27:42.569,,942,398,-48
20:27:42.607,,903,293,-42
20:27:42.644,,842,224,-46
20:27:42.681,,821,187,17
20:27:42.718,,883,-79,178
20:27:42.755,,936,130,30
20:27:42.792,,812,416,-70
20:27:42.829,,757,862,281
20:27:42.866,,1008,629,207
20:27:42.903,,1065,503,209
20:27:42.940,,1231,409,278
20:27:42.977,,1535,324,140
20:27:43.014,,1253,497,16
20:27:43.051,,881,-17,48
20:27:43.088,,773,-373,-151
20:27:43.125,,729,398,-630
20:27:43.162,,668,1123,-774
20:27:43.199,,641,641,-597
20:27:43.236,,505,416,-262
20:27:43.274,,448,376,-185
20:27:43.311,,472,368,-350
20:27:43.348,,554,513,-443
20:27:43.385,,767,797,-357
20:27:43.422,,1111,729,-537
20:27:43.459,,1502,502,-606
20:27:43.496,,1090,307,45
20:27:43.533,,899,257,-12
20:27:43.570,,799,814,-309
20:27:43.607,,864,1238,-462
20:27:43.644,,1172,919,-519
20:27:43.681,,1322,570,-354
20:27:43.718,,1366,327,-201
20:27:43.755,,1262,342,47
20:27:43.792,,1027,274,62
20:27:43.829,,775,133,106
20:27:43.866,,529,-21,95
20:27:43.903,,323,-225,-13
20:27:43.941,,150,381,-22
20:27:43.978,,269,632,-31
20:27:44.015,,517,632,-190
20:27:44.052,,905,605,-261
20:27:44.089,,1409,1146,436
20:27:44.126,,1620,788,232
20:27:44.163,,1339,-1064,162
20:27:44.200,,1436,-838,422
20:27:44.237,,1404,234,-52
20:27:44.274,,1189,737,-272
20:27:44.311,,1076,656,-354
20:27:44.348,,978,552,-423
20:27:44.385,,766,583,-249
20:27:44.422,,627,375,-223
20:27:44.459,,522,263,-285
20:27:44.496,,480,289,-285
20:27:44.533,,553,304,-189
20:27:44.570,,792,305,-252
20:27:44.607,,1079,315,-496
20:27:44.644,,1406,737,-212
20:27:44.682,,1021,607,-184
20:27:44.719,,1021,807,-285
20:27:44.756,,1083,692,-396
20:27:44.793,,1712,1236,603
20:27:44.830,,729,-898,391
20:27:44.867,,1219,-233,360
20:27:44.904,,920,-41,387
20:27:44.941,,907,202,295
20:27:44.978,,948,155,199
20:27:45.015,,948,236,51
20:27:45.052,,1011,242,-24
20:27:45.089,,1126,370,-70
20:27:45.126,,1084,274,-21
20:27:45.163,,1405,229,7
20:27:45.200,,1383,299,-125
20:27:45.237,,902,424,390
20:27:45.274,,754,168,439
20:27:45.311,,716,42,233
20:27:45.348,,688,118,149
20:27:45.386,,688,275,128
20:27:45.423,,677,349,100
20:27:45.460,,693,380,77
20:27:45.497,,770,401,19
20:27:45.534,,810,453,52
20:27:45.571,,854,408,60
20:27:45.608,,808,386,106
20:27:45.645,,763,386,153
20:27:45.682,,791,430,201
20:27:45.719,,882,429,159
20:27:45.756,,1489,495,8
20:27:45.793,,1419,689,35
20:27:45.830,,824,492,144
20:27:45.867,,781,347,114
20:27:45.904,,988,386,-87
20:27:45.941,,1185,509,-97
20:27:45.978,,1024,462,-11
20:27:46.015,,948,340,26
20:27:46.053,,974,359,-6
20:27:46.090,,995,401,-89
20:27:46.127,,964,444,-42
20:27:46.164,,886,461,13
20:27:46.201,,828,495,75
20:27:46.238,,763,497,103
20:27:46.275,,697,472,103
20:27:46.312,,660,436,142
20:27:46.349,,647,410,196
20:27:46.386,,926,381,63
20:27:46.423,,823,464,81
20:27:46.460,,761,435,248
20:27:46.497,,997,448,283
20:27:46.534,,1067,367,74
20:27:46.571,,1031,245,10
20:27:46.608,,998,263,63
20:27:46.645,,928,353,102
20:27:46.683,,883,386,85
20:27:46.720,,850,382,74
20:27:46.757,,825,400,53
20:27:46.794,,783,403,89
20:27:46.831,,799,412,92
20:27:46.868,,847,435,110
20:27:46.905,,785,431,129
20:27:46.942,,844,463,143
20:27:46.979,,1006,467,119
20:27:47.016,,1010,469,85
20:27:47.053,,1480,624,101
20:27:47.090,,1146,555,75
20:27:47.127,,837,348,138
20:27:47.164,,944,337,49
20:27:47.201,,1306,438,-87
20:27:47.238,,1269,365,-88
20:27:47.275,,999,261,13
20:27:47.313,,836,246,43
20:27:47.350,,773,302,-37
20:27:47.387,,712,325,-48
20:27:47.424,,678,303,-15
20:27:47.461,,706,339,7
20:27:47.498,,686,391,68
20:27:47.535,,551,418,92
20:27:47.572,,432,461,171
20:27:47.609,,409,463,173
20:27:47.646,,464,500,235
20:27:47.683,,719,431,209
20:27:47.720,,1105,651,278
20:27:47.757,,1078,633,836
20:27:47.794,,1891,491,436
20:27:47.831,,1428,247,224
20:27:47.868,,837,-98,284
20:27:47.905,,859,-117,55
20:27:47.943,,894,254,-44
20:27:47.980,,842,667,31
20:27:48.017,,651,503,118
20:27:48.054,,535,381,154
20:27:48.091,,506,361,159
20:27:48.128,,555,353,207
20:27:48.165,,833,343,208
20:27:48.202,,1037,371,185
20:27:48.239,,1535,431,77
20:27:48.276,,1645,710,74
20:27:48.313,,841,669,179
20:27:48.350,,785,344,292
20:27:48.387,,1029,391,56
20:27:48.424,,1071,561,-23
20:27:48.461,,980,452,95
20:27:48.498,,962,297,145
20:27:48.535,,1014,346,84
20:27:48.572,,1089,467,0
20:27:48.610,,1068,481,-13
20:27:48.647,,1018,479,44
20:27:48.684,,909,425,79
20:27:48.721,,799,389,120
20:27:48.758,,729,370,170
20:27:48.795,,700,340,191
20:27:48.832,,906,296,74
20:27:48.869,,729,315,274
20:27:48.906,,635,369,478
20:27:48.943,,871,301,391
20:27:48.980,,1045,202,257
20:27:49.017,,965,73,137
20:27:49.054,,850,156,105
20:27:49.091,,825,316,132
20:27:49.128,,853,393,98
20:27:49.165,,879,448,91
20:27:49.202,,921,491,109
20:27:49.240,,927,550,199
20:27:49.277,,904,581,304
20:27:49.314,,891,522,242
20:27:49.351,,954,476,175
20:27:49.388,,993,450,141
20:27:49.425,,1607,630,25
20:27:49.462,,1036,643,53
20:27:49.499,,681,467,133
20:27:49.536,,974,461,-30
20:27:49.573,,1224,528,-161
20:27:49.610,,1105,388,-105
20:27:49.647,,1070,241,-161
20:27:49.684,,1128,465,-66
20:27:49.721,,1101,341,10
20:27:49.758,,1034,371,47
20:27:49.795,,981,513,39
20:27:49.833,,939,525,-25
20:27:49.870,,724,416,-132
20:27:49.907,,687,269,22
20:27:49.944,,604,278,178
20:27:49.981,,748,272,309
20:27:50.018,,1011,213,166
20:27:50.055,,963,13,273
20:27:50.092,,1136,83,333
20:27:50.129,,1275,190,266
20:27:50.166,,1274,236,247
20:27:50.203,,1145,240,176
20:27:50.240,,1012,286,96
20:27:50.277,,943,317,19
20:27:50.314,,912,358,-60
20:27:50.351,,903,414,-113
20:27:50.388,,849,458,-142
20:27:50.425,,836,550,-75
20:27:50.462,,813,625,13
20:27:50.500,,854,626,34
20:27:50.537,,975,622,22
20:27:50.574,,1297,609,-60
20:27:50.611,,1214,680,-32
20:27:50.648,,780,563,139
20:27:50.685,,841,526,21
20:27:50.722,,1110,556,-130
20:27:50.759,,1252,527,-75
20:27:50.796,,1195,342,-46
20:27:50.833,,1183,288,-52
20:27:50.870,,1188,323,-25
20:27:50.907,,1147,310,-22
20:27:50.944,,1016,304,-22
20:27:50.981,,891,273,25
20:27:51.018,,837,268,39
20:27:51.055,,825,268,54
20:27:51.092,,792,221,121
20:27:51.129,,992,186,35
20:27:51.166,,963,248,64
20:27:51.204,,791,295,307
20:27:51.241,,890,259,310
20:27:51.278,,1105,321,196
20:27:51.315,,1194,250,79
20:27:51.352,,1147,272,60
20:27:51.389,,1037,328,94
20:27:51.426,,969,367,83
20:27:51.463,,944,409,93
20:27:51.500,,889,470,72
20:27:51.537,,821,526,68
20:27:51.574,,781,547,111
20:27:51.611,,851,509,111
20:27:51.648,,976,493,83
20:27:51.685,,1085,486,11
20:27:51.722,,1542,698,-11
20:27:51.759,,780,621,65
20:27:51.796,,890,373,32
20:27:51.834,,1311,378,-129
20:27:51.871,,1185,440,-50
20:27:51.908,,945,291,37
20:27:51.945,,935,294,10
20:27:51.982,,963,346,-12
20:27:52.019,,915,287,-39
20:27:52.056,,889,264,-29
20:27:52.093,,991,310,-94
20:27:52.130,,1130,436,-58
20:27:52.167,,1163,472,38
20:27:52.204,,1222,472,166
20:27:52.241,,1284,437,105
20:27:52.278,,1193,465,136
20:27:52.315,,927,409,186
20:27:52.352,,888,324,136
20:27:52.389,,975,366,108
20:27:52.426,,872,337,126
20:27:52.463,,675,237,48
20:27:52.501,,575,266,20
20:27:52.538,,555,327,24
20:27:52.575,,609,352,-5
20:27:52.612,,750,392,0
20:27:52.649,,892,421,11
20:27:52.686,,920,440,105
20:27:52.723,,838,560,237
20:27:52.760,,906,522,198
20:27:52.797,,1121,353,114
20:27:52.834,,1506,271,37
20:27:52.871,,1491,411,83
20:27:52.908,,1070,399,171
20:27:52.945,,971,331,27
20:27:52.982,,1066,432,-44
20:27:53.019,,989,464,39
20:27:53.056,,845,277,-14
20:27:53.093,,801,304,6
20:27:53.130,,809,344,-47
20:27:53.167,,856,409,-79
20:27:53.205,,887,332,-97
20:27:53.242,,910,244,-32
20:27:53.279,,941,210,34
20:27:53.316,,1002,222,73
20:27:53.353,,1094,276,168
20:27:53.390,,1170,261,195
20:27:53.427,,1231,139,21
20:27:53.464,,1216,199,-14
20:27:53.501,,1033,411,241
20:27:53.538,,705,334,336
20:27:53.575,,756,198,353
20:27:53.612,,709,239,161
20:27:53.649,,666,333,183
20:27:53.686,,636,382,219
20:27:53.723,,681,399,182
20:27:53.760,,766,393,134
20:27:53.797,,820,367,105
20:27:53.834,,843,377,121
20:27:53.872,,845,385,111
20:27:53.909,,926,393,189
20:27:53.946,,970,393,219
20:27:53.983,,1287,376,203
20:27:54.020,,1715,541,215
20:27:54.057,,1432,465,192
20:27:54.094,,923,375,201
20:27:54.131,,843,313,98
20:27:54.168,,956,356,3
20:27:54.205,,842,285,-25
20:27:54.242,,714,202,4
20:27:54.279,,671,220,0
20:27:54.316,,710,260,-5
20:27:54.353,,745,299,38
20:27:54.390,,787,315,70
20:27:54.427,,864,296,79
20:27:54.464,,934,315,79
20:27:54.501,,1031,333,87
20:27:54.538,,1110,364,141
20:27:54.576,,1198,354,159
20:27:54.613,,1392,234,-58
20:27:54.650,,1422,364,21
20:27:54.687,,1048,351,214
20:27:54.724,,896,307,276
20:27:54.761,,822,215,189
20:27:54.798,,681,233,111
20:27:54.835,,591,272,97
20:27:54.872,,585,305,88
20:27:54.909,,608,317,66
20:27:54.946,,687,354,99
20:27:54.983,,739,403,174
20:27:55.020,,810,355,218
20:27:55.057,,842,364,218
20:27:55.094,,870,403,281
20:27:55.131,,970,345,243
20:27:55.168,,1499,295,43
20:27:55.205,,1623,470,55
20:27:55.242,,1202,423,120
20:27:55.280,,802,286,82
20:27:55.317,,876,332,-10
20:27:55.354,,899,415,20
20:27:55.391,,754,329,68
20:27:55.428,,737,226,42
20:27:55.465,,799,309,-9
20:27:55.502,,803,318,-55
20:27:55.539,,807,355,-13
20:27:55.576,,794,363,49
20:27:55.613,,815,323,79
20:27:55.650,,913,332,58
20:27:55.687,,1066,321,-3
20:27:55.724,,1255,449,106
20:27:55.761,,1366,357,118
20:27:55.798,,1369,432,188
20:27:55.835,,746,454,261
20:27:55.872,,639,492,298
20:27:55.910,,609,446,183
20:27:55.947,,567,365,51
20:27:55.984,,544,290,-37
20:27:56.021,,587,237,-100
20:27:56.058,,701,270,-99
20:27:56.095,,769,356,-27
20:27:56.132,,752,353,35
20:27:56.169,,819,377,80
20:27:56.206,,958,460,153
20:27:56.243,,1027,263,188
20:27:56.280,,1068,172,178
20:27:56.317,,1330,371,164
20:27:56.354,,1290,484,138
20:27:56.391,,1143,472,114
20:27:56.428,,939,467,96
20:27:56.465,,919,473,3
20:27:56.502,,944,413,-69
20:27:56.539,,793,352,-139
20:27:56.577,,747,410,-112
20:27:56.614,,832,457,-123
20:27:56.651,,939,479,-190
20:27:56.688,,1011,359,-194
20:27:56.725,,1031,303,-100
20:27:56.762,,1024,276,-71
20:27:56.799,,999,303,-54
20:27:56.836,,963,318,18
20:27:56.873,,927,291,24
20:27:56.910,,935,310,101
20:27:56.947,,1045,285,109
20:27:56.984,,1138,269,-9
20:27:57.021,,1029,426,195
20:27:57.058,,911,436,332
20:27:57.095,,852,361,304
20:27:57.132,,807,233,161
20:27:57.169,,814,240,64
20:27:57.206,,783,264,-1
20:27:57.243,,778,307,7
20:27:57.281,,801,359,31
20:27:57.318,,814,372,-5
20:27:57.355,,800,389,3
20:27:57.392,,776,388,25
20:27:57.429,,805,376,74
20:27:57.466,,819,376,127
20:27:57.503,,832,384,169
20:27:57.540,,972,375,151
20:27:57.577,,1529,464,136
20:27:57.614,,1547,476,88
20:27:57.651,,1034,339,142
20:27:57.688,,820,276,119
20:27:57.725,,849,378,-18
20:27:57.762,,815,423,-21
20:27:57.799,,697,341,39
20:27:57.836,,628,264,-2
20:27:57.873,,710,294,-105
20:27:57.910,,868,460,-177
20:27:57.948,,927,589,-228
20:27:57.985,,905,545,-250
20:27:58.022,,900,461,-231
20:27:58.059,,922,392,-350
20:27:58.096,,871,434,-567
20:27:58.133,,805,559,-667
20:27:58.170,,758,635,-607
20:27:58.207,,788,492,-550
20:27:58.244,,916,263,-497
20:27:58.281,,903,312,-469
20:27:58.318,,825,381,-485
20:27:58.355,,596,467,-298
20:27:58.392,,567,1156,69
20:27:58.429,,612,958,-415
20:27:58.466,,614,81,-375
20:27:58.503,,626,-299,102
20:27:58.540,,803,-558,243
20:27:58.577,,1043,75,208
20:27:58.614,,1110,732,203
20:27:58.652,,993,716,183
20:27:58.689,,923,372,117
20:27:58.726,,981,293,20
20:27:58.763,,943,355,-9
20:27:58.800,,985,347,-4
20:27:58.837,,1191,364,-95
20:27:58.874,,1409,441,-174
20:27:58.911,,1281,512,-103
20:27:58.948,,898,511,-1
20:27:58.985,,683,485,16
20:27:59.022,,755,421,-32
20:27:59.059,,804,398,-38
20:27:59.096,,787,368,9
20:27:59.133,,826,330,13
20:27:59.170,,926,277,4
20:27:59.207,,958,256,-4
20:27:59.244,,973,310,102
20:27:59.281,,969,288,121
20:27:59.318,,932,284,112
20:27:59.355,,831,264,132
20:27:59.393,,768,227,136
20:27:59.430,,840,259,97
20:27:59.467,,1004,331,57
20:27:59.504,,1133,400,61
20:27:59.541,,1484,449,-52
20:27:59.578,,1614,574,-41
20:27:59.615,,1288,593,5
20:27:59.652,,805,382,19
20:27:59.689,,642,145,157
20:27:59.726,,796,245,158
20:27:59.763,,887,317,111
20:27:59.800,,793,408,36
20:27:59.837,,671,304,76
20:27:59.874,,604,299,84
20:27:59.911,,568,298,68
20:27:59.948,,547,286,100
20:27:59.985,,626,308,108
20:28:00.022,,730,364,137
20:28:00.059,,831,354,137
20:28:00.097,,997,342,132
20:28:00.134,,1244,336,109
20:28:00.171,,1562,480,86
20:28:00.208,,1408,578,227
20:28:00.245,,989,438,278
20:28:00.282,,823,315,193
20:28:00.319,,978,345,41
20:28:00.356,,964,367,28
20:28:00.393,,836,297,71
20:28:00.430,,782,275,89
20:28:00.467,,810,304,38
20:28:00.504,,847,339,-35
20:28:00.541,,895,329,-31
20:28:00.578,,945,305,-44
20:28:00.615,,971,327,-25
20:28:00.652,,1045,338,31
20:28:00.689,,1049,266,32
20:28:00.726,,1073,285,65
20:28:00.763,,1108,297,139
20:28:00.801,,1293,214,79
20:28:00.838,,1160,181,-31
20:28:00.875,,1030,360,165
20:28:00.912,,961,388,313
20:28:00.949,,989,362,278
20:28:00.986,,908,252,167
20:28:01.023,,766,214,127
20:28:01.060,,670,231,82
20:28:01.097,,661,254,65
20:28:01.134,,684,282,52
20:28:01.171,,696,382,11
20:28:01.208,,740,381,58
20:28:01.245,,750,378,142
20:28:01.282,,783,333,166
20:28:01.319,,823,240,212
20:28:01.356,,882,260,199
20:28:01.393,,986,309,226
20:28:01.430,,1061,271,166
20:28:01.468,,1418,384,154
20:28:01.505,,1386,485,260
20:28:01.542,,1238,334,220
20:28:01.579,,982,215,169
20:28:01.616,,949,228,88
20:28:01.653,,946,335,46
20:28:01.690,,880,367,40
20:28:01.727,,746,289,21
20:28:01.764,,680,267,12
20:28:01.801,,657,286,-7
20:28:01.838,,645,251,-19
20:28:01.875,,708,274,-6
20:28:01.912,,868,295,-21
20:28:01.949,,1021,303,-33
20:28:01.986,,1177,344,25
20:28:02.023,,1191,381,115
20:28:02.060,,1171,288,158
20:28:02.098,,1501,207,-156
20:28:02.135,,1347,390,38
20:28:02.172,,1057,501,236
20:28:02.209,,835,508,254
20:28:02.246,,769,342,169
20:28:02.283,,741,174,58
20:28:02.320,,676,161,0
20:28:02.357,,658,205,74
20:28:02.394,,657,353,144
20:28:02.431,,704,344,188
20:28:02.468,,698,332,154
20:28:02.505,,724,330,143
20:28:02.542,,756,325,140
20:28:02.579,,755,278,212
20:28:02.616,,793,276,249
20:28:02.653,,942,299,237
20:28:02.691,,1196,328,266
20:28:02.728,,1599,573,338
20:28:02.765,,1446,476,304
20:28:02.802,,1022,284,162
20:28:02.839,,865,308,34
20:28:02.876,,868,420,-69
20:28:02.913,,785,476,-59
20:28:02.950,,708,356,-17
20:28:02.987,,697,276,-3
20:28:03.024,,799,348,-71
20:28:03.061,,877,452,-112
20:28:03.098,,983,393,-53
20:28:03.135,,1009,350,17
20:28:03.172,,956,410,104
20:28:03.209,,909,423,144
20:28:03.246,,907,428,166
20:28:03.283,,897,425,203
20:28:03.320,,890,360,210
20:28:03.358,,1035,342,93
20:28:03.395,,965,416,41
20:28:03.432,,948,495,166
20:28:03.469,,755,448,177
20:28:03.506,,732,299,130
20:28:03.543,,834,263,124
20:28:03.580,,859,300,63
20:28:03.617,,834,289,71
20:28:03.654,,860,314,119
20:28:03.691,,875,354,92
20:28:03.728,,839,375,108
20:28:03.765,,788,371,137
20:28:03.802,,781,364,168
20:28:03.839,,796,348,172
20:28:03.876,,803,363,202
20:28:03.913,,843,368,208
20:28:03.950,,966,386,175
20:28:03.988,,1375,422,136
20:28:04.025,,1581,517,20
20:28:04.062,,1042,418,-5
20:28:04.099,,851,305,97
20:28:04.136,,936,360,-19
20:28:04.173,,928,452,-45
20:28:04.210,,796,358,47
20:28:04.247,,766,262,45
20:28:04.284,,797,285,-26
20:28:04.321,,806,322,-60
20:28:04.358,,799,295,-33
20:28:04.395,,832,377,-63
20:28:04.432,,833,493,-109
20:28:04.469,,795,478,-120
20:28:04.506,,726,466,-162
20:28:04.543,,660,508,-168
20:28:04.580,,646,525,-113
20:28:04.617,,681,598,-18
20:28:04.654,,774,618,84
20:28:04.692,,928,589,169
