Sensors' Acquisition [Hz]: Acc@26.0 
hh:mm:ss.ms, Annotation , AccX [mg], AccY, AccZ
20:21:54.615,,44,279,930
20:21:54.653,,127,267,1343
20:21:54.676,>Walk,,,
20:21:54.690,,28,412,1276
20:21:54.727,,-10,136,981
20:21:54.764,,119,384,827
20:21:54.801,,519,237,1214
20:21:54.838,,323,194,940
20:21:54.875,,362,197,1057
20:21:54.912,,301,101,957
20:21:54.949,,242,94,862
20:21:54.986,,178,17,859
20:21:55.023,,170,-9,890
20:21:55.060,,198,-80,863
20:21:55.097,,179,-78,915
20:21:55.134,,187,-143,938
20:21:55.171,,185,-139,987
20:21:55.296,,136,-174,926
20:21:55.297,,136,-174,926
20:21:55.297,,136,-174,926
20:21:55.320,,85,-216,862
20:21:55.357,,71,-189,820
20:21:55.394,,144,-150,747
20:21:55.431,,234,-161,649
20:21:55.468,,330,177,724
20:21:55.505,,440,331,789
20:21:55.542,,608,135,1130
20:21:55.579,,667,174,1291
20:21:55.616,,561,197,1118
20:21:55.653,,375,410,963
20:21:55.690,,237,359,830
20:21:55.727,,331,501,851
20:21:55.765,,419,562,800
20:21:55.802,,388,435,590
20:21:55.839,,500,386,460
20:21:55.876,,610,427,490
20:21:55.966,,865,445,446
20:21:55.967,,865,445,446
20:21:55.987,,943,371,435
20:21:56.024,,974,163,441
20:21:56.061,,995,64,424
20:21:56.098,,998,62,403
20:21:56.135,,1042,135,444
20:21:56.172,,1118,249,489
20:21:56.209,,1201,313,520
20:21:56.246,,1284,267,415
20:21:56.283,,1587,191,188
20:21:56.320,,1636,319,301
20:21:56.358,,1284,297,326
20:21:56.395,,949,219,212
20:21:56.432,,937,214,120
20:21:56.469,,863,254,78
20:21:56.506,,655,222,122
20:21:56.543,,499,166,86
20:21:56.580,,447,198,170
20:21:56.617,,463,230,128
20:21:56.709,,732,290,261
20:21:56.709,,732,290,261
20:21:56.728,,772,281,288
20:21:56.765,,836,304,376
20:21:56.802,,860,246,311
20:21:56.839,,849,234,283
20:21:56.876,,844,290,323
20:21:56.914,,844,350,340
20:21:56.951,,827,375,388
20:21:56.988,,851,395,392
20:21:57.025,,871,418,402
20:21:57.062,,847,369,391
20:21:57.099,,850,357,326
20:21:57.136,,893,365,278
20:21:57.173,,962,337,221
20:21:57.210,,1102,380,220
20:21:57.247,,1385,408,322
20:21:57.284,,1814,340,478
20:21:57.321,,1682,127,444
20:21:57.358,,1344,-96,287
20:21:57.445,,962,276,86
20:21:57.446,,962,276,86
20:21:57.469,,680,486,256
20:21:57.507,,600,461,190
20:21:57.544,,481,312,-31
20:21:57.581,,444,333,29
20:21:57.618,,508,338,143
20:21:57.655,,632,332,159
20:21:57.692,,803,298,187
20:21:57.729,,875,220,209
20:21:57.766,,968,185,211
20:21:57.803,,930,209,244
20:21:57.840,,869,263,383
20:21:57.877,,870,193,395
20:21:57.914,,1217,97,40
20:21:57.951,,1031,286,175
20:21:57.988,,921,495,579
20:21:58.025,,868,431,735
20:21:58.062,,875,326,648
20:21:58.153,,1027,27,242
20:21:58.154,,1027,27,242
20:21:58.174,,998,120,278
20:21:58.211,,874,276,299
20:21:58.248,,828,323,346
20:21:58.285,,822,332,267
20:21:58.322,,803,369,301
20:21:58.359,,694,321,297
20:21:58.396,,687,268,334
20:21:58.433,,696,231,392
20:21:58.470,,646,241,413
20:21:58.507,,701,265,373
20:21:58.544,,1172,352,309
20:21:58.581,,1339,346,273
20:21:58.618,,1201,282,123
20:21:58.655,,1111,298,190
20:21:58.693,,732,410,227
20:21:58.730,,642,415,221
20:21:58.767,,744,396,159
20:21:58.804,,847,392,126
20:21:58.894,,859,333,23
20:21:58.894,,859,333,23
20:21:58.915,,914,326,20
20:21:58.952,,976,322,46
20:21:58.989,,1030,308,183
20:21:59.026,,1084,242,187
20:21:59.063,,1069,270,209
20:21:59.100,,1043,345,287
20:21:59.137,,1054,366,368
20:21:59.174,,1176,174,175
20:21:59.211,,1302,145,2
20:21:59.248,,1083,330,195
20:21:59.286,,870,527,411
20:21:59.323,,605,212,392
20:21:59.360,,573,154,109
20:21:59.397,,784,255,96
20:21:59.434,,816,329,152
20:21:59.471,,719,330,139
20:21:59.508,,735,269,143
20:21:59.545,,778,257,166
20:21:59.632,,802,311,247
20:21:59.633,,802,311,247
20:21:59.656,,828,233,273
20:21:59.693,,886,266,304
20:21:59.730,,837,315,392
20:21:59.767,,791,273,400
20:21:59.804,,793,234,304
20:21:59.842,,1113,328,251
20:21:59.879,,1273,482,282
20:21:59.916,,1368,406,139
20:21:59.953,,1219,413,178
20:21:59.990,,789,357,169
20:22:00.027,,664,357,93
20:22:00.064,,826,440,51
20:22:00.101,,875,467,56
20:22:00.138,,882,427,53
20:22:00.175,,948,378,102
20:22:00.212,,981,439,223
20:22:00.249,,916,520,210
20:22:00.342,,733,387,310
20:22:00.342,,733,387,310
20:22:00.360,,733,387,310
20:22:00.397,,742,377,293
20:22:00.434,,850,390,332
20:22:00.472,,1082,328,276
20:22:00.509,,1185,216,52
20:22:00.546,,949,280,94
20:22:00.583,,821,438,289
20:22:00.620,,688,399,344
20:22:00.657,,792,271,274
20:22:00.694,,852,213,152
20:22:00.731,,892,233,162
20:22:00.768,,855,296,247
20:22:00.805,,851,319,277
20:22:00.842,,882,369,283
20:22:00.879,,891,404,253
20:22:00.916,,843,392,300
20:22:00.953,,811,350,299
20:22:00.990,,818,382,294
20:22:01.027,,801,341,215
20:22:01.065,,894,352,139
20:22:01.102,,976,468,228
20:22:01.139,,1580,501,238
20:22:01.176,,1330,543,249
20:22:01.213,,841,291,185
20:22:01.250,,725,247,199
20:22:01.287,,878,413,95
20:22:01.324,,1027,408,91
20:22:01.361,,967,283,111
20:22:01.398,,904,283,97
20:22:01.435,,865,315,51
20:22:01.472,,890,285,57
20:22:01.509,,918,264,51
20:22:01.546,,898,262,58
20:22:01.583,,937,250,67
20:22:01.620,,1024,269,86
20:22:01.657,,1112,304,165
20:22:01.694,,1427,237,-33
20:22:01.732,,1249,278,-35
20:22:01.769,,941,418,298
20:22:01.806,,729,358,341
20:22:01.843,,627,314,329
20:22:01.880,,695,276,278
20:22:01.917,,783,254,217
20:22:01.954,,774,257,206
20:22:01.991,,862,459,277
20:22:02.028,,783,378,350
20:22:02.065,,739,230,156
20:22:02.102,,784,100,201
20:22:02.139,,845,171,226
20:22:02.176,,765,236,325
20:22:02.213,,847,181,357
20:22:02.250,,1311,214,223
20:22:02.287,,1501,399,208
20:22:02.325,,993,484,269
20:22:02.362,,698,340,356
20:22:02.399,,797,436,279
20:22:02.436,,1070,543,212
20:22:02.473,,1092,492,243
20:22:02.510,,1068,348,206
20:22:02.547,,1109,303,225
20:22:02.584,,1086,263,309
20:22:02.621,,1047,158,435
20:22:02.658,,970,113,567
20:22:02.695,,890,138,459
20:22:02.732,,790,235,354
20:22:02.769,,728,389,442
20:22:02.806,,833,292,204
20:22:02.843,,938,238,-108
20:22:02.880,,945,508,19
20:22:02.918,,893,478,42
20:22:02.955,,805,478,2
20:22:02.992,,786,539,44
20:22:03.029,,839,453,-28
20:22:03.066,,885,116,-223
20:22:03.103,,927,222,88
20:22:03.140,,820,603,435
20:22:03.177,,873,652,569
20:22:03.214,,813,598,593
20:22:03.251,,842,497,522
20:22:03.288,,784,373,456
20:22:03.325,,917,304,287
20:22:03.362,,1431,407,156
20:22:03.399,,1568,640,159
20:22:03.436,,1242,520,197
20:22:03.474,,919,440,248
20:22:03.511,,762,442,116
20:22:03.548,,919,484,-43
20:22:03.585,,1061,418,-57
20:22:03.622,,1014,341,-50
20:22:03.659,,970,303,29
20:22:03.696,,1000,292,-25
20:22:03.733,,968,310,-38
20:22:03.770,,928,280,-8
20:22:03.807,,886,252,-26
20:22:03.844,,895,308,41
20:22:03.881,,1004,323,147
20:22:03.918,,1000,267,99
20:22:03.955,,1184,144,-70
20:22:03.992,,1036,284,140
20:22:04.029,,815,457,475
20:22:04.067,,833,362,432
20:22:04.104,,850,195,258
20:22:04.141,,819,174,167
20:22:04.178,,847,294,210
20:22:04.215,,866,377,176
20:22:04.252,,830,391,142
20:22:04.289,,829,419,163
20:22:04.326,,809,386,182
20:22:04.363,,781,403,208
20:22:04.400,,827,396,269
20:22:04.437,,890,372,279
20:22:04.474,,1079,348,199
20:22:04.511,,1497,453,141
20:22:04.548,,1283,530,202
20:22:04.585,,790,393,210
20:22:04.623,,645,312,143
20:22:04.660,,854,414,44
20:22:04.697,,995,449,64
20:22:04.734,,908,395,122
20:22:04.771,,929,345,116
20:22:04.808,,1005,352,121
20:22:04.845,,995,331,76
20:22:04.882,,927,429,170
20:22:04.919,,879,368,190
20:22:04.956,,806,313,160
20:22:04.993,,745,337,236
20:22:05.030,,779,355,277
20:22:05.067,,942,305,211
20:22:05.104,,1028,259,81
20:22:05.141,,977,310,270
20:22:05.178,,936,507,292
20:22:05.216,,912,363,204
20:22:05.253,,897,295,211
20:22:05.290,,780,264,197
20:22:05.327,,715,293,189
20:22:05.364,,700,343,230
20:22:05.401,,720,416,253
20:22:05.438,,714,434,294
20:22:05.475,,754,416,312
20:22:05.512,,820,384,313
20:22:05.549,,854,324,281
20:22:05.586,,1029,299,191
20:22:05.623,,1499,409,112
20:22:05.660,,1441,504,122
20:22:05.697,,1029,411,129
20:22:05.734,,733,369,109
20:22:05.771,,814,445,15
20:22:05.809,,881,470,32
20:22:05.846,,814,428,38
20:22:05.883,,805,373,45
20:22:05.920,,896,417,79
20:22:05.957,,934,475,101
20:22:05.994,,874,502,163
20:22:06.031,,859,470,145
20:22:06.068,,837,493,148
20:22:06.105,,873,488,163
20:22:06.142,,932,439,227
20:22:06.179,,977,354,205
20:22:06.216,,1247,269,-34
20:22:06.253,,935,414,72
20:22:06.290,,674,542,344
20:22:06.327,,640,380,336
20:22:06.365,,721,322,200
20:22:06.402,,747,240,107
20:22:06.439,,762,281,150
20:22:06.476,,793,332,198
20:22:06.513,,825,350,219
20:22:06.550,,838,397,178
20:22:06.587,,845,378,279
20:22:06.624,,868,322,298
20:22:06.661,,847,381,301
20:22:06.698,,808,385,328
20:22:06.735,,910,384,261
20:22:06.772,,1556,467,151
20:22:06.809,,1512,550,160
20:22:06.846,,986,435,218
20:22:06.883,,736,301,206
20:22:06.921,,749,358,52
20:22:06.958,,952,479,27
20:22:06.995,,958,414,66
20:22:07.032,,882,273,39
20:22:07.069,,877,281,41
20:22:07.106,,884,396,77
20:22:07.143,,878,401,92
20:22:07.180,,866,335,105
20:22:07.217,,862,308,183
20:22:07.254,,855,235,228
20:22:07.291,,903,200,300
20:22:07.328,,1073,129,246
20:22:07.365,,1327,110,34
20:22:07.402,,1137,200,109
20:22:07.439,,925,379,372
20:22:07.477,,792,685,477
20:22:07.514,,755,227,300
20:22:07.551,,858,78,213
20:22:07.588,,866,70,355
20:22:07.625,,765,108,485
20:22:07.662,,734,78,409
20:22:07.699,,780,76,325
20:22:07.736,,817,195,309
20:22:07.773,,773,55,253
20:22:07.810,,787,-88,203
20:22:07.847,,783,223,115
20:22:07.884,,763,392,-9
20:22:07.921,,1435,703,-243
20:22:07.958,,1367,934,-269
20:22:07.995,,945,661,-21
20:22:08.032,,709,587,270
20:22:08.070,,693,510,45
20:22:08.107,,824,462,-54
20:22:08.144,,824,409,33
20:22:08.181,,846,249,36
20:22:08.218,,902,286,28
20:22:08.255,,935,406,65
20:22:08.292,,928,437,82
20:22:08.329,,932,417,75
20:22:08.366,,953,383,70
20:22:08.403,,952,400,89
20:22:08.440,,932,365,104
20:22:08.477,,950,344,107
20:22:08.514,,961,347,140
20:22:08.551,,1122,301,97
20:22:08.589,,1120,229,99
20:22:08.626,,1038,318,224
20:22:08.663,,890,324,266
20:22:08.700,,742,277,227
20:22:08.737,,724,301,244
20:22:08.774,,737,337,270
20:22:08.811,,692,263,211
20:22:08.848,,662,271,205
20:22:08.885,,718,339,232
20:22:08.922,,787,370,236
20:22:08.959,,810,345,255
20:22:08.996,,826,332,263
20:22:09.033,,780,344,277
20:22:09.070,,762,335,296
20:22:09.107,,925,350,264
20:22:09.145,,1360,411,183
20:22:09.182,,1429,461,188
20:22:09.219,,1164,443,269
20:22:09.256,,799,414,353
20:22:09.293,,671,374,290
20:22:09.330,,937,330,165
20:22:09.367,,1029,320,162
20:22:09.404,,931,335,141
20:22:09.441,,923,359,114
20:22:09.478,,950,403,100
20:22:09.515,,948,416,86
20:22:09.552,,912,408,93
20:22:09.589,,883,372,158
20:22:09.626,,875,342,173
20:22:09.663,,901,325,195
20:22:09.701,,922,266,213
20:22:09.738,,916,125,245
20:22:09.775,,1052,74,166
20:22:09.812,,933,161,185
20:22:09.849,,861,239,300
20:22:09.886,,820,236,278
20:22:09.923,,864,280,200
20:22:09.960,,898,368,178
20:22:09.997,,895,423,210
20:22:10.034,,890,386,250
20:22:10.071,,857,355,233
20:22:10.108,,883,413,249
20:22:10.145,,904,390,271
20:22:10.182,,856,412,254
20:22:10.219,,796,422,294
20:22:10.257,,726,402,265
20:22:10.294,,690,390,253
20:22:10.331,,1050,393,147
20:22:10.368,,1584,501,68
20:22:10.405,,1098,332,27
20:22:10.442,,921,339,143
20:22:10.479,,792,452,159
20:22:10.516,,868,416,102
20:22:10.553,,965,402,90
20:22:10.590,,907,367,102
20:22:10.627,,857,333,80
20:22:10.664,,880,347,80
20:22:10.701,,898,331,78
20:22:10.738,,949,272,84
20:22:10.776,,1017,181,122
20:22:10.813,,1003,159,39
20:22:10.850,,986,263,136
20:22:10.887,,848,326,102
20:22:10.924,,736,382,73
20:22:10.961,,712,457,180
20:22:10.998,,811,487,124
20:22:11.035,,924,416,53
20:22:11.072,,1064,378,-46
20:22:11.109,,1188,445,-42
20:22:11.146,,1169,468,77
20:22:11.183,,1012,453,117
20:22:11.220,,853,434,123
20:22:11.257,,767,366,125
20:22:11.294,,733,384,132
20:22:11.332,,744,428,165
20:22:11.369,,800,412,215
20:22:11.406,,846,430,241
20:22:11.443,,839,431,247
20:22:11.480,,820,381,226
20:22:11.517,,835,382,239
20:22:11.554,,845,384,247
20:22:11.591,,828,402,254
20:22:11.628,,790,381,271
20:22:11.665,,740,371,245
20:22:11.702,,703,377,226
20:22:11.739,,676,362,192
20:22:11.776,,675,350,131
20:22:11.813,,1002,400,50
20:22:11.850,,1254,522,30
20:22:11.888,,962,393,-64
20:22:11.925,,1087,419,-23
20:22:11.962,,965,476,-69
20:22:11.999,,814,414,-66
20:22:12.036,,923,418,-46
20:22:12.073,,1049,467,-52
20:22:12.110,,1024,392,-70
20:22:12.147,,1046,313,-57
20:22:12.184,,1043,267,-36
20:22:12.221,,974,245,-13
20:22:12.258,,912,289,12
20:22:12.295,,890,300,8
20:22:12.332,,889,292,9
20:22:12.369,,891,289,27
20:22:12.406,,887,276,51
20:22:12.443,,914,284,70
20:22:12.481,,1070,250,27
20:22:12.518,,1105,286,-6
20:22:12.555,,1062,278,101
20:22:12.592,,993,193,147
20:22:12.629,,803,565,95
20:22:12.666,,659,655,34
20:22:12.703,,758,629,130
20:22:12.740,,870,585,186
20:22:12.777,,844,492,207
20:22:12.814,,805,384,234
20:22:12.851,,830,313,236
20:22:12.888,,831,295,215
20:22:12.925,,808,366,214
20:22:12.962,,783,379,209
20:22:12.999,,755,366,209
20:22:13.036,,756,343,205
20:22:13.074,,756,340,210
20:22:13.111,,735,306,216
20:22:13.148,,839,337,178
20:22:13.185,,1202,394,99
20:22:13.222,,1371,417,71
20:22:13.259,,1093,370,79
20:22:13.296,,847,387,134
20:22:13.333,,664,408,93
20:22:13.370,,684,389,26
20:22:13.407,,837,447,24
20:22:13.444,,910,450,14
20:22:13.481,,936,402,-33
20:22:13.518,,934,412,-56
20:22:13.555,,920,383,-60
20:22:13.592,,904,425,13
20:22:13.629,,887,427,65
20:22:13.667,,893,453,84
20:22:13.704,,906,441,143
20:22:13.741,,880,430,159
20:22:13.778,,869,452,207
20:22:13.815,,929,416,236
20:22:13.852,,1192,356,35
20:22:13.889,,1192,412,41
20:22:13.926,,1071,525,249
20:22:13.963,,865,512,262
20:22:14.000,,720,366,186
20:22:14.037,,769,217,96
20:22:14.074,,906,259,65
20:22:14.111,,885,282,61
20:22:14.148,,754,369,129
20:22:14.185,,722,413,189
20:22:14.222,,709,417,248
20:22:14.260,,734,329,262
20:22:14.297,,738,190,267
20:22:14.334,,759,171,258
20:22:14.371,,787,211,236
20:22:14.408,,789,240,261
20:22:14.445,,796,273,238
20:22:14.482,,1015,292,156
20:22:14.519,,1544,421,126
20:22:14.556,,1302,395,150
20:22:14.593,,919,319,222
20:22:14.630,,702,366,280
20:22:14.667,,654,430,169
20:22:14.704,,776,311,40
20:22:14.741,,884,377,31
20:22:14.778,,887,538,141
20:22:14.816,,847,393,75
20:22:14.853,,877,370,125
20:22:14.890,,946,416,218
20:22:14.927,,961,337,135
20:22:14.964,,1013,281,88
20:22:15.001,,976,270,131
20:22:15.038,,945,264,134
20:22:15.075,,951,267,141
20:22:15.112,,933,269,98
20:22:15.149,,908,307,86
20:22:15.186,,891,328,112
20:22:15.223,,1152,287,23
20:22:15.260,,1115,303,20
20:22:15.297,,987,375,161
20:22:15.334,,1006,563,314
20:22:15.371,,868,441,296
20:22:15.409,,750,108,194
20:22:15.446,,876,125,194
20:22:15.483,,982,272,183
20:22:15.520,,883,276,199
20:22:15.557,,762,209,158
20:22:15.594,,759,307,75
20:22:15.631,,797,467,241
20:22:15.668,,733,299,317
20:22:15.705,,679,290,304
20:22:15.742,,663,355,311
20:22:15.779,,634,349,306
20:22:15.816,,646,340,313
20:22:15.853,,696,339,290
20:22:15.890,,1725,608,350
20:22:15.928,,1506,555,40
20:22:15.965,,945,290,41
20:22:16.002,,674,302,229
20:22:16.039,,742,450,161
20:22:16.076,,883,481,74
20:22:16.113,,922,323,60
20:22:16.150,,881,330,72
20:22:16.187,,875,334,53
20:22:16.224,,910,341,34
20:22:16.261,,923,321,34
20:22:16.298,,922,302,19
20:22:16.335,,881,300,10
20:22:16.372,,846,307,18
20:22:16.409,,864,310,29
20:22:16.446,,954,339,74
20:22:16.484,,1025,349,117
20:22:16.521,,1204,293,26
20:22:16.558,,1277,319,-35
20:22:16.595,,1123,440,174
20:22:16.632,,988,436,331
20:22:16.669,,758,217,224
20:22:16.706,,721,146,186
20:22:16.743,,847,261,181
20:22:16.780,,826,300,190
20:22:16.817,,743,336,242
20:22:16.854,,766,401,261
20:22:16.891,,845,250,249
20:22:16.928,,865,106,273
20:22:16.965,,848,109,289
20:22:17.002,,812,137,292
20:22:17.039,,764,118,257
20:22:17.077,,744,145,259
20:22:17.114,,741,182,287
20:22:17.151,,755,220,279
20:22:17.188,,941,305,238
20:22:17.225,,1590,492,232
20:22:17.262,,1452,455,183
20:22:17.299,,867,328,229
20:22:17.336,,657,321,319
20:22:17.373,,721,418,226
20:22:17.410,,936,375,111
20:22:17.447,,987,334,68
20:22:17.484,,1009,313,14
20:22:17.521,,1039,323,33
20:22:17.558,,1049,304,36
20:22:17.595,,1066,274,40
20:22:17.633,,1053,247,7
20:22:17.670,,1058,250,-16
20:22:17.707,,1050,209,-35
20:22:17.744,,1000,173,-63
20:22:17.781,,943,237,95
20:22:17.818,,1080,288,216
20:22:17.855,,1172,250,55
20:22:17.892,,813,250,381
20:22:17.929,,738,299,596
20:22:17.966,,773,180,524
20:22:18.003,,819,97,343
20:22:18.040,,935,79,218
20:22:18.077,,933,170,132
20:22:18.114,,866,286,126
20:22:18.151,,845,429,243
20:22:18.188,,830,541,303
20:22:18.226,,770,372,268
20:22:18.263,,717,275,242
20:22:18.300,,738,305,244
20:22:18.337,,713,305,285
20:22:18.374,,705,290,279
20:22:18.411,,888,333,276
20:22:18.448,,1331,374,240
20:22:18.485,,1366,432,152
20:22:18.522,,1032,370,269
20:22:18.559,,966,363,331
20:22:18.596,,810,464,265
20:22:18.633,,683,321,169
20:22:18.670,,782,381,123
20:22:18.707,,901,464,104
20:22:18.744,,910,421,76
20:22:18.782,,911,394,46
20:22:18.819,,1034,289,174
20:22:18.856,,994,546,295
20:22:18.893,,990,857,107
20:22:18.930,,1022,760,66
20:22:18.967,,902,702,162
20:22:19.004,,771,621,178
20:22:19.041,,655,538,160
20:22:19.078,,643,523,136
20:22:19.115,,761,477,99
20:22:19.152,,815,439,3
20:22:19.189,,631,434,72
20:22:19.226,,631,426,214
20:22:19.263,,602,381,349
20:22:19.300,,648,276,322
20:22:19.337,,796,239,106
20:22:19.375,,1006,263,216
20:22:19.412,,1033,412,520
20:22:19.449,,880,319,521
20:22:19.486,,853,423,501
20:22:19.523,,831,546,460
20:22:19.560,,763,519,431
20:22:19.597,,745,523,445
20:22:19.634,,751,376,404
20:22:19.671,,751,324,372
20:22:19.708,,705,331,351
20:22:19.745,,736,260,298
20:22:19.782,,1244,363,176
20:22:19.819,,1692,521,46
20:22:19.856,,1119,367,124
20:22:19.893,,814,297,220
20:22:19.930,,693,216,85
20:22:19.968,,785,-17,29
20:22:20.005,,883,312,-115
20:22:20.042,,772,887,-339
20:22:20.079,,793,1024,-444
20:22:20.116,,892,616,-423
20:22:20.153,,793,612,-388
20:22:20.190,,741,714,-439
20:22:20.227,,670,761,-384
20:22:20.264,,607,678,-334
20:22:20.301,,536,598,-247
20:22:20.338,,495,530,-155
20:22:20.375,,472,591,-55
20:22:20.412,,553,652,24
20:22:20.449,,768,533,-44
20:22:20.486,,783,399,0
20:22:20.523,,853,454,281
20:22:20.561,,836,466,377
20:22:20.598,,973,322,217
20:22:20.635,,1109,244,109
20:22:20.672,,1082,274,85
20:22:20.709,,985,354,160
20:22:20.746,,939,384,196
20:22:20.783,,897,455,182
20:22:20.820,,824,413,157
20:22:20.857,,779,456,153
20:22:20.894,,770,483,210
20:22:20.931,,788,461,281
20:22:20.968,,771,447,339
20:22:21.005,,781,380,324
20:22:21.042,,985,321,201
20:22:21.079,,1343,424,146
20:22:21.116,,1391,568,173
20:22:21.154,,1103,370,165
20:22:21.191,,795,377,198
20:22:21.228,,616,410,134
20:22:21.265,,763,313,22
20:22:21.302,,932,398,42
20:22:21.339,,881,378,83
20:22:21.376,,850,270,135
20:22:21.413,,912,229,284
20:22:21.450,,774,325,120
20:22:21.487,,794,539,195
20:22:21.524,,867,488,211
20:22:21.561,,949,405,161
20:22:21.598,,953,403,221
20:22:21.635,,1008,366,248
20:22:21.672,,1151,283,96
20:22:21.710,,1238,245,-7
20:22:21.747,,1079,296,101
20:22:21.784,,1018,449,289
20:22:21.821,,742,301,283
20:22:21.858,,663,242,252
20:22:21.895,,737,297,184
20:22:21.932,,801,370,240
20:22:21.969,,758,300,256
20:22:22.006,,769,268,256
20:22:22.043,,766,349,225
20:22:22.080,,823,375,260
20:22:22.117,,823,347,295
20:22:22.154,,764,369,321
20:22:22.191,,797,362,350
20:22:22.228,,820,393,340
20:22:22.265,,805,372,345
20:22:22.302,,815,332,289
20:22:22.340,,925,362,235
20:22:22.377,,1457,475,179
20:22:22.414,,1174,516,216
20:22:22.451,,870,371,259
20:22:22.488,,694,380,259
20:22:22.525,,696,424,136
20:22:22.562,,860,422,102
20:22:22.599,,938,433,168
20:22:22.636,,870,374,132
20:22:22.673,,836,394,84
20:22:22.710,,890,435,88
20:22:22.747,,941,403,74
20:22:22.784,,951,430,102
20:22:22.821,,983,601,201
20:22:22.858,,910,638,241
20:22:22.896,,859,635,272
20:22:22.933,,809,597,355
20:22:22.970,,826,541,384
20:22:23.007,,863,664,539
20:22:23.044,,926,734,694
20:22:23.081,,1222,544,-30
20:22:23.118,,794,609,-1087
20:22:23.155,,660,1405,-1559
20:22:23.192,,741,1085,-765
20:22:23.229,,565,348,-136
20:22:23.266,,276,-77,-137
20:22:23.303,,151,151,-163
20:22:23.340,,-2,116,-279
20:22:23.377,,-67,93,-562
20:22:23.414,,-71,101,-832
20:22:23.451,,-81,109,-1011
20:22:23.489,,-161,152,-1041
20:22:23.526,,-170,207,-1036
20:22:23.563,,-208,256,-1040
20:22:23.600,,-207,282,-966
20:22:23.637,,-162,234,-975
20:22:23.674,,-158,185,-955
20:22:23.711,,-86,249,-917
20:22:23.748,,183,166,-1187
20:22:23.785,,106,153,-1235
20:22:23.822,,-125,182,-1009
20:22:23.859,,-143,94,-939
20:22:23.896,,-113,-59,-911
20:22:23.933,,-98,-62,-861
20:22:23.970,,-87,-24,-817
20:22:24.007,,-80,-45,-1037
20:22:24.045,,-44,128,-1027
20:22:24.082,,-52,142,-987
20:22:24.119,,-31,135,-1029
20:22:24.156,,-44,161,-1018
20:22:24.193,,-35,190,-935
20:22:24.230,,-54,186,-910
20:22:24.267,,-56,263,-887
20:22:24.304,,-31,251,-926
20:22:24.341,,79,290,-912
20:22:24.378,,201,153,-944
20:22:24.415,,186,431,-770
20:22:24.452,,215,576,-619
20:22:24.489,,298,490,-572
20:22:24.526,,308,763,-552
20:22:24.563,,126,1342,-1158
20:22:24.600,,-62,733,-1734
20:22:24.638,,627,-339,-897
20:22:24.675,,1032,-1451,108
20:22:24.712,,1432,-1138,273
20:22:24.749,,1625,-84,19
20:22:24.786,,1419,897,211
20:22:24.823,,1081,716,335
20:22:24.860,,866,509,432
20:22:24.897,,864,340,404
20:22:24.934,,920,296,260
20:22:24.971,,1114,214,141
20:22:25.008,,1367,465,184
20:22:25.045,,947,438,196
20:22:25.082,,734,424,241
20:22:25.119,,627,414,202
20:22:25.156,,845,498,77
20:22:25.194,,1030,533,1
20:22:25.231,,988,376,-15
20:22:25.268,,938,341,-4
20:22:25.305,,946,411,-24
20:22:25.342,,974,810,-47
20:22:25.379,,1168,735,-151
20:22:25.416,,1113,101,67
20:22:25.453,,1073,20,326
20:22:25.490,,962,230,380
20:22:25.527,,842,155,340
20:22:25.564,,711,32,333
20:22:25.601,,676,63,369
20:22:25.638,,825,21,380
20:22:25.675,,862,52,367
20:22:25.712,,966,67,459
20:22:25.749,,1027,-24,543
20:22:25.787,,915,-133,378
20:22:25.824,,894,-145,229
20:22:25.861,,1014,76,241
20:22:25.898,,1047,301,302
20:22:25.935,,944,181,172
20:22:25.972,,933,213,68
20:22:26.009,,927,406,61
20:22:26.046,,873,410,38
20:22:26.083,,848,397,84
20:22:26.120,,798,405,99
20:22:26.157,,745,436,119
20:22:26.194,,706,414,212
20:22:26.231,,839,335,272
20:22:26.268,,1100,397,313
20:22:26.305,,1426,490,299
20:22:26.342,,1355,432,302
20:22:26.380,,1048,443,379
20:22:26.417,,701,405,344
20:22:26.454,,586,349,200
20:22:26.491,,748,336,101
20:22:26.528,,987,351,87
20:22:26.565,,1118,358,91
20:22:26.602,,1013,350,66
20:22:26.639,,1008,396,85
20:22:26.676,,977,401,82
20:22:26.713,,962,424,133
20:22:26.750,,915,441,176
20:22:26.787,,750,402,182
20:22:26.824,,628,386,224
20:22:26.861,,600,392,262
20:22:26.898,,702,371,230
20:22:26.935,,908,368,207
20:22:26.973,,1003,388,347
20:22:27.010,,1004,327,403
20:22:27.047,,914,229,324
20:22:27.084,,946,175,215
20:22:27.121,,1018,238,158
20:22:27.158,,947,280,139
20:22:27.195,,862,295,119
20:22:27.232,,824,324,175
20:22:27.269,,817,342,88
20:22:27.306,,818,452,61
20:22:27.343,,821,465,88
20:22:27.380,,822,502,109
20:22:27.417,,806,505,202
20:22:27.454,,754,429,211
20:22:27.491,,820,398,187
20:22:27.529,,1438,483,48
20:22:27.566,,1321,424,36
20:22:27.603,,1019,432,126
20:22:27.640,,869,440,149
20:22:27.677,,835,475,61
20:22:27.714,,964,437,6
20:22:27.751,,1126,515,-1
20:22:27.788,,1077,506,0
20:22:27.825,,979,508,19
20:22:27.862,,927,493,95
20:22:27.899,,770,318,88
20:22:27.936,,738,1052,191
20:22:27.973,,751,1067,434
20:22:28.010,,585,919,353
20:22:28.047,,514,817,277
20:22:28.084,,447,672,227
20:22:28.122,,382,546,243
20:22:28.159,,421,457,230
20:22:28.196,,589,391,109
20:22:28.233,,594,333,67
20:22:28.270,,547,387,213
20:22:28.307,,501,482,381
20:22:28.344,,719,275,145
20:22:28.381,,968,758,121
20:22:28.418,,915,624,211
20:22:28.455,,798,819,123
20:22:28.492,,767,824,137
20:22:28.529,,753,766,115
20:22:28.566,,756,693,152
20:22:28.603,,798,675,191
20:22:28.640,,876,646,182
20:22:28.678,,893,602,115
20:22:28.715,,771,587,87
20:22:28.752,,782,577,110
20:22:28.789,,799,515,112
20:22:28.826,,1065,487,178
20:22:28.863,,1412,575,127
20:22:28.900,,1073,542,139
20:22:28.937,,909,539,191
20:22:28.974,,703,508,139
20:22:29.011,,717,469,82
20:22:29.048,,983,452,4
20:22:29.085,,1089,452,-48
20:22:29.122,,1004,350,-59
20:22:29.159,,950,400,-53
20:22:29.196,,923,497,-66
20:22:29.234,,862,554,65
20:22:29.271,,799,615,171
20:22:29.308,,784,712,305
20:22:29.345,,760,622,364
20:22:29.382,,660,509,376
20:22:29.419,,593,433,423
20:22:29.456,,562,411,447
20:22:29.493,,565,343,443
20:22:29.530,,786,366,314
20:22:29.567,,699,350,297
20:22:29.604,,731,317,371
20:22:29.641,,882,358,367
20:22:29.678,,1012,298,247
20:22:29.715,,1070,205,111
20:22:29.752,,1055,281,92
20:22:29.789,,961,351,134
20:22:29.827,,923,343,74
20:22:29.864,,919,381,110
20:22:29.901,,901,398,86
20:22:29.938,,876,417,96
20:22:29.975,,876,435,126
20:22:30.012,,861,484,176
20:22:30.049,,828,477,204
20:22:30.086,,883,493,224
20:22:30.123,,952,496,201
20:22:30.160,,1403,539,117
20:22:30.197,,1306,607,101
20:22:30.234,,887,484,156
20:22:30.271,,704,421,138
20:22:30.308,,792,457,22
20:22:30.345,,1076,491,-11
20:22:30.383,,1095,397,-40
20:22:30.420,,1008,309,-69
20:22:30.457,,984,301,-71
20:22:30.494,,1006,317,-57
20:22:30.531,,1000,281,-6
20:22:30.568,,957,265,3
20:22:30.605,,942,305,30
20:22:30.642,,909,311,57
20:22:30.679,,873,323,104
20:22:30.716,,846,293,147
20:22:30.753,,921,308,158
20:22:30.790,,1107,298,48
20:22:30.827,,892,316,170
20:22:30.864,,914,437,296
20:22:30.901,,886,512,337
20:22:30.938,,851,380,258
20:22:30.976,,907,300,185
20:22:31.013,,1030,300,170
20:22:31.050,,972,278,98
20:22:31.087,,850,278,104
20:22:31.124,,809,322,109
20:22:31.161,,791,380,86
20:22:31.198,,760,397,112
20:22:31.235,,753,342,163
20:22:31.272,,761,323,148
20:22:31.309,,750,335,185
20:22:31.346,,832,321,223
20:22:31.383,,890,294,188
20:22:31.420,,1277,314,166
20:22:31.457,,1508,398,68
20:22:31.494,,1134,311,-5
20:22:31.531,,853,331,140
20:22:31.569,,680,409,187
20:22:31.606,,658,374,93
20:22:31.643,,823,345,21
20:22:31.680,,1037,405,7
20:22:31.717,,1020,375,-20
20:22:31.754,,903,331,0
20:22:31.791,,883,360,40
20:22:31.828,,905,375,17
20:22:31.865,,901,337,9
20:22:31.902,,880,326,11
20:22:31.939,,846,336,12
20:22:31.976,,810,339,22
20:22:32.013,,827,362,37
20:22:32.050,,861,394,56
20:22:32.087,,910,394,82
20:22:32.125,,1293,359,17
20:22:32.162,,1300,349,-5
20:22:32.199,,1083,395,186
20:22:32.236,,1013,441,269
20:22:32.273,,826,321,156
20:22:32.310,,712,284,157
20:22:32.347,,841,273,244
20:22:32.384,,953,313,230
20:22:32.421,,889,282,197
20:22:32.458,,795,229,185
20:22:32.495,,763,223,156
20:22:32.532,,778,250,156
20:22:32.569,,757,237,155
20:22:32.606,,768,236,169
20:22:32.644,,803,280,166
20:22:32.681,,761,312,205
20:22:32.718,,780,302,238
20:22:32.755,,839,300,206
20:22:32.792,,877,305,162
20:22:32.829,,1209,340,124
20:22:32.866,,1359,448,91
20:22:32.903,,1208,400,26
20:22:32.940,,975,407,148
20:22:32.977,,725,450,168
20:22:33.014,,661,409,113
20:22:33.051,,854,408,49
20:22:33.088,,1037,455,0
20:22:33.125,,980,383,-32
20:22:33.162,,911,355,9
20:22:33.200,,948,419,10
20:22:33.237,,1000,434,-2
20:22:33.274,,981,397,16
20:22:33.311,,936,403,21
20:22:33.348,,883,420,40
20:22:33.385,,818,436,81
20:22:33.422,,814,427,146
20:22:33.459,,908,404,178
20:22:33.496,,1198,344,21
20:22:33.533,,1068,352,54
20:22:33.570,,942,411,255
20:22:33.607,,761,419,353
20:22:33.644,,662,293,235
20:22:33.681,,754,223,127
20:22:33.718,,917,287,151
20:22:33.756,,921,278,166
20:22:33.793,,838,270,187
20:22:33.830,,809,289,213
20:22:33.867,,822,297,170
20:22:33.904,,802,285,188
20:22:33.941,,770,295,213
20:22:33.978,,757,323,236
20:22:34.015,,761,317,257
20:22:34.052,,762,323,260
20:22:34.089,,822,327,256
20:22:34.126,,909,325,229
20:22:34.163,,1042,344,184
20:22:34.200,,1313,446,174
20:22:34.237,,1334,454,130
20:22:34.274,,1281,445,125
20:22:34.312,,866,438,186
20:22:34.349,,621,413,185
20:22:34.386,,719,402,84
20:22:34.423,,953,419,24
20:22:34.460,,1042,416,30
20:22:34.497,,982,327,70
20:22:34.534,,1003,256,79
20:22:34.571,,981,31,42
20:22:34.608,,951,327,104
20:22:34.645,,974,694,15
20:22:34.682,,948,689,52
20:22:34.719,,884,744,113
20:22:34.756,,775,735,96
20:22:34.793,,653,609,105
20:22:34.830,,556,560,132
20:22:34.868,,492,533,155
20:22:34.905,,579,470,99
20:22:34.942,,647,474,46
20:22:34.979,,574,476,150
20:22:35.016,,711,542,295
20:22:35.053,,744,529,380
20:22:35.090,,905,304,280
20:22:35.127,,1018,161,157
20:22:35.164,,1051,192,190
20:22:35.201,,968,264,191
20:22:35.238,,932,330,153
20:22:35.275,,933,401,153
20:22:35.312,,899,418,125
20:22:35.349,,862,414,125
20:22:35.386,,848,419,135
20:22:35.423,,848,426,128
20:22:35.461,,804,442,97
20:22:35.498,,778,492,129
20:22:35.535,,793,511,159
20:22:35.572,,1219,498,112
20:22:35.609,,1448,504,15
20:22:35.646,,1076,477,67
20:22:35.683,,976,489,142
20:22:35.720,,771,520,135
20:22:35.757,,753,413,52
20:22:35.794,,917,403,-9
20:22:35.831,,1080,464,-33
20:22:35.868,,1063,452,-76
20:22:35.905,,1001,415,-117
20:22:35.942,,965,383,-96
20:22:35.979,,906,459,-63
20:22:36.016,,829,489,-35
20:22:36.054,,780,477,33
20:22:36.091,,715,432,82
20:22:36.128,,680,410,103
20:22:36.165,,680,387,130
20:22:36.202,,687,367,213
20:22:36.239,,842,312,149
20:22:36.276,,1108,351,70
20:22:36.313,,992,344,211
20:22:36.350,,1057,402,247
20:22:36.387,,998,467,249
20:22:36.424,,928,355,168
20:22:36.461,,966,330,152
20:22:36.498,,1016,366,185
20:22:36.535,,958,341,175
20:22:36.572,,870,331,155
20:22:36.610,,833,355,128
20:22:36.647,,829,400,164
20:22:36.684,,766,380,173
20:22:36.721,,734,345,163
20:22:36.758,,780,273,237
20:22:36.795,,747,218,232
20:22:36.832,,753,241,282
20:22:36.869,,811,247,286
20:22:36.906,,882,256,224
20:22:36.943,,1188,351,219
20:22:36.980,,1462,464,164
20:22:37.017,,1189,417,126
20:22:37.054,,899,395,201
20:22:37.091,,630,434,154
20:22:37.128,,788,451,46
20:22:37.166,,946,472,3
20:22:37.203,,898,408,-8
20:22:37.240,,857,419,21
20:22:37.277,,886,386,17
20:22:37.314,,889,547,-21
20:22:37.351,,1063,750,9
20:22:37.388,,1031,89,131
20:22:37.425,,979,8,284
20:22:37.462,,924,66,310
20:22:37.499,,852,-10,346
20:22:37.536,,808,-102,382
20:22:37.573,,1058,-63,252
20:22:37.610,,1070,57,307
20:22:37.647,,903,56,277
20:22:37.684,,877,182,323
20:22:37.722,,924,322,242
20:22:37.759,,970,324,76
20:22:37.796,,935,306,28
20:22:37.833,,868,317,86
20:22:37.870,,826,292,86
20:22:37.907,,798,298,27
20:22:37.944,,785,564,72
20:22:37.981,,744,877,69
20:22:38.018,,749,327,116
20:22:38.055,,768,-68,371
20:22:38.092,,832,12,502
20:22:38.129,,939,92,450
20:22:38.166,,1026,4,344
20:22:38.203,,1222,103,340
20:22:38.240,,1465,350,430
20:22:38.277,,1092,420,420
20:22:38.315,,872,274,313
20:22:38.352,,827,364,214
20:22:38.389,,1049,415,114
20:22:38.426,,1125,346,136
20:22:38.463,,1016,295,218
20:22:38.500,,959,307,231
20:22:38.537,,1014,364,233
20:22:38.574,,1050,383,221
20:22:38.611,,955,386,277
20:22:38.648,,852,329,320
20:22:38.685,,707,311,365
20:22:38.722,,602,273,407
20:22:38.759,,549,229,405
20:22:38.796,,554,195,427
20:22:38.833,,685,174,381
20:22:38.871,,912,180,305
20:22:38.908,,992,218,406
20:22:38.945,,1144,296,538
20:22:38.982,,1073,257,493
20:22:39.019,,998,69,276
20:22:39.056,,1066,30,93
20:22:39.093,,1050,186,66
20:22:39.130,,957,345,77
20:22:39.167,,843,417,92
20:22:39.204,,749,401,106
20:22:39.241,,685,445,131
20:22:39.278,,660,476,292
20:22:39.315,,745,405,307
20:22:39.352,,799,346,327
20:22:39.389,,866,303,353
20:22:39.427,,986,351,339
20:22:39.464,,1160,415,271
20:22:39.501,,1451,530,194
20:22:39.538,,984,454,265
20:22:39.575,,949,387,338
20:22:39.612,,770,447,292
20:22:39.649,,792,379,162
20:22:39.686,,1000,403,48
20:22:39.723,,1107,495,77
20:22:39.760,,1035,424,186
20:22:39.797,,1066,325,284
20:22:39.834,,1220,349,239
20:22:39.871,,1204,350,205
20:22:39.908,,1059,275,389
20:22:39.945,,844,262,439
20:22:39.983,,634,203,360
20:22:40.020,,506,225,355
20:22:40.057,,468,210,358
20:22:40.094,,520,175,358
20:22:40.131,,811,145,192
20:22:40.168,,1010,226,49
20:22:40.205,,1055,414,150
20:22:40.242,,1128,476,125
20:22:40.279,,1078,414,33
20:22:40.316,,1069,264,114
20:22:40.353,,1103,250,174
20:22:40.390,,1038,202,345
20:22:40.427,,913,250,351
20:22:40.464,,837,348,330
20:22:40.501,,825,383,280
20:22:40.538,,802,410,251
20:22:40.576,,813,412,252
20:22:40.613,,784,453,250
20:22:40.650,,794,467,259
20:22:40.687,,905,464,218
20:22:40.724,,919,467,185
20:22:40.761,,1337,522,115
20:22:40.798,,1343,601,83
20:22:40.835,,867,418,126
20:22:40.872,,788,344,181
20:22:40.909,,844,419,68
20:22:40.946,,1082,474,-28
20:22:40.983,,1165,464,-10
20:22:41.020,,1058,475,1
20:22:41.057,,1021,353,-15
20:22:41.094,,1023,268,-18
20:22:41.131,,986,321,33
20:22:41.169,,898,410,127
20:22:41.206,,781,470,230
20:22:41.243,,661,499,328
20:22:41.280,,546,474,336
20:22:41.317,,518,418,388
20:22:41.354,,520,390,444
20:22:41.391,,555,279,455
20:22:41.428,,800,199,331
20:22:41.465,,1075,378,303
20:22:41.502,,759,426,428
20:22:41.539,,791,362,513
20:22:41.576,,882,408,370
20:22:41.613,,955,215,177
20:22:41.650,,1049,139,62
20:22:41.687,,1076,289,123
20:22:41.725,,1040,496,267
20:22:41.762,,964,510,257
20:22:41.799,,865,468,216
20:22:41.836,,918,379,142
20:22:41.873,,908,383,165
20:22:41.910,,872,468,209
20:22:41.947,,833,472,186
20:22:41.984,,860,442,128
20:22:42.021,,899,439,100
20:22:42.058,,912,400,46
20:22:42.095,,1115,394,13
20:22:42.132,,1210,382,10
20:22:42.169,,1152,294,-34
20:22:42.206,,1258,275,-105
20:22:42.243,,1272,311,-134
20:22:42.280,,1100,317,-106
20:22:42.318,,861,271,-91
20:22:42.355,,730,342,-83
20:22:42.392,,641,352,-112
20:22:42.429,,603,373,-121
20:22:42.466,,598,497,-114
20:22:42.503,,614,605,-73
20:22:42.540,,655,574,-52
20:22:42.577,,737,562,4
20:22:42.614,,844,613,223
20:22:42.651,,913,529,734
20:22:42.688,,1013,583,1104
20:22:42.725,,1023,306,752
20:22:42.762,,909,183,419
20:22:42.799,,882,371,243
20:22:42.837,,867,476,166
20:22:42.874,,876,541,162
20:22:42.911,,1007,554,-9
20:22:42.948,,1204,472,-156
20:22:42.985,,1071,330,-106
20:22:43.022,,1021,278,-55
20:22:43.059,,909,269,3
20:22:43.096,,806,218,-43
20:22:43.133,,842,245,-132
20:22:43.170,,913,330,-120
20:22:43.207,,829,413,-114
20:22:43.244,,713,544,185
20:22:43.281,,678,810,459
20:22:43.318,,866,593,219
20:22:43.355,,946,45,265
20:22:43.392,,834,-169,293
20:22:43.430,,853,51,267
20:22:43.467,,872,292,266
20:22:43.504,,790,372,200
20:22:43.541,,749,303,146
20:22:43.578,,982,274,42
20:22:43.615,,1466,484,-13
20:22:43.652,,1079,579,140
20:22:43.689,,803,402,261
20:22:43.726,,781,311,193
20:22:43.763,,1050,444,36
20:22:43.800,,1106,548,-8
20:22:43.837,,935,432,85
20:22:43.874,,834,369,168
20:22:43.911,,904,391,247
20:22:43.948,,921,422,224
20:22:43.986,,908,514,315
20:22:44.023,,912,491,377
20:22:44.060,,872,458,335
20:22:44.097,,803,495,340
20:22:44.134,,739,499,333
20:22:44.171,,688,448,292
20:22:44.208,,653,399,266
20:22:44.245,,669,367,196
20:22:44.282,,933,338,47
20:22:44.319,,1121,478,56
20:22:44.356,,1090,470,76
20:22:44.393,,1079,449,114
20:22:44.430,,932,357,80
20:22:44.467,,901,143,-63
20:22:44.504,,1088,177,-92
20:22:44.542,,1074,396,-78
20:22:44.579,,896,435,-44
20:22:44.616,,755,317,-65
20:22:44.653,,759,324,-80
20:22:44.690,,828,323,-75
20:22:44.727,,898,345,-73
20:22:44.764,,905,426,-2
20:22:44.801,,847,474,153
20:22:44.838,,861,495,191
20:22:44.875,,895,462,176
20:22:44.912,,863,403,187
20:22:44.949,,904,437,152
20:22:44.986,,1187,530,98
20:22:45.023,,1040,520,90
20:22:45.060,,1009,468,116
20:22:45.097,,822,506,109
20:22:45.135,,852,545,84
20:22:45.172,,1045,497,45
20:22:45.209,,1069,350,6
20:22:45.246,,1000,312,48
20:22:45.283,,939,313,102
20:22:45.320,,908,336,197
20:22:45.357,,861,300,215
20:22:45.394,,828,198,264
20:22:45.431,,847,173,254
20:22:45.468,,828,212,250
20:22:45.505,,737,268,279
20:22:45.542,,735,277,290
20:22:45.579,,996,260,125
20:22:45.616,,1325,316,40
20:22:45.653,,1044,365,193
20:22:45.691,,946,445,363
20:22:45.728,,843,369,150
20:22:45.765,,885,243,-11
20:22:45.802,,1038,281,50
20:22:45.839,,1000,394,105
20:22:45.876,,807,411,176
20:22:45.913,,701,351,177
20:22:45.950,,720,358,154
20:22:45.987,,752,356,166
20:22:46.024,,797,350,168
20:22:46.061,,734,370,175
20:22:46.098,,694,368,196
20:22:46.135,,750,363,163
20:22:46.172,,975,370,47
20:22:46.209,,1422,562,59
20:22:46.246,,1111,472,-54
20:22:46.284,,1284,440,-115
20:22:46.321,,1013,421,-119
20:22:46.358,,888,344,-78
20:22:46.395,,955,365,-73
20:22:46.432,,977,368,-87
20:22:46.469,,984,311,-80
20:22:46.506,,977,279,-71
20:22:46.543,,934,296,-70
20:22:46.580,,906,366,-44
20:22:46.617,,852,364,-28
20:22:46.654,,799,410,9
20:22:46.691,,743,390,59
20:22:46.728,,722,358,144
20:22:46.765,,949,344,164
20:22:46.803,,1266,387,119
20:22:46.840,,755,307,374
20:22:46.877,,696,213,402
20:22:46.914,,1054,395,319
20:22:46.951,,1047,304,219
20:22:46.988,,917,188,150
20:22:47.025,,868,269,241
20:22:47.062,,997,426,319
20:22:47.099,,931,388,270
20:22:47.136,,858,338,226
20:22:47.173,,895,334,196
20:22:47.210,,868,352,203
20:22:47.247,,821,362,203
20:22:47.284,,802,388,230
20:22:47.322,,759,351,190
20:22:47.359,,787,331,174
20:22:47.396,,818,329,175
20:22:47.433,,826,317,160
20:22:47.470,,871,315,130
20:22:47.507,,1192,382,119
20:22:47.544,,1081,399,101
20:22:47.581,,831,278,28
20:22:47.618,,888,295,15
20:22:47.655,,1029,356,-13
20:22:47.692,,1054,330,-11
20:22:47.729,,967,292,-4
20:22:47.766,,924,320,-3
20:22:47.803,,932,310,-18
20:22:47.841,,971,299,23
20:22:47.878,,951,271,20
20:22:47.915,,891,255,40
20:22:47.952,,860,324,67
20:22:47.989,,865,374,74
20:22:48.026,,888,363,105
20:22:48.063,,921,379,159
20:22:48.100,,989,338,166
20:22:48.137,,1066,289,122
20:22:48.174,,1078,355,147
20:22:48.211,,925,377,260
20:22:48.248,,873,358,284
20:22:48.285,,941,331,248
20:22:48.322,,960,267,161
20:22:48.359,,932,261,137
20:22:48.396,,927,283,166
20:22:48.434,,896,288,167
20:22:48.471,,825,244,157
20:22:48.508,,864,215,136
20:22:48.545,,833,259,149
20:22:48.582,,767,282,206
20:22:48.619,,772,276,232
20:22:48.656,,820,301,210
20:22:48.693,,880,318,226
20:22:48.730,,907,327,235
20:22:48.767,,895,348,261
20:22:48.804,,904,339,299
20:22:48.841,,889,355,286
20:22:48.878,,870,355,312
20:22:48.915,,850,361,307
20:22:48.952,,841,366,313
20:22:48.989,,817,353,305
20:22:49.027,,840,353,281
20:22:49.064,,1081,368,255
20:22:49.101,,1033,335,193
20:22:49.138,,969,302,188
20:22:49.175,,1000,320,183
20:22:49.212,,952,311,137
20:22:49.249,,851,298,122
20:22:49.286,,797,362,98
20:22:49.323,,834,392,53
20:22:49.360,,955,360,24
20:22:49.397,,1051,370,20
20:22:49.434,,970,346,0
20:22:49.471,,904,412,62
20:22:49.508,,896,516,116
20:22:49.545,,910,518,141
20:22:49.582,,878,521,179
20:22:49.620,,802,604,211
20:22:49.657,,739,656,236
20:22:49.694,,717,704,287
20:22:49.731,,698,715,307
20:22:49.768,,670,673,306
20:22:49.805,,630,634,301
20:22:49.842,,590,596,278
20:22:49.879,,554,527,268
20:22:49.916,,584,481,204
20:22:49.953,,896,575,29
20:22:49.990,,724,625,167
20:22:50.027,,495,465,296
20:22:50.064,,555,381,255
20:22:50.101,,822,387,166
20:22:50.138,,1048,294,106
20:22:50.175,,1080,293,127
20:22:50.213,,1090,391,201
20:22:50.250,,1009,409,200
20:22:50.287,,953,327,146
20:22:50.324,,957,341,131
20:22:50.361,,921,368,141
20:22:50.398,,856,426,190
20:22:50.435,,784,448,243
20:22:50.472,,744,413,251
20:22:50.509,,748,403,253
20:22:50.546,,778,403,233
20:22:50.583,,957,370,187
20:22:50.620,,1326,423,136
20:22:50.657,,1135,392,85
20:22:50.694,,1028,324,72
20:22:50.731,,1039,352,41
20:22:50.768,,958,386,5
20:22:50.806,,893,351,10
20:22:50.843,,883,349,10
20:22:50.880,,926,330,-40
20:22:50.917,,957,422,-61
20:22:50.954,,966,407,-110
20:22:50.991,,922,395,-91
20:22:51.028,,876,430,-75
20:22:51.065,,841,516,-64
20:22:51.102,,800,582,27
20:22:51.139,,783,627,144
20:22:51.176,,741,638,286
20:22:51.213,,709,610,361
20:22:51.250,,682,601,391
20:22:51.287,,683,539,423
20:22:51.324,,690,389,406
20:22:51.361,,695,323,383
20:22:51.398,,824,322,239
20:22:51.436,,1084,431,45
20:22:51.473,,908,649,172
20:22:51.510,,667,541,358
20:22:51.547,,793,404,261
20:22:51.584,,931,326,84
20:22:51.621,,1036,218,15
20:22:51.658,,1052,323,124
20:22:51.695,,918,367,190
20:22:51.732,,848,300,118
20:22:51.769,,868,309,85
20:22:51.806,,854,334,79
20:22:51.843,,801,362,104
20:22:51.880,,790,414,176
20:22:51.917,,780,440,204
20:22:51.954,,810,429,227
20:22:51.991,,836,418,230
20:22:52.028,,832,418,219
20:22:52.066,,826,424,203
20:22:52.103,,924,413,166
20:22:52.140,,1395,508,130
20:22:52.177,,1126,421,60
20:22:52.214,,1106,367,90
20:22:52.251,,1012,424,81
20:22:52.288,,851,407,43
20:22:52.325,,759,359,54
20:22:52.362,,906,364,42
20:22:52.399,,1077,437,-12
20:22:52.436,,1040,404,-39
20:22:52.473,,977,331,-37
20:22:52.510,,958,334,0
20:22:52.547,,996,365,1
20:22:52.584,,1024,344,10
20:22:52.621,,933,330,57
20:22:52.659,,803,345,98
20:22:52.696,,708,319,156
20:22:52.733,,662,275,215
20:22:52.770,,688,259,241
20:22:52.807,,784,235,280
20:22:52.844,,1192,213,144
20:22:52.881,,1263,228,100
20:22:52.918,,1134,291,149
20:22:52.955,,1029,444,237
20:22:52.992,,900,433,84
20:22:53.029,,872,367,-12
20:22:53.066,,972,454,86
20:22:53.103,,942,543,113
20:22:53.140,,843,486,120
20:22:53.177,,822,451,130
20:22:53.214,,780,422,118
20:22:53.251,,758,423,126
20:22:53.288,,734,438,136
20:22:53.325,,656,404,122
20:22:53.363,,671,387,72
20:22:53.400,,736,409,40
20:22:53.437,,1020,488,14
20:22:53.474,,1191,508,-90
20:22:53.511,,1180,384,-217
20:22:53.548,,1302,358,-264
20:22:53.585,,1242,618,-220
20:22:53.622,,1167,535,-266
20:22:53.659,,1183,656,-258
20:22:53.696,,1098,600,-283
20:22:53.733,,1051,735,-293
20:22:53.770,,939,898,-214
20:22:53.807,,742,837,-273
20:22:53.844,,504,881,-200
20:22:53.881,,296,608,-178
20:22:53.918,,199,742,-197
20:22:53.956,,193,871,-260
20:22:53.993,,328,1498,-413
20:22:54.030,,179,1596,-225
20:22:54.067,,-446,786,-99
20:22:54.104,,-636,480,114
20:22:54.141,,-574,173,348
20:22:54.178,,-550,-241,307
20:22:54.215,,-617,-363,225
20:22:54.252,,-432,-217,238
20:22:54.289,,-404,132,258
20:22:54.326,,-273,1234,289
20:22:54.363,,-80,1438,-13
20:22:54.400,,-307,1415,87
20:22:54.437,,-491,954,249
20:22:54.474,,-463,731,254
20:22:54.511,,-414,698,294
20:22:54.548,,-346,730,282
20:22:54.586,,-260,754,325
20:22:54.623,,-205,884,398
20:22:54.660,,-168,1290,543
20:22:54.697,,-128,1557,544
20:22:54.734,,-268,1266,478
20:22:54.771,,-383,960,429
20:22:54.808,,-421,504,417
20:22:54.845,,-476,402,405
20:22:54.882,,-491,283,346
20:22:54.919,,-475,236,334
20:22:54.956,,-483,-257,290
20:22:54.993,,-406,-309,156
20:22:55.030,,-98,150,-8
20:22:55.067,,117,261,-88
20:22:55.104,,265,1781,-443
20:22:55.141,,239,1717,-335
20:22:55.178,,234,1565,-438
20:22:55.216,,434,1647,-87
20:22:55.253,,378,1483,-33
20:22:55.290,,227,1045,72
20:22:55.327,,149,1041,169
20:22:55.364,,170,1003,146
20:22:55.401,,157,940,108
20:22:55.438,,39,1270,-22
20:22:55.475,,-120,1357,-178
20:22:55.512,,-164,1183,-275
20:22:55.549,,-181,912,-359
20:22:55.586,,-181,762,-387
20:22:55.623,,-57,574,-392
20:22:55.660,,60,456,-389
20:22:55.697,,107,697,-133
20:22:55.734,,433,737,-27
20:22:55.771,,593,652,12
20:22:55.809,,699,518,55
20:22:55.846,,907,286,83
20:22:55.883,,1013,416,95
20:22:55.920,,990,432,21
20:22:55.957,,942,527,40
20:22:55.994,,889,654,72
20:22:56.031,,912,677,57
20:22:56.068,,896,805,106
20:22:56.105,,904,922,130
20:22:56.142,,788,1040,164
20:22:56.179,,739,1056,153
20:22:56.216,,757,1194,106
20:22:56.253,,1216,1289,-27
20:22:56.290,,1079,1263,15
20:22:56.327,,1426,1129,-37
20:22:56.364,,1344,1110,91
20:22:56.401,,1141,913,121
20:22:56.439,,1183,597,54
20:22:56.476,,1176,432,36
20:22:56.513,,1008,387,129
20:22:56.550,,758,307,159
20:22:56.587,,532,236,184
20:22:56.624,,361,160,255
20:22:56.661,,263,132,316
20:22:56.698,,221,143,418
20:22:56.735,,348,212,475
20:22:56.772,,621,229,428
20:22:56.809,,878,244,337
20:22:56.846,,1081,429,530
20:22:56.883,,1299,414,585
20:22:56.920,,1190,189,316
20:22:56.957,,1161,116,63
20:22:56.994,,1229,185,-89
20:22:57.031,,1270,395,-44
20:22:57.069,,1265,571,-56
20:22:57.106,,1162,528,-92
20:22:57.143,,1077,467,-105
20:22:57.180,,1041,458,-135
20:22:57.217,,1071,562,-123
20:22:57.254,,1014,657,-162
20:22:57.291,,880,750,-155
20:22:57.328,,736,748,-76
20:22:57.365,,800,682,-29
20:22:57.402,,1309,774,-198
20:22:57.439,,1136,711,-113
20:22:57.476,,963,686,93
20:22:57.513,,787,610,-18
20:22:57.550,,925,545,-120
20:22:57.588,,1204,499,-99
20:22:57.625,,1208,447,-86
20:22:57.662,,1184,376,-118
20:22:57.699,,1178,346,-99
20:22:57.736,,1134,350,-117
20:22:57.773,,1086,329,-104
20:22:57.810,,1039,313,-91
20:22:57.847,,949,391,-97
20:22:57.884,,830,413,-124
20:22:57.921,,711,479,-104
20:22:57.958,,613,488,-80
20:22:57.995,,509,499,-10
20:22:58.032,,653,511,-13
20:22:58.069,,803,594,106
20:22:58.106,,722,637,543
20:22:58.143,,761,503,703
20:22:58.181,,966,496,539
20:22:58.218,,1047,270,572
20:22:58.255,,993,288,588
20:22:58.292,,817,330,456
20:22:58.329,,667,384,335
20:22:58.366,,585,386,225
20:22:58.403,,581,437,195
20:22:58.440,,646,465,207
20:22:58.477,,696,452,199
20:22:58.514,,742,483,216
20:22:58.551,,858,393,264
20:22:58.588,,1106,312,210
20:22:58.625,,1495,455,168
20:22:58.662,,1110,455,179
20:22:58.699,,835,421,285
20:22:58.736,,569,589,312
20:22:58.774,,569,574,238
20:22:58.811,,895,547,174
20:22:58.848,,1046,439,96
20:22:58.885,,859,416,126
20:22:58.922,,826,505,160
20:22:58.959,,743,509,369
20:22:58.996,,807,438,359
20:22:59.033,,788,626,412
20:22:59.070,,703,608,567
20:22:59.107,,719,528,449
20:22:59.144,,784,386,417
20:22:59.181,,828,233,340
20:22:59.218,,900,478,76
20:22:59.255,,1084,507,-416
20:22:59.292,,649,792,-275
20:22:59.329,,676,906,-4
20:22:59.367,,771,757,-166
20:22:59.404,,729,590,-147
20:22:59.441,,755,242,-205
20:22:59.478,,815,132,-98
20:22:59.515,,753,174,73
20:22:59.552,,707,279,109
20:22:59.589,,700,425,137
20:22:59.626,,715,504,179
20:22:59.663,,763,534,237
20:22:59.700,,911,592,215
20:22:59.737,,939,590,331
20:22:59.774,,928,478,386
20:22:59.811,,1064,417,369
20:22:59.848,,1259,412,342
20:22:59.885,,1605,479,220
20:22:59.922,,1052,460,156
20:22:59.959,,878,377,37
20:22:59.997,,775,431,31
20:23:00.034,,937,477,64
20:23:00.071,,1005,440,0
20:23:00.108,,958,468,-94
20:23:00.145,,948,381,-104
20:23:00.182,,934,325,-65
20:23:00.219,,901,384,-2
20:23:00.256,,833,451,112
20:23:00.293,,772,407,170
20:23:00.330,,729,403,182
20:23:00.367,,710,373,214
20:23:00.404,,669,341,251
20:23:00.441,,641,355,289
20:23:00.478,,922,429,157
20:23:00.515,,1117,648,113
20:23:00.552,,839,726,222
20:23:00.589,,799,641,352
20:23:00.627,,848,513,343
20:23:00.664,,849,490,316
20:23:00.701,,830,468,237
20:23:00.738,,748,468,256
20:23:00.775,,665,402,294
20:23:00.812,,643,402,307
20:23:00.849,,687,410,331
20:23:00.886,,712,364,363
20:23:00.923,,728,376,419
20:23:00.960,,720,359,422
20:23:00.997,,723,376,373
20:23:01.034,,796,413,320
20:23:01.071,,946,447,216
20:23:01.108,,1608,561,59
20:23:01.145,,1206,688,-134
20:23:01.182,,676,528,-17
20:23:01.220,,611,402,72
20:23:01.257,,744,472,-118
20:23:01.294,,997,591,-155
20:23:01.331,,949,492,-139
20:23:01.368,,843,402,-65
20:23:01.405,,825,387,-30
20:23:01.442,,833,444,-36
20:23:01.479,,847,399,48
20:23:01.516,,831,403,55
20:23:01.553,,842,465,147
20:23:01.590,,811,492,175
20:23:01.627,,834,526,229
20:23:01.664,,839,513,252
20:23:01.701,,842,415,261
20:23:01.738,,1189,349,170
20:23:01.775,,1260,438,207
20:23:01.812,,853,310,327
20:23:01.850,,760,299,325
20:23:01.887,,730,377,217
20:23:01.924,,920,290,116
20:23:01.961,,1016,350,145
20:23:01.998,,792,438,149
20:23:02.035,,676,392,257
20:23:02.072,,665,393,187
20:23:02.109,,698,506,151
20:23:02.146,,680,478,226
20:23:02.183,,653,484,269
20:23:02.220,,675,483,325
20:23:02.257,,735,455,348
20:23:02.294,,825,430,320
20:23:02.331,,890,446,306
20:23:02.368,,846,425,314
20:23:02.405,,1103,443,344
20:23:02.443,,1307,539,338
20:23:02.480,,1141,393,325
20:23:02.517,,897,263,394
20:23:02.554,,714,232,383
20:23:02.591,,858,279,293
20:23:02.628,,1017,310,322
20:23:02.665,,928,281,350
20:23:02.702,,875,383,399
20:23:02.739,,865,498,462
20:23:02.776,,849,447,462
20:23:02.813,,775,512,499
20:23:02.850,,678,468,440
20:23:02.887,,580,337,421
20:23:02.924,,561,334,415
20:23:02.961,,531,356,378
20:23:02.999,,496,331,336
20:23:03.036,,696,245,150
20:23:03.073,,1047,309,14
20:23:03.110,,909,417,84
20:23:03.147,,944,464,102
20:23:03.184,,1028,561,59
20:23:03.221,,1140,558,-20
20:23:03.258,,1179,460,-74
20:23:03.295,,1004,400,43
20:23:03.332,,907,378,117
20:23:03.369,,909,424,149
20:23:03.406,,850,516,205
20:23:03.443,,770,578,294
20:23:03.480,,791,536,324
20:23:03.517,,809,590,323
20:23:03.554,,795,523,303
20:23:03.592,,874,369,321
20:23:03.629,,939,330,264
20:23:03.666,,1146,396,174
20:23:03.703,,1516,463,74
20:23:03.740,,895,469,161
20:23:03.777,,796,719,136
20:23:03.814,,1144,682,-207
20:23:03.851,,1292,76,2
20:23:03.888,,1113,51,418
20:23:03.925,,996,129,344
20:23:03.962,,862,50,193
20:23:03.999,,761,110,49
20:23:04.036,,753,479,30
20:23:04.073,,735,763,-42
20:23:04.110,,683,844,-317
20:23:04.147,,665,572,-426
20:23:04.185,,544,310,-236
20:23:04.222,,448,245,-146
20:23:04.259,,473,558,-67
20:23:04.296,,728,708,-49
20:23:04.333,,1103,670,-150
20:23:04.370,,918,921,223
20:23:04.407,,905,824,192
20:23:04.444,,804,644,-104
20:23:04.481,,745,527,-187
20:23:04.518,,657,453,-331
20:23:04.555,,602,500,-528
20:23:04.592,,552,424,-430
20:23:04.629,,577,259,-299
20:23:04.666,,627,174,-242
20:23:04.703,,726,201,-292
20:23:04.740,,824,410,-293
20:23:04.778,,819,641,-250
20:23:04.815,,707,1714,211
20:23:04.852,,717,1228,122
20:23:04.889,,968,618,-262
20:23:04.926,,1549,712,-351
20:23:04.963,,1165,308,-375
20:23:05.000,,597,77,-169
20:23:05.037,,504,235,108
20:23:05.074,,734,483,-26
20:23:05.111,,970,659,-113
20:23:05.148,,897,613,-27
20:23:05.185,,792,601,121
20:23:05.222,,823,713,120
20:23:05.259,,855,803,144
20:23:05.296,,830,691,253
20:23:05.333,,818,651,206
20:23:05.370,,875,597,90
20:23:05.408,,893,508,68
20:23:05.445,,889,384,19
20:23:05.482,,1054,330,-127
20:23:05.519,,630,399,43
20:23:05.556,,555,466,298
20:23:05.593,,761,446,232
20:23:05.630,,812,314,89
20:23:05.667,,803,136,58
20:23:05.704,,804,252,152
20:23:05.741,,843,349,187
20:23:05.778,,889,353,125
20:23:05.815,,906,412,211
20:23:05.852,,921,451,223
20:23:05.889,,927,473,270
20:23:05.926,,906,480,289
20:23:05.963,,925,535,322
20:23:06.001,,1016,522,294
20:23:06.038,,948,543,286
20:23:06.075,,1050,544,171
20:23:06.112,,1430,646,37
20:23:06.149,,1091,557,79
20:23:06.186,,843,447,125
20:23:06.223,,697,498,22
20:23:06.260,,907,583,-183
20:23:06.297,,1153,520,-235
20:23:06.334,,1109,460,-234
20:23:06.371,,1049,468,-257
20:23:06.408,,1024,505,-341
20:23:06.445,,1006,614,-395
20:23:06.482,,910,629,-410
20:23:06.519,,720,775,-475
20:23:06.556,,405,972,-30
20:23:06.593,,901,969,735
20:23:06.631,,957,450,262
20:23:06.668,,823,-67,574
20:23:06.705,,722,0,666
20:23:06.742,,701,23,423
20:23:06.779,,707,152,217
20:23:06.816,,846,344,88
20:23:06.853,,903,349,-27
20:23:06.890,,908,320,-212
20:23:06.927,,974,408,-203
20:23:06.964,,1008,425,-195
20:23:07.001,,949,600,22
20:23:07.038,,968,616,95
20:23:07.075,,989,563,15
20:23:07.112,,1074,482,64
20:23:07.149,,1072,453,229
20:23:07.186,,1073,466,366
20:23:07.224,,1044,520,434
20:23:07.261,,1039,600,451
20:23:07.298,,1064,585,395
20:23:07.335,,1045,549,320
20:23:07.372,,1374,722,100
20:23:07.409,,995,921,217
20:23:07.446,,737,679,284
20:23:07.483,,1151,538,-43
20:23:07.520,,1437,525,-212
20:23:07.557,,1211,502,-77
20:23:07.594,,1109,373,-56
20:23:07.631,,1129,358,-95
20:23:07.668,,1126,362,-79
20:23:07.705,,1040,342,-52
20:23:07.742,,870,353,13
20:23:07.779,,780,315,42
20:23:07.817,,675,272,95
20:23:07.854,,633,225,130
20:23:07.891,,593,245,220
20:23:07.928,,785,286,347
20:23:07.965,,1033,431,841
20:23:08.002,,878,-186,599
20:23:08.039,,1011,-509,123
20:23:08.076,,1445,111,19
20:23:08.113,,1595,942,153
20:23:08.150,,1213,814,-8
20:23:08.187,,976,532,-76
20:23:08.224,,946,316,-150
20:23:08.261,,929,291,-134
20:23:08.298,,857,428,-62
20:23:08.335,,750,472,-44
20:23:08.372,,678,548,-35
20:23:08.410,,722,567,18
20:23:08.447,,867,621,80
20:23:08.484,,933,585,144
20:23:08.521,,914,492,152
20:23:08.558,,1307,558,81
20:23:08.595,,1299,683,82
20:23:08.632,,882,568,76
20:23:08.669,,752,491,-14
20:23:08.706,,1007,380,-140
20:23:08.743,,1235,419,-47
20:23:08.780,,1145,422,55
20:23:08.817,,1128,463,4
20:23:08.854,,1127,673,21
20:23:08.891,,1115,755,-4
20:23:08.928,,1006,738,-88
20:23:08.966,,800,782,-23
20:23:09.003,,610,638,-127
20:23:09.040,,448,414,-124
20:23:09.077,,339,283,-138
20:23:09.114,,290,229,-149
20:23:09.151,,505,172,-189
20:23:09.188,,706,273,-209
20:23:09.225,,827,408,-24
20:23:09.262,,965,1360,-59
20:23:09.299,,927,820,-234
20:23:09.336,,918,1204,-245
20:23:09.373,,924,1000,-421
20:23:09.410,,795,542,-322
20:23:09.447,,803,369,-320
20:23:09.484,,897,365,-409
20:23:09.521,,902,256,-519
20:23:09.559,,896,259,-393
20:23:09.596,,938,373,-250
20:23:09.633,,975,505,-182
20:23:09.670,,1023,648,-171
20:23:09.707,,938,672,-158
20:23:09.744,,1259,832,-251
20:23:09.781,,1109,811,-156
20:23:09.818,,724,836,162
20:23:09.855,,560,742,124
20:23:09.892,,703,621,-45
20:23:09.929,,1100,627,-57
20:23:09.966,,1093,625,-16
20:23:10.003,,1051,469,-34
20:23:10.040,,1103,291,-84
20:23:10.077,,1149,223,-153
20:23:10.114,,1151,329,-153
20:23:10.152,,1115,464,-219
20:23:10.189,,986,456,-347
20:23:10.226,,707,578,-367
20:23:10.263,,551,972,-191
20:23:10.300,,586,721,-62
20:23:10.337,,653,261,356
20:23:10.374,,696,33,452
20:23:10.411,,929,102,464
20:23:10.448,,775,192,790
20:23:10.485,,792,130,890
20:23:10.522,,973,145,521
20:23:10.559,,1117,-85,122
20:23:10.596,,1206,25,-75
20:23:10.633,,1227,352,-67
20:23:10.670,,1075,602,8
20:23:10.707,,980,532,42
20:23:10.744,,953,420,-29
20:23:10.782,,919,534,-51
20:23:10.819,,863,466,-18
20:23:10.856,,794,509,91
20:23:10.893,,736,560,156
20:23:10.930,,842,593,78
20:23:10.967,,853,631,-22
20:23:11.004,,1024,691,-99
20:23:11.041,,1401,861,-210
20:23:11.078,,775,695,-6
20:23:11.115,,654,569,38
20:23:11.152,,806,526,-90
20:23:11.189,,1186,594,-137
20:23:11.226,,1229,526,-131
20:23:11.263,,1144,353,-131
20:23:11.300,,1124,345,-121
20:23:11.337,,1137,348,-123
20:23:11.374,,1080,409,-82
20:23:11.412,,987,473,0
20:23:11.449,,850,548,43
20:23:11.486,,695,595,159
20:23:11.523,,585,487,227
20:23:11.560,,532,447,241
20:23:11.597,,525,437,292
20:23:11.634,,567,356,300
20:23:11.671,,839,279,118
20:23:11.708,,789,339,131
20:23:11.745,,768,412,311
20:23:11.782,,896,451,355
20:23:11.819,,1089,398,151
20:23:11.856,,1179,250,38
20:23:11.893,,1167,306,99
20:23:11.930,,1029,392,177
20:23:11.968,,958,409,135
20:23:12.005,,956,393,118
20:23:12.042,,932,415,95
20:23:12.079,,886,438,99
20:23:12.116,,838,461,111
20:23:12.153,,779,498,158
20:23:12.190,,803,532,165
20:23:12.227,,911,530,113
20:23:12.264,,1038,517,43
20:23:12.301,,1506,618,-8
20:23:12.338,,1000,560,49
20:23:12.375,,863,465,96
20:23:12.412,,832,464,28
20:23:12.449,,999,478,-70
20:23:12.486,,1166,477,-85
20:23:12.523,,1070,391,-74
20:23:12.560,,1022,380,-67
20:23:12.598,,1017,412,-51
20:23:12.635,,991,467,-11
20:23:12.672,,959,498,16
20:23:12.709,,841,457,83
20:23:12.746,,776,392,106
20:23:12.783,,707,360,107
20:23:12.820,,670,327,134
20:23:12.857,,628,293,185
20:23:12.894,,856,287,122
20:23:12.931,,971,329,107
20:23:12.968,,874,347,201
20:23:13.005,,828,386,301
20:23:13.042,,904,405,318
20:23:13.079,,1027,319,233
20:23:13.116,,1116,286,133
20:23:13.154,,1064,313,132
20:23:13.191,,961,356,149
20:23:13.228,,909,399,158
20:23:13.265,,850,435,164
20:23:13.302,,812,440,143
20:23:13.339,,775,461,173
20:23:13.376,,753,486,195
20:23:13.413,,784,472,190
20:23:13.450,,903,488,138
20:23:13.487,,918,499,116
20:23:13.524,,1173,557,51
20:23:13.561,,1321,642,-4
20:23:13.598,,918,503,13
20:23:13.635,,781,440,69
20:23:13.672,,728,495,-3
20:23:13.710,,998,518,-79
20:23:13.747,,1205,430,-89
20:23:13.784,,1078,296,-85
20:23:13.821,,979,358,-34
20:23:13.858,,958,521,38
20:23:13.895,,973,508,74
20:23:13.932,,888,516,98
20:23:13.969,,828,481,158
20:23:14.006,,749,406,151
20:23:14.043,,725,351,154
20:23:14.080,,718,327,214
20:23:14.117,,660,294,227
20:23:14.154,,919,266,70
20:23:14.191,,1006,358,73
20:23:14.228,,795,411,289
20:23:14.265,,889,415,354
20:23:14.302,,978,388,188
20:23:14.340,,1071,213,-55
20:23:14.377,,1108,256,-8
20:23:14.414,,998,375,144
20:23:14.451,,899,495,204
20:23:14.488,,854,421,186
20:23:14.525,,831,400,148
20:23:14.562,,807,439,140
20:23:14.599,,809,482,179
20:23:14.636,,756,529,218
20:23:14.673,,772,543,185
20:23:14.710,,887,520,92
20:23:14.747,,1389,502,-40
20:23:14.784,,1252,499,-59
20:23:14.821,,1136,497,-3
20:23:14.858,,950,513,53
20:23:14.895,,762,503,33
20:23:14.933,,1022,477,-58
20:23:14.970,,1119,455,-27
20:23:15.007,,1009,390,62
20:23:15.044,,947,423,65
20:23:15.081,,949,530,119
20:23:15.118,,894,586,123
20:23:15.155,,816,572,161
20:23:15.192,,727,517,162
20:23:15.229,,641,456,132
20:23:15.266,,579,399,135
20:23:15.303,,569,388,144
20:23:15.340,,596,379,127
20:23:15.377,,850,325,24
20:23:15.414,,996,351,14
20:23:15.451,,940,387,71
20:23:15.488,,960,480,229
20:23:15.526,,1061,488,214
20:23:15.563,,1106,350,94
20:23:15.600,,1076,286,89
20:23:15.637,,986,328,146
20:23:15.674,,888,366,121
20:23:15.711,,865,409,118
20:23:15.748,,826,447,127
20:23:15.785,,754,454,130
20:23:15.822,,740,504,178
20:23:15.859,,754,528,199
20:23:15.896,,865,528,169
20:23:15.933,,922,514,129
20:23:15.970,,1079,507,79
20:23:16.007,,1451,555,-13
20:23:16.044,,1242,516,8
20:23:16.081,,1030,445,49
20:23:16.118,,734,429,55
20:23:16.156,,862,399,-13
20:23:16.193,,1104,381,-71
20:23:16.230,,1055,365,-68
20:23:16.267,,964,359,-33
20:23:16.304,,874,419,-14
20:23:16.341,,849,505,-4
20:23:16.378,,817,570,15
20:23:16.415,,795,684,127
20:23:16.452,,706,705,146
20:23:16.489,,603,696,222
20:23:16.526,,540,628,206
20:23:16.563,,522,609,176
20:23:16.600,,498,582,212
20:23:16.637,,521,517,163
20:23:16.674,,760,442,-6
20:23:16.711,,839,496,-68
20:23:16.748,,739,535,80
20:23:16.786,,789,521,157
20:23:16.823,,871,532,155
20:23:16.860,,1022,357,34
20:23:16.897,,1063,272,22
20:23:16.934,,1008,335,126
20:23:16.971,,938,379,131
20:23:17.008,,919,404,132
20:23:17.045,,892,415,142
20:23:17.082,,862,448,159
20:23:17.119,,827,453,174
20:23:17.156,,814,498,173
20:23:17.193,,818,519,143
20:23:17.230,,885,602,128
20:23:17.267,,917,587,118
20:23:17.304,,885,561,132
20:23:17.341,,1213,594,70
20:23:17.378,,1279,619,25
20:23:17.416,,943,487,62
20:23:17.453,,810,434,72
20:23:17.490,,812,453,-30
20:23:17.527,,1091,409,-100
20:23:17.564,,1163,377,-92
20:23:17.601,,1010,325,-96
20:23:17.638,,962,322,-81
20:23:17.675,,933,493,-105
20:23:17.712,,1004,503,-143
20:23:17.749,,952,792,-28
20:23:17.786,,813,815,-41
20:23:17.823,,509,665,134
20:23:17.860,,364,660,121
20:23:17.897,,373,641,63
20:23:17.934,,404,572,182
20:23:17.971,,498,448,226
20:23:18.008,,693,327,58
20:23:18.046,,684,511,169
20:23:18.083,,793,363,313
20:23:18.120,,898,354,277
20:23:18.157,,950,318,221
20:23:18.194,,1109,276,111
20:23:18.231,,1183,337,50
20:23:18.268,,1127,404,130
20:23:18.305,,997,361,204
20:23:18.342,,968,348,175
20:23:18.379,,941,381,148
20:23:18.416,,885,395,116
20:23:18.453,,838,414,123
20:23:18.490,,833,441,105
20:23:18.527,,827,536,160
20:23:18.564,,856,552,155
20:23:18.601,,908,581,153
20:23:18.638,,971,535,139
20:23:18.675,,1401,623,93
20:23:18.713,,1131,557,100
20:23:18.750,,874,471,164
20:23:18.787,,760,486,127
20:23:18.824,,817,487,5
20:23:18.861,,1098,432,-84
20:23:18.898,,1157,386,-92
20:23:18.935,,1047,347,-119
20:23:18.972,,957,288,-115
20:23:19.009,,923,364,-58
20:23:19.046,,931,429,-57
20:23:19.083,,869,480,14
20:23:19.120,,827,468,124
20:23:19.157,,760,433,137
20:23:19.194,,707,398,146
20:23:19.231,,685,365,214
20:23:19.268,,689,354,271
20:23:19.305,,939,340,181
20:23:19.342,,998,371,228
20:23:19.380,,1006,366,302
20:23:19.417,,1028,337,264
20:23:19.454,,996,302,162
20:23:19.491,,1008,294,128
20:23:19.528,,1070,360,151
20:23:19.565,,998,368,106
20:23:19.602,,880,362,103
20:23:19.639,,828,367,72
20:23:19.676,,793,391,91
20:23:19.713,,759,404,106
20:23:19.750,,721,448,200
20:23:19.787,,737,470,241
20:23:19.824,,796,481,236
20:23:19.861,,890,482,224
20:23:19.898,,957,457,188
20:23:19.935,,1392,493,41
20:23:19.972,,1225,484,26
20:23:20.009,,986,428,99
20:23:20.047,,725,455,147
20:23:20.084,,702,450,50
20:23:20.121,,999,445,-73
20:23:20.158,,1142,429,-81
20:23:20.195,,990,354,-54
20:23:20.232,,874,309,-2
20:23:20.269,,879,389,86
20:23:20.306,,939,402,46
20:23:20.343,,910,472,104
20:23:20.380,,857,498,145
20:23:20.417,,713,349,120
20:23:20.454,,679,360,168
20:23:20.491,,848,373,146
20:23:20.528,,1099,389,25
20:23:20.565,,945,430,137
20:23:20.602,,856,500,467
20:23:20.639,,981,488,636
20:23:20.676,,1083,324,284
20:23:20.714,,1033,352,65
20:23:20.751,,914,448,33
20:23:20.788,,794,501,37
20:23:20.825,,743,597,1
20:23:20.862,,670,476,-40
20:23:20.899,,571,561,-135
20:23:20.936,,572,650,-463
20:23:20.973,,426,908,-540
20:23:21.010,,419,922,-619
20:23:21.047,,461,746,-521
20:23:21.084,,424,643,-590
20:23:21.121,,503,532,-623
20:23:21.158,,648,506,-854
20:23:21.195,,455,521,-694
20:23:21.232,,295,419,-573
20:23:21.269,,276,332,-733
20:23:21.306,,473,378,-724
20:23:21.344,,586,408,-924
20:23:21.381,,574,615,-1042
20:23:21.418,,447,738,-838
20:23:21.455,,349,889,-734
20:23:21.492,,283,826,-748
20:23:21.529,,209,666,-692
20:23:21.566,,248,744,-423
20:23:21.603,,308,1013,-146
20:23:21.640,,385,1070,189
20:23:21.677,,344,688,399
20:23:21.714,,210,666,193
20:23:21.751,,-91,1094,-15
20:23:21.788,,-337,1319,-166
20:23:21.825,,-327,958,-243
20:23:21.862,,5,719,-106
20:23:21.899,,329,691,411
20:23:21.936,,513,645,848
20:23:21.973,,443,991,676
20:23:22.010,,5,924,146
20:23:22.048,,-504,300,131
20:23:22.085,,-589,22,369
20:23:22.122,,-330,119,654
20:23:22.159,,-16,494,408
20:23:22.196,,-166,911,135
20:23:22.233,,-458,1600,126
20:23:22.270,,-567,1222,-98
20:23:22.307,,-615,306,-208
20:23:22.344,,-520,402,173
20:23:22.381,,-163,949,483
20:23:22.418,,279,1038,626
20:23:22.455,,247,612,382
20:23:22.492,,10,667,-14
20:23:22.529,,76,1121,-437
20:23:22.566,,203,1665,-822
20:23:22.603,,186,1364,-757
20:23:22.641,,271,1187,-737
20:23:22.678,,368,619,-796
20:23:22.715,,372,870,-744
20:23:22.752,,1191,1261,1835
20:23:22.789,,-25,455,297
20:23:22.826,,26,446,-345
20:23:22.863,,216,646,-260
20:23:22.900,,367,681,-219
20:23:22.937,,1047,636,-378
20:23:22.974,,1555,775,-243
20:23:23.011,,1832,697,105
20:23:23.048,,1480,405,2
20:23:23.085,,1031,141,139
20:23:23.122,,1037,-35,140
20:23:23.159,,1031,281,-96
20:23:23.196,,890,1032,-177
20:23:23.233,,651,603,170
20:23:23.270,,456,383,234
20:23:23.307,,476,474,36
20:23:23.345,,538,643,-70
20:23:23.382,,518,767,-152
20:23:23.419,,547,834,-213
20:23:23.456,,648,888,-104
20:23:23.493,,1005,889,-224
20:23:23.530,,1100,927,-426
20:23:23.567,,644,858,-259
20:23:23.604,,686,722,-414
20:23:23.641,,917,970,-414
20:23:23.678,,868,949,-278
20:23:23.715,,872,784,-185
20:23:23.752,,768,429,-207
20:23:23.789,,550,468,-307
20:23:23.826,,390,551,-432
20:23:23.863,,307,606,-439
20:23:23.900,,272,645,-270
20:23:23.937,,350,478,-317
20:23:23.975,,457,274,-425
20:23:24.012,,510,289,-322
20:23:24.049,,682,486,-282
20:23:24.086,,957,522,-521
20:23:24.123,,836,756,-360
20:23:24.160,,909,897,-236
20:23:24.197,,994,803,-185
20:23:24.234,,999,74,-174
20:23:24.271,,1140,-354,113
20:23:24.308,,1141,-216,261
20:23:24.345,,1032,139,208
20:23:24.382,,945,674,164
20:23:24.419,,848,750,181
20:23:24.456,,730,747,252
20:23:24.493,,749,572,261
20:23:24.530,,779,498,233
20:23:24.567,,823,442,250
20:23:24.604,,989,431,207
20:23:24.641,,1051,465,157
20:23:24.678,,1531,579,57
20:23:24.716,,1093,580,62
20:23:24.753,,755,405,108
20:23:24.790,,829,370,59
20:23:24.827,,1167,497,-58
20:23:24.864,,1201,578,-6
20:23:24.901,,1029,421,25
20:23:24.938,,952,412,162
20:23:24.975,,934,430,202
20:23:25.012,,863,534,168
20:23:25.049,,776,494,236
20:23:25.086,,633,368,249
20:23:25.123,,583,307,216
20:23:25.160,,587,297,222
20:23:25.197,,587,312,244
20:23:25.234,,828,272,130
20:23:25.271,,942,359,125
20:23:25.308,,897,414,361
20:23:25.345,,1023,362,322
20:23:25.382,,1044,342,185
20:23:25.420,,1080,244,226
20:23:25.457,,1031,219,153
20:23:25.494,,907,319,224
20:23:25.531,,862,349,230
20:23:25.568,,809,400,220
20:23:25.605,,814,423,262
20:23:25.642,,811,419,257
20:23:25.679,,824,456,307
20:23:25.716,,824,484,327
20:23:25.753,,909,491,295
20:23:25.790,,977,491,240
20:23:25.827,,971,485,191
20:23:25.864,,1574,601,93
20:23:25.901,,1073,610,112
20:23:25.938,,725,440,185
20:23:25.975,,784,391,85
20:23:26.012,,1067,495,-83
20:23:26.049,,1086,492,-28
20:23:26.086,,924,410,31
20:23:26.124,,912,389,33
20:23:26.161,,966,465,63
20:23:26.198,,1005,513,38
20:23:26.235,,919,613,137
20:23:26.272,,843,625,177
20:23:26.309,,715,553,193
20:23:26.346,,605,449,196
20:23:26.383,,563,433,192
20:23:26.420,,579,409,229
20:23:26.457,,830,359,132
20:23:26.494,,730,445,146
20:23:26.531,,617,451,255
20:23:26.568,,835,453,313
20:23:26.605,,1101,469,156
20:23:26.642,,1112,344,46
20:23:26.679,,960,281,41
20:23:26.716,,966,324,33
20:23:26.753,,908,498,96
20:23:26.791,,795,462,196
20:23:26.828,,789,537,282
20:23:26.865,,783,765,495
20:23:26.902,,826,598,565
20:23:26.939,,1013,335,530
20:23:26.976,,1141,442,394
20:23:27.013,,1128,466,351
20:23:27.050,,1626,516,123
20:23:27.087,,1057,617,86
20:23:27.124,,771,510,135
20:23:27.161,,902,406,-5
20:23:27.198,,1169,425,-112
20:23:27.235,,977,539,57
20:23:27.272,,924,618,104
20:23:27.309,,1070,585,160
20:23:27.346,,1015,400,261
20:23:27.383,,897,760,375
20:23:27.420,,695,516,310
20:23:27.457,,526,509,362
20:23:27.494,,394,530,342
20:23:27.532,,318,484,421
20:23:27.569,,306,476,397
20:23:27.606,,503,509,322
20:23:27.643,,329,633,345
20:23:27.680,,545,1084,775
20:23:27.717,,687,1105,809
20:23:27.754,,625,969,784
20:23:27.791,,451,734,586
20:23:27.828,,193,564,528
20:23:27.865,,34,471,448
20:23:27.902,,-11,420,488
20:23:27.939,,-19,514,416
20:23:27.976,,-18,562,338
20:23:28.013,,3,608,351
20:23:28.050,,19,503,382
20:23:28.087,,71,346,307
20:23:28.124,,128,313,128
20:23:28.161,,375,337,1
20:23:28.198,,828,486,-176
20:23:28.235,,1822,734,-471
20:23:28.273,,1592,700,182
20:23:28.310,,1032,744,778
20:23:28.347,,923,995,894
20:23:28.384,,1285,1140,864
20:23:28.421,,1101,890,905
20:23:28.458,,1073,841,828
20:23:28.495,,977,779,682
20:23:28.532,,906,878,594
20:23:28.569,,951,946,606
20:23:28.606,,803,1114,649
20:23:28.643,,785,1209,820
20:23:28.680,,750,1305,832
20:23:28.717,,812,1330,759
20:23:28.754,,760,1173,709
20:23:28.791,,750,954,665
20:23:28.828,,617,522,218
20:23:28.865,,229,506,502
20:23:28.902,,432,443,374
20:23:28.940,,308,167,309
20:23:28.977,,163,-74,388
20:23:29.014,,54,-85,383
20:23:29.051,,-15,-93,430
20:23:29.088,,-94,-107,578
20:23:29.125,,-141,-130,688
20:23:29.162,,-187,-188,696
20:23:29.199,,-221,-170,748
20:23:29.236,,-259,-119,795
20:23:29.273,,-274,-142,864
20:23:29.310,,-242,-194,952
20:23:29.347,,-176,-175,1046
20:23:29.384,,-222,-195,1067
20:23:29.421,,-289,-115,1139
20:23:29.458,,-193,-167,864
20:23:29.495,,-371,58,1098
20:23:29.532,,-332,35,1219
20:23:29.569,,-82,-158,984
20:23:29.606,,-128,-110,759
20:23:29.644,,-156,196,873
20:23:29.681,,-125,292,985
20:23:29.718,,-103,52,1030
20:23:29.755,,-72,-99,1011
20:23:29.792,,-95,-37,1044
20:23:29.829,,-141,-21,1020
20:23:29.866,,-184,-39,1032
20:23:29.903,,-226,-66,988
20:23:29.940,,-298,-147,981
20:23:29.977,,-335,-175,967
20:23:30.014,,-310,-176,1020
20:23:30.051,,-452,-495,875
20:23:30.088,,-449,-579,905
20:23:30.125,,120,-349,1041
20:23:30.162,,163,-343,729
20:23:30.199,,91,-337,421
20:23:30.236,,358,-75,8
20:23:30.273,,527,-49,-122
20:23:30.311,,505,-28,-107
20:23:30.348,,625,-4,81
20:23:30.385,,681,464,274
20:23:30.422,,487,1347,448
20:23:30.459,,1039,1251,854
20:23:30.496,,1057,926,409
20:23:30.533,,1097,1067,246
20:23:30.570,,1141,1569,1183
20:23:30.607,,979,1507,1434
20:23:30.644,,1038,1645,1494
20:23:30.681,,1323,1548,1313
20:23:30.718,,958,1393,1035
20:23:30.755,,594,1184,829
20:23:30.792,,742,1093,379
20:23:30.829,,994,1027,249
20:23:30.866,,949,1122,251
20:23:30.903,,758,1069,257
20:23:30.940,,539,954,149
20:23:30.978,,346,922,-7
20:23:31.015,,255,978,-152
20:23:31.052,,189,909,-99
20:23:31.089,,295,853,96
20:23:31.126,,296,175,602
20:23:31.163,,329,-83,855
20:23:31.200,,315,-479,809
20:23:31.237,,312,-337,858
20:23:31.274,,336,-332,742
20:23:31.311,,298,-249,601
20:23:31.348,,325,25,512
20:23:31.385,,396,87,167
20:23:31.422,,435,266,37
20:23:31.459,,538,306,-231
20:23:31.496,,680,574,-268
20:23:31.533,,864,824,-307
20:23:31.570,,1154,944,-103
20:23:31.607,,1437,918,231
20:23:31.645,,1469,116,134
20:23:31.682,,1591,470,727
20:23:31.719,,1475,-145,962
20:23:31.756,,1488,21,757
20:23:31.793,,1781,750,363
20:23:31.830,,1318,1165,256
20:23:31.867,,652,944,368
20:23:31.904,,637,579,218
20:23:31.941,,876,545,-7
20:23:31.978,,1153,577,-26
20:23:32.015,,1043,507,5
20:23:32.052,,957,379,26
20:23:32.089,,1002,368,2
20:23:32.126,,1012,446,-28
20:23:32.163,,989,450,6
20:23:32.200,,903,345,-28
20:23:32.237,,850,231,-83
20:23:32.274,,829,225,-65
20:23:32.311,,778,210,-48
20:23:32.349,,755,228,-79
20:23:32.386,,1000,194,-144
20:23:32.423,,1150,506,-24
20:23:32.460,,818,1408,1238
20:23:32.497,,1036,1059,1288
20:23:32.534,,1363,984,786
20:23:32.571,,1061,925,237
20:23:32.608,,672,897,-99
20:23:32.645,,330,936,-411
20:23:32.682,,26,966,-729
20:23:32.719,,290,1146,-530
20:23:32.756,,430,563,-35
20:23:32.793,,344,5,-694
20:23:32.830,,120,504,-450
20:23:32.867,,-65,498,-416
20:23:32.904,,-217,407,-410
20:23:32.941,,-375,383,-421
20:23:32.979,,-463,350,-460
20:23:33.016,,-334,380,-802
20:23:33.053,,-499,718,-625
20:23:33.090,,-359,519,-663
20:23:33.127,,-203,745,-695
20:23:33.164,,-141,768,-802
20:23:33.201,,-246,659,-632
20:23:33.238,,-320,723,-424
20:23:33.275,,-254,671,-532
20:23:33.312,,-280,498,-526
20:23:33.349,,-290,671,-603
20:23:33.386,,-357,588,-659
20:23:33.423,,-328,455,-598
20:23:33.460,,-377,373,-465
20:23:33.497,,-232,354,-443
20:23:33.534,,36,584,-385
20:23:33.571,,431,320,-620
20:23:33.608,,991,714,-582
20:23:33.645,,678,1687,53
20:23:33.683,,895,803,114
20:23:33.720,,1160,145,154
20:23:33.757,,1219,104,536
20:23:33.794,,852,276,760
20:23:33.831,,738,810,762
20:23:33.868,,701,948,575
20:23:33.905,,700,787,545
20:23:33.942,,760,744,624
20:23:33.979,,754,1241,800
20:23:34.016,,909,1204,578
20:23:34.053,,991,1126,427
20:23:34.090,,954,1251,122
20:23:34.127,,941,1314,-11
20:23:34.164,,289,927,-706
20:23:34.201,,296,796,-707
20:23:34.238,,513,713,-378
20:23:34.275,,495,675,298
20:23:34.312,,332,525,543
20:23:34.350,,76,496,570
20:23:34.387,,-86,390,473
20:23:34.424,,-250,337,256
20:23:34.461,,-371,308,44
20:23:34.498,,-347,318,-60
20:23:34.535,,-203,377,-138
20:23:34.572,,42,334,-248
20:23:34.609,,492,621,-272
20:23:34.646,,1060,816,-327
20:23:34.683,,1132,1352,-129
20:23:34.720,,1123,1461,295
20:23:34.757,,974,544,-20
20:23:34.794,,1286,-22,7
20:23:34.831,,1098,5,405
20:23:34.868,,898,377,590
20:23:34.905,,1193,1452,1661
20:23:34.942,,835,380,1396
20:23:34.979,,574,-82,318
20:23:35.016,,606,58,-37
20:23:35.054,,662,448,18
20:23:35.091,,754,769,12
20:23:35.128,,830,412,-45
20:23:35.165,,885,347,13
20:23:35.202,,1422,431,40
20:23:35.239,,1289,584,23
20:23:35.276,,560,488,147
20:23:35.313,,789,361,506
20:23:35.350,,1131,342,185
20:23:35.387,,957,735,233
20:23:35.424,,820,474,470
20:23:35.461,,839,388,426
20:23:35.498,,877,398,301
20:23:35.535,,879,391,180
20:23:35.572,,827,374,111
20:23:35.609,,853,363,74
20:23:35.646,,953,374,32
20:23:35.684,,1003,324,-58
20:23:35.721,,1372,250,-217
20:23:35.758,,1140,371,-202
20:23:35.795,,737,495,74
20:23:35.832,,635,468,259
20:23:35.869,,765,355,139
20:23:35.906,,821,214,41
20:23:35.943,,789,305,118
20:23:35.980,,708,357,178
20:23:36.017,,669,403,210
20:23:36.054,,700,401,252
20:23:36.091,,758,437,230
20:23:36.128,,811,450,263
20:23:36.165,,822,466,220
20:23:36.202,,929,504,221
20:23:36.239,,997,498,165
20:23:36.276,,1156,543,126
20:23:36.313,,1628,628,-17
20:23:36.350,,858,607,-12
20:23:36.387,,552,515,106
20:23:36.425,,805,533,-73
20:23:36.462,,1229,738,-144
20:23:36.499,,1000,541,-43
20:23:36.536,,937,443,-6
20:23:36.573,,971,394,36
20:23:36.610,,945,517,-34
20:23:36.647,,895,587,54
20:23:36.684,,776,584,10
20:23:36.721,,731,497,-21
20:23:36.758,,676,167,-90
20:23:36.795,,632,309,-206
20:23:36.832,,709,488,-263
20:23:36.869,,976,446,-353
20:23:36.906,,870,385,-412
20:23:36.943,,613,618,-183
20:23:36.980,,774,857,-243
20:23:37.017,,915,787,-462
20:23:37.054,,845,396,-327
20:23:37.091,,836,-2,-46
20:23:37.129,,850,-110,142
20:23:37.166,,931,106,169
20:23:37.203,,906,393,203
20:23:37.240,,861,639,242
20:23:37.277,,805,660,275
20:23:37.314,,853,548,212
20:23:37.351,,1046,575,168
20:23:37.388,,1066,633,113
20:23:37.425,,1075,526,143
20:23:37.462,,1593,615,-16
20:23:37.499,,761,588,-23
20:23:37.536,,709,565,-56
20:23:37.573,,1137,945,-368
20:23:37.610,,1420,1212,-317
20:23:37.647,,1556,978,-124
20:23:37.684,,1725,1271,41
20:23:37.721,,1739,1519,114
20:23:37.758,,1513,1429,170
20:23:37.796,,1177,1110,259
20:23:37.833,,753,681,191
20:23:37.870,,278,260,167
20:23:37.907,,-70,98,117
20:23:37.944,,-240,62,133
20:23:37.981,,-376,-111,168
20:23:38.018,,-548,-229,177
20:23:38.055,,-779,-307,301
20:23:38.092,,-614,-313,464
20:23:38.129,,-398,-322,462
20:23:38.166,,-385,-434,429
20:23:38.203,,-396,-644,472
20:23:38.240,,-462,-416,606
20:23:38.277,,-591,-295,532
20:23:38.314,,-626,-243,445
20:23:38.351,,-640,-401,459
20:23:38.388,,-703,-384,574
20:23:38.425,,-790,-499,523
20:23:38.462,,-950,-560,557
20:23:38.500,,-1012,-578,723
20:23:38.537,,-980,-537,694
20:23:38.574,,-1002,-462,456
20:23:38.611,,-965,-393,467
20:23:38.648,,-814,-497,254
20:23:38.685,,-593,-533,75
20:23:38.722,,-631,-96,230
20:23:38.759,,-792,-215,250
20:23:38.796,,-799,-256,350
20:23:38.833,,-763,53,408
20:23:38.870,,-807,270,582
20:23:38.907,,-800,153,631
20:23:38.944,,-835,-79,642
20:23:38.981,,-816,-125,591
20:23:39.018,,-839,-66,495
20:23:39.055,,-832,-59,408
20:23:39.092,,-687,149,525
20:23:39.129,,-572,111,541
20:23:39.167,,-392,319,710
20:23:39.204,,-317,416,1049
20:23:39.241,,-82,450,1210
20:23:39.278,,192,384,1228
20:23:39.315,,264,142,1084
20:23:39.352,,155,117,853
20:23:39.389,,-12,231,656
20:23:39.426,,-113,296,597
20:23:39.463,,-89,755,663
20:23:39.500,,0,1839,1105
20:23:39.537,,92,1759,1483
20:23:39.574,,-58,1558,1611
20:23:39.611,,-307,1315,1439
20:23:39.648,,-243,1199,961
20:23:39.685,,-127,1133,909
20:23:39.722,,82,667,517
20:23:39.760,,379,783,383
20:23:39.797,,259,692,450
20:23:39.834,,314,585,543
20:23:39.871,,445,365,318
20:23:39.908,,260,264,322
20:23:39.945,,99,158,524
20:23:39.982,,74,217,713
20:23:40.019,,82,107,739
20:23:40.056,,69,67,832
20:23:40.093,,69,86,980
20:23:40.130,,41,88,982
20:23:40.167,,-44,-9,1007
20:23:40.204,,-10,-29,992
20:23:40.241,,23,-24,1019
20:23:40.278,,-109,-60,662
20:23:40.315,,38,190,1289
20:23:40.352,,201,116,1262
20:23:40.389,,180,-34,890
20:23:40.427,,-23,28,1012
20:23:40.464,,-68,14,1042
20:23:40.501,,-100,35,932
20:23:40.538,,-94,38,783
20:23:40.575,,-138,170,832
20:23:40.612,,-200,139,858
20:23:40.649,,-180,155,915
20:23:40.686,,-138,181,1006
20:23:40.723,,-115,105,1078
20:23:40.760,,-142,152,1045
20:23:40.797,,-185,206,1041
20:23:40.834,,35,248,815
20:23:40.871,,-110,269,1136
20:23:40.908,,-78,197,1185
20:23:40.945,,7,256,1003
20:23:40.983,,152,190,831
20:23:41.020,,23,246,1052
20:23:41.057,,35,108,1054
20:23:41.094,,111,115,1047
20:23:41.131,,139,16,965
20:23:41.168,,120,219,959
20:23:41.205,,52,223,1028
20:23:41.242,,67,75,988
20:23:41.279,,134,255,1086
20:23:41.316,,65,246,1211
20:23:41.353,,56,-157,794
20:23:41.390,,-107,53,1066
20:23:41.427,,394,71,1230
20:23:41.464,,90,63,1105
20:23:41.501,,-25,366,1288
20:23:41.538,,81,468,1010
20:23:41.575,,126,550,938
20:23:41.612,,-39,589,881
20:23:41.650,,-62,564,571
20:23:41.687,,108,131,512
20:23:41.724,,-22,80,874
20:23:41.761,,-50,239,1185
20:23:41.798,,-17,-100,1230
20:23:41.835,,-89,116,1168
20:23:41.872,,18,464,855
20:23:41.909,,-166,748,623
20:23:41.946,,-442,542,1042
20:23:41.983,,78,903,686
20:23:42.020,,36,715,646
20:23:42.057,,-32,418,846
20:23:42.094,,53,347,871
20:23:42.131,,79,149,851
20:23:42.168,,76,7,882
20:23:42.205,,71,6,943
20:23:42.243,,0,140,1009
20:23:42.280,,-29,147,1019
20:23:42.317,,-102,339,1080
20:23:42.354,,-77,317,1106
20:23:42.391,,-6,314,1061
20:23:42.428,,-18,238,901
20:23:42.465,,130,31,880
20:23:42.502,,254,536,498
20:23:42.539,,-236,1100,564
20:23:42.576,,-227,1335,494
20:23:42.613,,-63,1014,346
20:23:42.650,,-86,936,164
20:23:42.687,,-149,1058,79
20:23:42.724,,-194,793,57
20:23:42.761,,-227,849,84
20:23:42.798,,-246,950,100
20:23:42.836,,-243,1008,232
20:23:42.873,,-188,1031,315
20:23:42.910,,-197,1034,243
20:23:42.947,,-136,970,86
20:23:42.984,,25,857,-8
20:23:43.021,,-470,1034,254
20:23:43.058,,-102,1002,139
20:23:43.095,,179,898,60
20:23:43.132,,83,993,228
20:23:43.169,,1,974,334
20:23:43.206,,1,923,426
20:23:43.243,,89,933,450
20:23:43.280,,17,1006,368
20:23:43.317,,-32,962,372
20:23:43.354,,-1,769,371
20:23:43.391,,-43,826,384
20:23:43.428,,-45,897,362
20:23:43.466,,-51,883,407
20:23:43.503,,84,669,292
20:23:43.540,,457,596,-129
20:23:43.577,,75,1189,-20
20:23:43.614,,404,1259,406
20:23:43.651,,751,140,862
20:23:43.688,,879,582,1246
20:23:43.725,,1112,403,1713
20:23:43.762,,1045,-91,1924
20:23:43.799,,627,-4,1976
20:23:43.836,,518,207,1521
20:23:43.873,,514,423,1039
20:23:43.910,,500,408,273
20:23:43.947,,385,200,-157
20:23:43.984,,109,82,-335
20:23:44.022,,329,531,-56
20:23:44.059,,340,1152,154
20:23:44.096,,887,520,-210
20:23:44.133,,622,105,371
20:23:44.170,,531,539,762
20:23:44.207,,1253,536,873
20:23:44.244,,1667,169,1669
20:23:44.281,,1997,-206,1998
20:23:44.318,,1997,-718,1956
20:23:44.355,,1840,-1251,1403
20:23:44.392,,1447,-1141,916
20:23:44.429,,1142,-945,582
20:23:44.466,,956,-974,507
20:23:44.503,,606,-1513,130
20:23:44.540,,321,-1352,-40
20:23:44.577,,649,-51,-42
20:23:44.614,,918,342,-274
20:23:44.652,,1643,217,-688
20:23:44.689,,1997,359,-1246
20:23:44.726,,1872,1659,-51
20:23:44.763,,643,1289,-665
20:23:44.800,,566,493,-476
20:23:44.837,,1052,730,202
20:23:44.874,,1444,489,400
20:23:44.911,,1123,631,908
20:23:44.948,,1149,22,1176
20:23:44.985,,1247,-394,1066
20:23:45.022,,1186,49,1007
20:23:45.059,,1105,326,959
20:23:45.096,,1115,290,692
20:23:45.133,,1149,333,435
20:23:45.170,,1219,510,285
20:23:45.207,,1556,692,217
20:23:45.245,,831,422,100
20:23:45.282,,737,330,-56
20:23:45.319,,1099,420,-210
20:23:45.356,,1160,612,-87
20:23:45.393,,954,497,49
20:23:45.430,,910,391,124
20:23:45.467,,954,436,140
20:23:45.504,,966,491,149
20:23:45.541,,841,485,219
20:23:45.578,,704,343,206
20:23:45.615,,606,264,197
20:23:45.652,,590,279,209
20:23:45.689,,561,298,262
20:23:45.726,,724,277,238
20:23:45.764,,1028,305,173
20:23:45.801,,930,336,325
20:23:45.838,,880,345,445
20:23:45.875,,1116,283,289
20:23:45.912,,1236,213,118
20:23:45.949,,1100,227,131
20:23:45.986,,923,327,239
20:23:46.023,,825,389,263
20:23:46.060,,795,417,209
20:23:46.097,,804,459,212
20:23:46.134,,792,466,249
20:23:46.171,,758,475,316
20:23:46.208,,763,490,316
20:23:46.245,,858,488,240
20:23:46.282,,959,463,152
20:23:46.319,,1774,532,0
20:23:46.357,,1172,528,102
20:23:46.394,,644,409,270
20:23:46.431,,814,337,147
20:23:46.468,,1097,532,-51
20:23:46.505,,1084,551,67
20:23:46.542,,957,419,120
20:23:46.579,,942,409,120
20:23:46.616,,917,521,126
20:23:46.653,,900,555,107
20:23:46.690,,773,515,168
20:23:46.727,,683,430,166
20:23:46.764,,660,384,97
20:23:46.801,,660,400,89
20:23:46.838,,715,405,115
20:23:46.875,,980,395,6
20:23:46.912,,784,435,93
20:23:46.950,,828,462,258
20:23:46.987,,994,381,197
20:23:47.024,,1031,234,-30
20:23:47.061,,1048,234,87
20:23:47.098,,1044,317,173
20:23:47.135,,987,392,229
20:23:47.172,,920,355,238
20:23:47.209,,884,392,236
20:23:47.246,,816,416,225
20:23:47.283,,808,443,243
20:23:47.320,,787,472,245
20:23:47.357,,795,444,226
20:23:47.394,,938,399,163
20:23:47.431,,1049,368,73
20:23:47.468,,1580,468,50
20:23:47.505,,1151,504,65
20:23:47.543,,718,356,70
20:23:47.580,,812,335,82
20:23:47.617,,1111,532,-13
20:23:47.654,,1177,521,29
20:23:47.691,,1062,402,76
20:23:47.728,,1016,270,72
20:23:47.765,,963,182,-27
20:23:47.802,,890,382,46
20:23:47.839,,780,406,202
20:23:47.876,,621,271,233
20:23:47.913,,546,305,202
20:23:47.950,,559,324,163
20:23:47.987,,637,362,200
20:23:48.024,,938,361,166
20:23:48.061,,1202,351,-2
20:23:48.098,,1132,260,10
20:23:48.135,,1450,608,259
20:23:48.173,,1197,641,167
20:23:48.210,,912,275,199
20:23:48.247,,963,376,242
20:23:48.284,,834,394,62
20:23:48.321,,693,417,57
20:23:48.358,,643,348,45
20:23:48.395,,714,368,123
20:23:48.432,,758,366,96
20:23:48.469,,703,454,177
20:23:48.506,,689,489,288
20:23:48.543,,843,443,277
20:23:48.580,,1061,340,132
20:23:48.617,,1766,442,44
20:23:48.654,,1271,422,32
20:23:48.691,,749,414,105
20:23:48.728,,658,320,82
20:23:48.766,,979,498,-55
20:23:48.803,,1069,538,-49
20:23:48.840,,957,400,-63
20:23:48.877,,959,420,-53
20:23:48.914,,1038,501,-55
20:23:48.951,,1018,574,-43
20:23:48.988,,913,619,43
20:23:49.025,,881,557,60
20:23:49.062,,836,516,34
20:23:49.099,,822,450,51
20:23:49.136,,753,373,91
20:23:49.173,,724,314,103
20:23:49.210,,898,300,58
20:23:49.247,,725,515,120
20:23:49.284,,600,977,145
20:23:49.321,,743,753,-18
20:23:49.358,,813,611,-5
20:23:49.396,,681,716,26
20:23:49.433,,535,688,7
20:23:49.470,,467,694,-10
20:23:49.507,,450,827,131
20:23:49.544,,348,789,66
20:23:49.581,,375,871,-22
20:23:49.618,,422,962,62
20:23:49.655,,424,887,85
20:23:49.692,,420,851,23
20:23:49.729,,404,871,-8
20:23:49.766,,535,1088,-50
20:23:49.803,,677,1290,-114
20:23:49.840,,557,856,-33
20:23:49.877,,387,746,29
20:23:49.914,,498,1000,-29
20:23:49.951,,648,1111,-17
20:23:49.989,,651,886,92
20:23:50.026,,529,689,148
20:23:50.063,,459,691,191
20:23:50.100,,433,664,172
20:23:50.137,,391,606,169
20:23:50.174,,401,572,198
20:23:50.211,,438,478,180
20:23:50.248,,486,410,118
20:23:50.285,,587,407,106
20:23:50.322,,940,305,-2
20:23:50.359,,1393,382,9
20:23:50.396,,1253,430,362
20:23:50.433,,1328,53,78
20:23:50.470,,1389,341,76
20:23:50.507,,1128,454,292
20:23:50.544,,901,396,401
20:23:50.581,,829,376,360
20:23:50.619,,846,363,208
20:23:50.656,,858,426,142
20:23:50.693,,847,580,187
20:23:50.730,,749,615,229
20:23:50.767,,765,597,271
20:23:50.804,,927,590,187
20:23:50.841,,1011,588,162
20:23:50.878,,1440,602,53
20:23:50.915,,1164,523,53
20:23:50.952,,835,437,145
20:23:50.989,,1024,412,31
20:23:51.026,,1202,521,-32
20:23:51.063,,1115,542,111
20:23:51.100,,1135,382,86
20:23:51.137,,1194,343,63
20:23:51.174,,1134,339,64
20:23:51.211,,998,386,89
20:23:51.248,,779,371,124
20:23:51.286,,642,286,84
20:23:51.323,,575,264,42
20:23:51.360,,543,269,49
20:23:51.397,,568,280,102
20:23:51.434,,880,306,30
20:23:51.471,,818,387,221
20:23:51.508,,821,435,463
20:23:51.545,,1159,346,308
20:23:51.582,,1309,343,127
20:23:51.619,,1161,118,71
20:23:51.656,,1001,188,141
20:23:51.693,,945,343,195
20:23:51.730,,916,439,182
20:23:51.767,,865,505,245
20:23:51.804,,802,514,278
20:23:51.841,,763,523,304
20:23:51.878,,769,474,348
20:23:51.916,,906,404,251
20:23:51.953,,1050,424,186
20:23:51.990,,1511,493,107
20:23:52.027,,1389,497,101
20:23:52.064,,784,321,95
20:23:52.101,,795,242,82
20:23:52.138,,1022,427,-23
20:23:52.175,,1092,644,28
20:23:52.212,,886,351,102
20:23:52.249,,824,296,96
20:23:52.286,,874,340,24
20:23:52.323,,926,552,19
20:23:52.360,,916,607,66
20:23:52.397,,825,627,166
20:23:52.434,,730,657,143
20:23:52.471,,600,590,135
20:23:52.508,,506,514,135
20:23:52.545,,485,505,167
20:23:52.583,,776,454,67
20:23:52.620,,719,481,70
20:23:52.657,,624,448,196
20:23:52.694,,1036,433,76
20:23:52.731,,1088,273,57
20:23:52.768,,1000,215,74
20:23:52.805,,938,337,151
20:23:52.842,,946,414,135
20:23:52.879,,945,451,214
20:23:52.916,,906,442,214
20:23:52.953,,861,468,224
20:23:52.990,,838,419,136
20:23:53.027,,956,435,174
20:23:53.064,,967,470,258
20:23:53.101,,993,622,279
20:23:53.138,,1125,585,253
20:23:53.176,,1446,679,245
20:23:53.213,,1038,355,48
20:23:53.250,,1049,185,-28
20:23:53.287,,1024,322,-5
20:23:53.324,,1157,496,-8
20:23:53.361,,1143,352,-104
20:23:53.398,,1163,224,-144
20:23:53.435,,1185,232,-160
20:23:53.472,,1005,311,-140
20:23:53.509,,841,404,-110
20:23:53.546,,706,342,-142
20:23:53.583,,625,477,-172
20:23:53.620,,557,582,-134
20:23:53.657,,515,567,-118
20:23:53.694,,525,465,-91
20:23:53.731,,790,258,-140
20:23:53.769,,1001,383,-156
20:23:53.806,,1015,681,253
20:23:53.843,,1385,577,478
20:23:53.880,,1183,544,634
20:23:53.917,,940,76,746
20:23:53.954,,984,-296,718
20:23:53.991,,1045,-460,661
20:23:54.028,,1061,-228,406
20:23:54.065,,997,161,216
20:23:54.102,,840,392,235
20:23:54.139,,676,412,218
20:23:54.176,,661,346,112
20:23:54.213,,662,359,78
20:23:54.250,,694,372,104
20:23:54.287,,726,425,193
20:23:54.324,,874,450,248
20:23:54.362,,980,541,326
20:23:54.399,,1433,385,21
20:23:54.436,,1162,431,68
20:23:54.473,,771,443,301
20:23:54.510,,638,386,177
20:23:54.547,,650,523,3
20:23:54.584,,925,581,-34
20:23:54.621,,1044,508,10
20:23:54.658,,940,533,55
20:23:54.695,,924,408,220
20:23:54.732,,976,284,201
20:23:54.769,,1016,433,253
20:23:54.806,,1075,347,269
20:23:54.843,,1038,308,248
20:23:54.880,,950,365,258
20:23:54.917,,862,328,215
20:23:54.955,,835,313,189
20:23:54.992,,786,290,199
20:23:55.029,,768,248,130
20:23:55.066,,964,366,-8
20:23:55.103,,731,501,129
20:23:55.140,,630,401,378
20:23:55.177,,867,286,258
20:23:55.214,,1113,317,141
20:23:55.251,,1137,153,254
20:23:55.288,,928,159,372
20:23:55.325,,835,197,320
20:23:55.362,,871,221,189
20:23:55.399,,844,325,213
20:23:55.436,,807,369,253
20:23:55.473,,779,388,279
20:23:55.510,,740,355,272
20:23:55.548,,857,336,205
20:23:55.585,,948,331,144
20:23:55.622,,1196,332,66
20:23:55.659,,1605,531,80
20:23:55.696,,1035,486,186
20:23:55.733,,671,362,274
20:23:55.770,,737,421,89
20:23:55.807,,935,624,-33
20:23:55.844,,946,571,29
20:23:55.881,,890,477,157
20:23:55.918,,930,483,236
20:23:55.955,,907,510,265
20:23:55.992,,900,463,300
20:23:56.029,,834,354,270
20:23:56.066,,719,306,241
20:23:56.103,,703,265,216
20:23:56.140,,785,275,196
20:23:56.178,,899,255,115
20:23:56.215,,1228,298,-103
20:23:56.252,,897,439,43
20:23:56.289,,788,513,276
20:23:56.326,,920,486,181
20:23:56.363,,992,391,186
20:23:56.400,,1002,81,69
20:23:56.437,,942,127,159
20:23:56.474,,867,248,185
20:23:56.511,,846,379,187
20:23:56.548,,781,434,207
20:23:56.585,,789,439,183
20:23:56.622,,766,454,197
20:23:56.659,,761,451,199
20:23:56.696,,943,480,170
20:23:56.734,,1115,516,113
20:23:56.771,,1810,591,-40
20:23:56.808,,975,527,25
20:23:56.845,,579,403,177
20:23:56.882,,945,392,5
20:23:56.919,,1187,643,-73
20:23:56.956,,1039,402,-2
20:23:56.993,,958,351,46
20:23:57.030,,971,384,34
20:23:57.067,,1035,406,28
20:23:57.104,,986,427,20
20:23:57.141,,867,483,153
20:23:57.178,,818,438,136
20:23:57.215,,725,368,98
20:23:57.252,,693,327,104
20:23:57.289,,645,302,127
20:23:57.327,,916,300,22
20:23:57.364,,917,349,50
20:23:57.401,,847,388,155
20:23:57.438,,865,415,249
20:23:57.475,,958,399,173
20:23:57.512,,1040,256,71
20:23:57.549,,1037,293,105
20:23:57.586,,941,365,207
20:23:57.623,,870,365,207
20:23:57.660,,848,354,214
20:23:57.697,,844,366,197
20:23:57.734,,815,409,231
20:23:57.771,,758,431,304
20:23:57.808,,780,439,306
20:23:57.845,,938,424,271
20:23:57.882,,1057,425,206
20:23:57.920,,1471,489,130
20:23:57.957,,1279,521,103
20:23:57.994,,725,414,116
20:23:58.031,,778,379,100
20:23:58.068,,1031,471,-43
20:23:58.105,,1070,467,-47
20:23:58.142,,900,289,-4
20:23:58.179,,811,281,3
20:23:58.216,,842,380,-33
20:23:58.253,,903,314,-91
20:23:58.290,,890,303,-91
20:23:58.327,,832,348,-103
20:23:58.364,,778,377,-218
20:23:58.401,,691,353,-295
20:23:58.438,,664,358,-295
20:23:58.475,,791,426,-365
20:23:58.513,,1368,512,-632
20:23:58.550,,1190,1214,-550
20:23:58.587,,752,1442,-204
20:23:58.624,,909,942,-305
20:23:58.661,,979,1089,-557
20:23:58.698,,897,1003,-683
20:23:58.735,,774,899,-656
20:23:58.772,,861,741,-387
20:23:58.809,,554,297,-35
20:23:58.846,,339,19,-249
20:23:58.883,,166,13,-232
20:23:58.920,,31,84,-217
20:23:58.957,,6,251,-251
20:23:58.994,,-76,568,-252
20:23:59.031,,-39,830,-516
20:23:59.069,,-48,954,-800
20:23:59.106,,37,1194,-1054
20:23:59.143,,-107,1026,-972
20:23:59.180,,-245,704,-632
20:23:59.217,,-266,583,-613
20:23:59.254,,-72,741,-873
20:23:59.291,,94,834,-950
20:23:59.328,,57,772,-726
20:23:59.365,,-3,681,-493
20:23:59.402,,-28,668,-429
20:23:59.439,,-107,731,-491
20:23:59.476,,-184,728,-566
20:23:59.513,,-221,770,-623
20:23:59.550,,-241,661,-659
20:23:59.587,,-178,714,-625
20:23:59.625,,-104,575,-759
20:23:59.662,,69,915,-436
20:23:59.699,,248,1125,-625
20:23:59.736,,152,1298,-335
20:23:59.773,,213,1068,-189
20:23:59.810,,281,909,-172
20:23:59.847,,271,804,-206
20:23:59.884,,173,616,-353
20:23:59.921,,88,571,-455
20:23:59.958,,88,696,-486
20:23:59.995,,35,712,-410
20:24:00.032,,-16,653,-400
20:24:00.069,,-83,721,-474
20:24:00.106,,-117,738,-552
20:24:00.143,,-132,866,-681
20:24:00.181,,-109,843,-778
20:24:00.218,,-77,915,-839
20:24:00.255,,42,1126,-1026
20:24:00.292,,7,914,-821
20:24:00.329,,-135,683,-589
20:24:00.366,,-133,722,-651
20:24:00.403,,22,947,-701
20:24:00.440,,142,948,-641
20:24:00.477,,161,960,-506
20:24:00.514,,131,980,-363
20:24:00.551,,77,903,-282
20:24:00.588,,33,859,-243
20:24:00.625,,5,780,-209
20:24:00.662,,25,739,-185
20:24:00.699,,65,663,-177
20:24:00.736,,69,575,-98
20:24:00.774,,151,546,62
20:24:00.811,,464,495,-17
20:24:00.848,,524,577,-72
20:24:00.885,,624,538,229
20:24:00.922,,993,525,228
20:24:00.959,,1436,609,-24
20:24:00.996,,1473,521,-59
20:24:01.033,,1289,379,20
20:24:01.070,,1131,383,216
20:24:01.107,,1071,513,277
20:24:01.144,,1056,571,331
20:24:01.181,,926,542,286
20:24:01.218,,829,461,271
20:24:01.255,,762,515,305
20:24:01.292,,893,553,263
20:24:01.329,,921,596,168
20:24:01.366,,1099,654,34
20:24:01.404,,1344,759,-60
20:24:01.441,,749,521,66
20:24:01.478,,741,420,27
20:24:01.515,,1181,534,-184
20:24:01.552,,1221,669,-108
20:24:01.589,,1115,663,-76
20:24:01.626,,1137,367,-90
20:24:01.663,,1228,145,117
20:24:01.700,,1296,-21,283
20:24:01.737,,1145,76,308
20:24:01.774,,877,76,292
20:24:01.811,,625,-54,293
20:24:01.848,,483,-38,289
20:24:01.885,,472,13,329
20:24:01.922,,675,33,283
20:24:01.959,,931,183,218
20:24:01.996,,908,229,320
20:24:02.033,,1209,333,415
20:24:02.071,,1508,425,112
20:24:02.108,,1249,365,-45
20:24:02.145,,1030,250,47
20:24:02.182,,982,320,151
20:24:02.219,,917,394,138
20:24:02.256,,879,431,134
20:24:02.293,,860,443,78
20:24:02.330,,821,470,105
20:24:02.367,,765,496,117
20:24:02.404,,798,541,167
20:24:02.441,,943,521,147
20:24:02.478,,1088,534,80
20:24:02.515,,1463,592,7
20:24:02.552,,1007,514,28
20:24:02.589,,747,461,104
20:24:02.627,,932,483,-24
20:24:02.664,,1200,562,-116
20:24:02.701,,1074,445,-96
20:24:02.738,,1023,330,-60
20:24:02.775,,1023,334,-18
20:24:02.812,,1046,350,-2
20:24:02.849,,1028,355,-27
20:24:02.886,,935,396,8
20:24:02.923,,850,354,58
20:24:02.960,,778,302,46
20:24:02.997,,749,281,92
20:24:03.034,,830,233,48
20:24:03.071,,1031,296,9
20:24:03.108,,809,393,265
20:24:03.145,,884,473,537
20:24:03.182,,1071,325,295
20:24:03.220,,1075,134,83
20:24:03.257,,992,72,44
20:24:03.294,,929,224,114
20:24:03.331,,886,392,132
20:24:03.368,,867,402,102
20:24:03.405,,828,410,125
20:24:03.442,,782,440,186
20:24:03.479,,795,492,220
20:24:03.516,,923,533,191
20:24:03.553,,1039,595,103
20:24:03.590,,1013,595,63
20:24:03.627,,1560,638,-47
20:24:03.664,,864,631,13
20:24:03.701,,582,494,110
20:24:03.738,,913,450,-110
20:24:03.775,,1256,612,-191
20:24:03.813,,1094,525,-116
20:24:03.850,,1035,339,-100
20:24:03.887,,1053,385,-82
20:24:03.924,,1060,517,15
20:24:03.961,,1126,445,101
20:24:03.998,,979,464,152
20:24:04.035,,885,522,234
20:24:04.072,,761,410,208
20:24:04.109,,640,286,228
20:24:04.146,,578,277,301
20:24:04.183,,749,258,208
20:24:04.220,,780,290,174
20:24:04.257,,716,301,223
20:24:04.294,,874,315,202
20:24:04.331,,1129,367,86
20:24:04.368,,1175,340,20
20:24:04.405,,1077,386,60
20:24:04.443,,929,498,225
20:24:04.480,,955,424,189
20:24:04.517,,956,392,177
20:24:04.554,,947,408,253
20:24:04.591,,912,403,235
20:24:04.628,,824,454,240
20:24:04.665,,809,466,268
20:24:04.702,,953,494,173
20:24:04.739,,1017,534,127
20:24:04.776,,1267,579,48
20:24:04.813,,1287,676,15
20:24:04.850,,667,511,96
20:24:04.887,,741,403,49
20:24:04.924,,1151,495,-108
20:24:04.961,,1135,513,-62
20:24:04.999,,995,342,-16
20:24:05.036,,948,311,13
20:24:05.073,,1004,275,-34
20:24:05.110,,924,279,-62
20:24:05.147,,893,289,-61
20:24:05.184,,874,266,-49
20:24:05.221,,906,248,-16
20:24:05.258,,945,272,10
20:24:05.295,,908,336,93
20:24:05.332,,1269,363,11
20:24:05.369,,994,502,360
20:24:05.406,,833,450,591
20:24:05.443,,880,117,426
20:24:05.480,,957,-140,344
20:24:05.517,,1032,-33,224
20:24:05.554,,1004,270,141
20:24:05.591,,844,421,166
20:24:05.629,,769,401,112
20:24:05.666,,749,360,91
20:24:05.703,,751,340,23
20:24:05.740,,770,413,78
20:24:05.777,,763,433,91
20:24:05.814,,776,456,121
20:24:05.851,,893,464,109
20:24:05.888,,974,487,53
20:24:05.925,,1261,566,-26
20:24:05.962,,1438,744,-91
20:24:05.999,,802,608,79
20:24:06.036,,723,513,203
20:24:06.073,,962,627,-20
20:24:06.110,,1171,687,-120
20:24:06.147,,978,477,-10
20:24:06.184,,922,427,58
20:24:06.222,,960,466,-5
20:24:06.259,,1015,549,-30
20:24:06.296,,1018,592,5
20:24:06.333,,916,583,57
20:24:06.370,,837,543,29
20:24:06.407,,750,500,1
20:24:06.444,,669,420,32
20:24:06.481,,611,368,105
20:24:06.518,,737,326,89
20:24:06.555,,945,393,33
20:24:06.592,,712,408,257
20:24:06.629,,727,334,368
20:24:06.666,,929,271,181
20:24:06.703,,1048,214,91
20:24:06.740,,1015,243,133
20:24:06.777,,972,317,168
20:24:06.814,,977,354,113
20:24:06.852,,979,401,119
20:24:06.889,,1000,446,127
20:24:06.926,,1011,483,133
20:24:06.963,,988,458,95
20:24:07.000,,918,561,120
20:24:07.037,,902,545,135
20:24:07.074,,985,580,91
20:24:07.111,,984,531,72
20:24:07.148,,1366,637,23
20:24:07.185,,1097,684,57
20:24:07.222,,746,561,132
20:24:07.259,,963,492,-16
20:24:07.296,,1294,566,-160
20:24:07.333,,1189,430,-86
20:24:07.370,,1003,276,-32
20:24:07.408,,1004,287,-52
20:24:07.445,,1079,338,-75
20:24:07.482,,1064,374,-84
20:24:07.519,,967,378,-33
20:24:07.556,,813,356,22
20:24:07.593,,728,312,3
20:24:07.630,,632,265,39
20:24:07.667,,603,327,228
20:24:07.704,,841,310,249
20:24:07.741,,986,305,223
20:24:07.778,,790,271,418
20:24:07.815,,915,253,443
20:24:07.852,,1229,306,270
20:24:07.889,,1171,254,149
20:24:07.926,,980,257,143
20:24:07.964,,915,375,181
20:24:08.001,,861,435,142
20:24:08.038,,868,433,144
20:24:08.075,,842,445,138
20:24:08.112,,828,510,151
20:24:08.149,,760,537,224
20:24:08.186,,809,545,208
20:24:08.223,,949,539,139
20:24:08.260,,1360,543,20
20:24:08.297,,1620,727,-111
20:24:08.334,,806,696,78
20:24:08.371,,812,253,45
20:24:08.408,,974,398,-162
20:24:08.445,,1095,506,-204
20:24:08.482,,1018,461,-140
20:24:08.519,,965,370,-85
20:24:08.556,,953,348,-47
20:24:08.594,,956,409,-25
20:24:08.631,,927,461,-36
20:24:08.668,,866,550,76
20:24:08.705,,794,520,74
20:24:08.742,,703,492,128
20:24:08.779,,647,438,176
20:24:08.816,,593,424,196
20:24:08.853,,666,413,159
20:24:08.890,,843,474,91
20:24:08.927,,777,546,110
20:24:08.964,,878,625,174
20:24:09.001,,801,635,223
20:24:09.038,,814,503,218
20:24:09.075,,899,371,150
20:24:09.112,,825,399,137
20:24:09.149,,740,437,202
20:24:09.187,,726,377,199
20:24:09.224,,698,443,196
20:24:09.261,,738,599,206
20:24:09.298,,760,588,172
20:24:09.335,,800,510,183
20:24:09.372,,774,480,188
20:24:09.409,,851,485,156
20:24:09.446,,944,484,105
20:24:09.483,,1170,466,59
20:24:09.520,,1529,609,37
20:24:09.557,,1027,515,22
20:24:09.594,,827,371,78
20:24:09.631,,759,369,30
20:24:09.668,,971,444,-55
20:24:09.705,,975,463,-38
20:24:09.742,,848,364,18
20:24:09.780,,838,406,44
20:24:09.817,,897,527,23
20:24:09.854,,897,565,13
20:24:09.891,,853,612,97
20:24:09.928,,821,621,91
20:24:09.965,,729,672,77
20:24:10.002,,658,614,110
20:24:10.039,,610,551,76
20:24:10.076,,586,551,72
20:24:10.113,,604,505,67
20:24:10.150,,908,441,-74
20:24:10.187,,793,582,-25
20:24:10.224,,656,529,147
20:24:10.261,,836,452,125
20:24:10.298,,1034,404,-15
20:24:10.335,,1032,256,13
20:24:10.372,,915,264,129
20:24:10.410,,793,373,231
20:24:10.447,,773,375,213
20:24:10.484,,778,345,231
20:24:10.521,,798,396,255
20:24:10.558,,824,443,244
20:24:10.595,,832,478,207
20:24:10.632,,828,535,227
20:24:10.669,,942,491,189
20:24:10.706,,1026,444,140
20:24:10.743,,1023,472,142
20:24:10.780,,1513,549,58
20:24:10.817,,1035,519,23
20:24:10.854,,711,415,81
20:24:10.891,,830,444,61
20:24:10.928,,1117,558,-46
20:24:10.965,,1008,490,-16
20:24:11.002,,901,412,29
20:24:11.040,,878,462,47
20:24:11.077,,875,470,34
20:24:11.114,,861,464,28
20:24:11.151,,767,482,45
20:24:11.188,,680,415,56
20:24:11.225,,696,365,12
20:24:11.262,,704,400,2
20:24:11.299,,572,415,124
20:24:11.336,,838,343,58
20:24:11.373,,985,467,106
20:24:11.410,,874,487,334
20:24:11.447,,955,412,318
20:24:11.484,,1090,423,225
20:24:11.521,,1092,229,96
20:24:11.558,,954,255,174
20:24:11.596,,860,301,188
20:24:11.633,,837,381,147
20:24:11.670,,787,377,142
20:24:11.707,,742,370,140
20:24:11.744,,731,379,133
20:24:11.781,,770,398,118
20:24:11.818,,808,458,158
20:24:11.855,,930,524,160
20:24:11.892,,992,537,103
20:24:11.929,,1081,535,98
20:24:11.966,,1497,605,62
20:24:12.003,,934,549,43
20:24:12.040,,707,382,95
20:24:12.077,,938,489,-19
20:24:12.114,,1196,610,-86
20:24:12.151,,969,477,-12
20:24:12.188,,824,468,57
20:24:12.226,,865,513,34
20:24:12.263,,937,543,-24
20:24:12.300,,902,533,-13
20:24:12.337,,786,503,24
20:24:12.374,,683,478,17
20:24:12.411,,635,430,-12
20:24:12.448,,618,408,-8
20:24:12.485,,596,394,88
20:24:12.522,,913,337,-12
20:24:12.559,,893,493,121
20:24:12.596,,813,483,414
20:24:12.633,,948,360,346
20:24:12.670,,1135,269,161
20:24:12.707,,1097,139,129
20:24:12.744,,973,239,167
20:24:12.782,,878,328,174
20:24:12.819,,831,318,79
20:24:12.856,,862,357,42
20:24:12.893,,828,483,129
20:24:12.930,,769,466,199
20:24:12.967,,790,453,268
20:24:13.004,,811,497,266
20:24:13.041,,940,484,206
20:24:13.078,,1035,466,102
20:24:13.115,,1232,483,79
20:24:13.152,,1528,539,-22
20:24:13.189,,795,513,25
20:24:13.226,,675,428,117
20:24:13.263,,997,493,-55
20:24:13.300,,1170,608,-121
20:24:13.338,,969,439,13
20:24:13.375,,932,403,98
20:24:13.412,,967,498,30
20:24:13.449,,978,557,45
20:24:13.486,,890,536,92
20:24:13.523,,766,552,149
20:24:13.560,,690,500,124
20:24:13.597,,631,441,106
20:24:13.634,,583,396,126
20:24:13.671,,607,384,139
20:24:13.708,,919,397,18
20:24:13.745,,749,428,150
20:24:13.782,,791,388,294
20:24:13.819,,952,327,167
20:24:13.856,,1002,314,71
20:24:13.893,,1016,253,73
20:24:13.930,,929,324,99
20:24:13.968,,872,396,174
20:24:14.005,,858,408,155
20:24:14.042,,892,468,192
20:24:14.079,,896,495,205
20:24:14.116,,894,488,270
20:24:14.153,,858,451,342
20:24:14.190,,863,475,347
20:24:14.227,,1021,498,162
20:24:14.264,,1308,534,114
20:24:14.301,,1326,639,48
20:24:14.338,,758,496,42
20:24:14.375,,838,392,3
20:24:14.412,,1139,419,-98
20:24:14.449,,1115,528,-14
20:24:14.486,,971,526,-5
20:24:14.523,,937,548,-90
20:24:14.560,,995,562,-144
20:24:14.598,,974,585,-75
20:24:14.635,,830,580,4
20:24:14.672,,704,506,92
20:24:14.709,,628,411,113
20:24:14.746,,568,378,130
20:24:14.783,,554,389,186
20:24:14.820,,719,326,111
20:24:14.857,,767,406,117
20:24:14.894,,652,368,277
20:24:14.931,,812,306,281
20:24:14.968,,1029,321,149
20:24:15.005,,1101,253,118
20:24:15.042,,1034,327,106
20:24:15.079,,1004,407,186
20:24:15.116,,1019,428,172
20:24:15.153,,1008,476,166
20:24:15.190,,996,494,190
20:24:15.228,,933,485,197
20:24:15.265,,848,481,234
20:24:15.302,,800,497,238
20:24:15.339,,823,499,200
20:24:15.376,,937,489,121
20:24:15.413,,1568,564,-11
20:24:15.450,,1121,565,-7
20:24:15.487,,808,404,39
20:24:15.524,,1083,346,-43
20:24:15.561,,1223,553,-131
20:24:15.598,,974,514,-46
20:24:15.635,,890,374,49
20:24:15.672,,917,416,32
20:24:15.709,,976,518,-24
20:24:15.746,,969,568,3
20:24:15.783,,882,582,69
20:24:15.821,,799,550,74
20:24:15.858,,686,447,63
20:24:15.895,,559,356,96
20:24:15.932,,469,363,173
20:24:15.969,,574,339,158
20:24:16.006,,870,379,87
20:24:16.043,,744,359,307
20:24:16.080,,864,394,427
20:24:16.117,,1003,535,315
20:24:16.154,,1090,455,114
20:24:16.191,,1136,351,127
20:24:16.228,,1065,414,287
20:24:16.265,,889,303,248
20:24:16.302,,832,254,154
20:24:16.339,,829,269,79
20:24:16.376,,806,372,48
20:24:16.414,,769,411,89
20:24:16.451,,811,431,171
20:24:16.488,,765,445,260
20:24:16.525,,855,503,377
20:24:16.562,,978,412,344
20:24:16.599,,947,343,255
20:24:16.636,,1231,397,126
20:24:16.673,,1438,589,101
20:24:16.710,,939,423,144
20:24:16.747,,714,253,204
20:24:16.784,,795,407,62
20:24:16.821,,1155,518,-35
20:24:16.858,,1093,485,-42
20:24:16.895,,938,420,60
20:24:16.932,,900,484,160
20:24:16.969,,832,682,336
20:24:17.006,,874,603,391
20:24:17.044,,876,689,329
20:24:17.081,,818,508,319
20:24:17.118,,722,313,260
20:24:17.155,,665,269,289
20:24:17.192,,693,374,461
20:24:17.229,,667,410,445
20:24:17.266,,793,271,162
20:24:17.303,,959,170,30
20:24:17.340,,692,243,178
20:24:17.377,,825,105,172
20:24:17.414,,815,201,211
20:24:17.451,,839,346,255
20:24:17.488,,974,240,155
20:24:17.525,,1004,354,302
20:24:17.562,,989,315,234
20:24:17.600,,947,199,227
20:24:17.637,,978,158,188
20:24:17.674,,956,43,72
20:24:17.711,,978,424,265
20:24:17.748,,911,903,397
20:24:17.785,,758,816,465
20:24:17.822,,752,663,430
20:24:17.859,,960,574,247
20:24:17.896,,1052,515,110
20:24:17.933,,1532,613,10
20:24:17.970,,1058,652,30
20:24:18.007,,692,492,20
20:24:18.044,,889,389,-132
20:24:18.081,,1211,461,-167
20:24:18.118,,999,352,-63
20:24:18.155,,819,255,-4
20:24:18.193,,864,288,71
20:24:18.230,,915,257,-6
20:24:18.267,,778,350,8
20:24:18.304,,659,756,-13
20:24:18.341,,670,859,-20
20:24:18.378,,606,695,-54
20:24:18.415,,581,595,-71
20:24:18.452,,592,537,-74
20:24:18.489,,623,513,-89
20:24:18.526,,935,465,-168
20:24:18.563,,1007,579,-255
20:24:18.600,,691,719,112
20:24:18.637,,793,581,254
20:24:18.674,,976,391,45
20:24:18.711,,1014,153,1
20:24:18.748,,992,119,81
20:24:18.785,,924,295,127
20:24:18.823,,874,410,79
20:24:18.860,,840,383,87
20:24:18.897,,771,292,55
20:24:18.934,,696,402,69
20:24:18.971,,726,533,126
20:24:19.008,,821,726,188
20:24:19.045,,1031,742,80
20:24:19.082,,1076,678,7
20:24:19.119,,1395,538,31
20:24:19.156,,1367,512,-30
20:24:19.193,,752,545,28
20:24:19.230,,694,436,6
20:24:19.267,,1075,503,-70
20:24:19.304,,1250,727,-34
20:24:19.341,,1050,488,-62
20:24:19.378,,945,297,-68
20:24:19.415,,919,363,58
20:24:19.452,,906,375,125
20:24:19.490,,832,328,150
20:24:19.527,,723,161,159
20:24:19.564,,663,160,110
20:24:19.601,,726,250,132
20:24:19.638,,816,282,69
20:24:19.675,,1127,262,-139
20:24:19.712,,1014,484,-22
20:24:19.749,,815,566,244
20:24:19.786,,1046,581,326
20:24:19.823,,1172,540,128
20:24:19.860,,1072,209,5
20:24:19.897,,1004,157,43
20:24:19.934,,922,258,88
20:24:19.971,,844,441,319
20:24:20.008,,789,147,-18
20:24:20.045,,845,626,-93
20:24:20.082,,836,731,-163
20:24:20.119,,792,831,-115
20:24:20.157,,801,626,-45
20:24:20.194,,928,468,-31
20:24:20.231,,947,452,-21
20:24:20.268,,1354,558,-102
20:24:20.305,,1245,710,-95
20:24:20.342,,671,510,24
20:24:20.379,,927,395,-77
20:24:20.416,,1327,569,-191
20:24:20.453,,1064,587,-73
20:24:20.490,,913,376,62
20:24:20.527,,934,323,145
20:24:20.564,,939,475,52
20:24:20.601,,884,580,81
20:24:20.638,,768,485,154
20:24:20.675,,653,380,157
20:24:20.712,,643,371,140
20:24:20.749,,641,385,141
20:24:20.787,,534,382,177
20:24:20.824,,811,342,70
20:24:20.861,,990,474,108
20:24:20.898,,844,487,327
20:24:20.935,,843,393,314
20:24:20.972,,906,394,263
20:24:21.009,,1071,255,129
20:24:21.046,,992,241,133
20:24:21.083,,915,288,289
20:24:21.120,,892,436,373
20:24:21.157,,866,337,341
20:24:21.194,,859,346,319
20:24:21.231,,783,364,331
20:24:21.268,,794,360,273
20:24:21.305,,818,432,264
20:24:21.342,,838,459,232
20:24:21.379,,907,506,186
20:24:21.416,,970,522,133
20:24:21.454,,1558,587,-2
20:24:21.491,,1104,594,68
20:24:21.528,,722,410,165
20:24:21.565,,844,366,87
20:24:21.602,,1183,523,-57
20:24:21.639,,1116,511,23
20:24:21.676,,956,371,106
20:24:21.713,,949,398,170
20:24:21.750,,971,470,125
20:24:21.787,,948,517,118
20:24:21.824,,837,480,172
20:24:21.861,,690,389,184
20:24:21.898,,629,381,143
20:24:21.935,,588,314,101
20:24:21.972,,571,338,114
20:24:22.009,,665,358,81
20:24:22.046,,1037,333,-78
20:24:22.084,,921,425,0
20:24:22.121,,963,550,208
20:24:22.158,,1088,581,265
20:24:22.195,,1070,422,186
20:24:22.232,,1083,104,55
20:24:22.269,,941,133,187
20:24:22.306,,867,270,232
20:24:22.343,,827,402,244
20:24:22.380,,827,379,202
20:24:22.417,,851,470,136
20:24:22.454,,787,563,117
20:24:22.491,,744,628,141
20:24:22.528,,790,597,138
20:24:22.565,,920,524,92
20:24:22.602,,958,476,20
20:24:22.639,,1227,517,-24
20:24:22.676,,1381,609,-44
20:24:22.714,,902,469,-24
20:24:22.751,,768,385,65
20:24:22.788,,798,434,17
20:24:22.825,,1048,443,-63
20:24:22.862,,1076,416,-53
20:24:22.899,,966,372,-8
20:24:22.936,,909,386,-28
20:24:22.973,,900,465,-6
20:24:23.010,,903,573,-66
20:24:23.047,,851,681,-56
20:24:23.084,,765,583,-31
20:24:23.121,,662,509,74
20:24:23.158,,574,439,5
20:24:23.195,,517,452,-31
20:24:23.232,,536,430,-70
20:24:23.269,,832,375,-274
20:24:23.306,,730,619,-203
20:24:23.344,,753,706,-66
20:24:23.381,,860,757,-58
20:24:23.418,,880,521,-128
20:24:23.455,,952,303,18
20:24:23.492,,1033,154,55
20:24:23.529,,957,318,192
20:24:23.566,,862,408,166
20:24:23.603,,859,471,141
20:24:23.640,,854,434,147
20:24:23.677,,835,452,161
20:24:23.714,,801,470,242
20:24:23.751,,751,493,241
20:24:23.788,,783,502,205
20:24:23.825,,883,460,135
20:24:23.862,,1535,508,-4
20:24:23.899,,1450,471,-92
20:24:23.936,,836,460,24
20:24:23.973,,713,461,13
20:24:24.011,,830,572,-203
20:24:24.048,,1030,497,-179
20:24:24.085,,954,383,-85
20:24:24.122,,866,423,-63
20:24:24.159,,881,480,-23
20:24:24.196,,880,524,32
20:24:24.233,,841,538,67
20:24:24.270,,812,577,119
20:24:24.307,,783,543,124
20:24:24.344,,723,481,87
20:24:24.381,,676,443,82
20:24:24.418,,685,424,95
20:24:24.455,,977,387,-26
20:24:24.492,,824,487,16
20:24:24.529,,731,464,152
20:24:24.566,,900,399,134
20:24:24.603,,969,398,50
20:24:24.641,,929,306,113
20:24:24.678,,897,317,202
20:24:24.715,,844,361,230
20:24:24.752,,816,372,235
20:24:24.789,,838,387,237
20:24:24.826,,872,411,241
20:24:24.863,,850,416,250
20:24:24.900,,816,421,278
20:24:24.937,,835,421,278
20:24:24.974,,984,391,225
20:24:25.011,,1353,422,108
20:24:25.048,,1428,561,93
20:24:25.085,,728,430,140
20:24:25.122,,746,326,108
20:24:25.159,,1056,466,-10
20:24:25.196,,1051,504,60
20:24:25.233,,871,354,123
20:24:25.271,,903,390,110
20:24:25.308,,920,468,95
20:24:25.345,,876,495,89
20:24:25.382,,800,570,117
20:24:25.419,,779,682,109
20:24:25.456,,752,622,140
20:24:25.493,,680,499,94
20:24:25.530,,659,507,75
20:24:25.567,,752,486,70
20:24:25.604,,937,463,24
20:24:25.641,,681,420,140
20:24:25.678,,687,357,190
20:24:25.715,,797,289,47
20:24:25.752,,886,352,157
20:24:25.789,,959,387,291
20:24:25.826,,892,346,264
20:24:25.864,,813,393,284
20:24:25.901,,785,410,286
20:24:25.938,,798,389,284
20:24:25.975,,846,405,246
20:24:26.012,,908,422,251
20:24:26.049,,896,434,250
20:24:26.086,,871,453,303
20:24:26.123,,973,415,259
20:24:26.160,,1029,433,166
20:24:26.197,,1343,477,128
20:24:26.234,,1460,614,118
20:24:26.271,,656,465,159
20:24:26.308,,674,343,109
20:24:26.345,,1011,480,-56
20:24:26.382,,1095,546,-37
20:24:26.419,,928,385,-6
20:24:26.456,,956,351,23
20:24:26.494,,1036,417,-8
20:24:26.531,,1067,433,2
20:24:26.568,,1000,438,15
20:24:26.605,,878,438,63
20:24:26.642,,833,398,77
20:24:26.679,,811,341,58
20:24:26.716,,813,319,136
20:24:26.753,,957,261,102
20:24:26.790,,1036,311,59
20:24:26.827,,697,345,319
20:24:26.864,,732,330,390
20:24:26.901,,961,330,287
20:24:26.938,,1042,228,174
20:24:26.975,,979,178,113
20:24:27.012,,913,285,187
20:24:27.049,,868,365,183
20:24:27.086,,869,395,141
20:24:27.123,,864,415,147
20:24:27.160,,817,431,162
20:24:27.198,,785,411,205
20:24:27.235,,800,425,237
20:24:27.272,,835,427,232
20:24:27.309,,899,443,197
20:24:27.346,,1023,441,160
20:24:27.383,,1540,569,104
20:24:27.420,,1112,539,124
20:24:27.457,,757,451,221
20:24:27.494,,768,492,110
20:24:27.531,,1005,464,-15
20:24:27.568,,1081,389,80
20:24:27.605,,967,281,112
20:24:27.642,,954,230,73
20:24:27.679,,989,281,104
20:24:27.716,,993,301,107
20:24:27.753,,960,359,182
20:24:27.790,,930,337,174
20:24:27.827,,887,322,173
20:24:27.865,,841,297,207
20:24:27.902,,752,250,205
20:24:27.939,,725,257,226
20:24:27.976,,1037,232,57
20:24:28.013,,1117,344,23
20:24:28.050,,885,373,144
20:24:28.087,,826,317,228
20:24:28.124,,895,323,152
20:24:28.161,,928,293,88
20:24:28.198,,909,316,134
20:24:28.235,,834,338,187
20:24:28.272,,792,327,172
20:24:28.309,,787,374,197
20:24:28.346,,798,431,235
20:24:28.383,,828,411,255
20:24:28.420,,859,390,262
20:24:28.457,,866,353,266
20:24:28.494,,916,348,264
20:24:28.532,,1037,332,237
20:24:28.569,,1077,366,218
20:24:28.606,,1480,504,269
20:24:28.643,,1142,482,228
20:24:28.680,,688,341,210
20:24:28.717,,907,484,147
20:24:28.754,,1249,693,22
20:24:28.791,,1060,597,75
20:24:28.828,,912,471,147
20:24:28.865,,917,616,167
20:24:28.902,,968,676,92
20:24:28.939,,919,639,101
20:24:28.976,,804,575,149
20:24:29.013,,716,500,133
20:24:29.050,,629,438,104
20:24:29.087,,569,390,119
20:24:29.124,,549,357,151
20:24:29.161,,763,325,88
20:24:29.199,,832,357,47
20:24:29.236,,701,400,349
20:24:29.273,,837,352,414
20:24:29.310,,1041,258,194
20:24:29.347,,1087,135,161
20:24:29.384,,1056,188,151
20:24:29.421,,993,318,198
20:24:29.458,,972,373,204
20:24:29.495,,932,398,164
20:24:29.532,,961,478,184
20:24:29.569,,940,507,174
20:24:29.606,,953,547,225
20:24:29.643,,948,636,277
20:24:29.680,,1004,690,282
20:24:29.717,,958,523,233
20:24:29.754,,1073,454,73
20:24:29.791,,1423,616,-77
20:24:29.828,,825,564,112
20:24:29.866,,652,425,128
20:24:29.903,,987,446,-136
20:24:29.940,,1306,556,-199
20:24:29.977,,1250,491,-54
20:24:30.014,,1148,257,-24
20:24:30.051,,1169,284,-38
20:24:30.088,,1167,629,-6
20:24:30.125,,1172,928,-58
20:24:30.162,,1070,666,13
20:24:30.199,,835,88,88
20:24:30.236,,560,-230,185
20:24:30.273,,487,389,201
20:24:30.310,,467,563,128
20:24:30.347,,700,478,-76
20:24:30.384,,710,589,9
20:24:30.421,,571,577,279
20:24:30.458,,753,242,228
20:24:30.495,,1166,38,154
20:24:30.532,,1351,-35,121
20:24:30.569,,1277,208,76
20:24:30.607,,1212,511,137
20:24:30.644,,1087,891,107
20:24:30.681,,1018,558,178
20:24:30.718,,956,58,306
20:24:30.755,,933,151,393
20:24:30.792,,859,378,447
20:24:30.829,,863,461,421
20:24:30.866,,1027,520,369
20:24:30.903,,1269,611,232
20:24:30.940,,1474,615,108
20:24:30.977,,926,459,209
20:24:31.014,,874,476,122
20:24:31.051,,1146,700,-55
20:24:31.088,,1258,508,-54
20:24:31.125,,1151,346,-13
20:24:31.162,,1095,292,-25
20:24:31.199,,1150,395,-34
20:24:31.236,,1154,368,-47
20:24:31.274,,1042,368,-30
20:24:31.311,,922,319,91
20:24:31.348,,875,282,119
20:24:31.385,,791,244,63
20:24:31.422,,677,212,94
20:24:31.459,,625,245,199
20:24:31.496,,941,296,183
20:24:31.533,,761,333,416
20:24:31.570,,743,247,599
20:24:31.607,,1042,152,408
20:24:31.644,,1217,89,242
20:24:31.681,,1072,89,154
20:24:31.718,,1006,263,182
20:24:31.755,,1004,456,229
20:24:31.792,,958,438,126
20:24:31.829,,917,457,150
20:24:31.866,,901,492,129
20:24:31.904,,838,579,174
20:24:31.941,,832,584,238
20:24:31.978,,958,597,158
20:24:32.015,,974,578,129
20:24:32.052,,1462,677,-7
20:24:32.089,,1129,659,43
20:24:32.126,,653,494,210
20:24:32.163,,881,517,10
20:24:32.200,,1279,620,-151
20:24:32.237,,1114,554,41
20:24:32.274,,1043,251,-18
20:24:32.311,,1128,571,19
20:24:32.348,,1200,416,-44
20:24:32.385,,1133,265,20
20:24:32.422,,958,245,126
20:24:32.459,,759,290,247
20:24:32.496,,733,293,162
20:24:32.533,,593,291,188
20:24:32.571,,579,213,333
20:24:32.608,,667,247,270
20:24:32.645,,834,35,188
20:24:32.682,,983,331,249
20:24:32.719,,938,535,216
20:24:32.756,,1083,379,374
20:24:32.793,,1238,283,378
20:24:32.830,,1077,-21,337
20:24:32.867,,1100,363,259
20:24:32.904,,966,505,138
20:24:32.941,,777,384,339
20:24:32.978,,849,454,281
20:24:33.015,,798,402,283
20:24:33.052,,805,555,233
20:24:33.089,,643,493,441
20:24:33.126,,826,456,367
20:24:33.163,,963,573,331
20:24:33.200,,1458,678,131
20:24:33.237,,1166,637,85
20:24:33.275,,632,453,242
20:24:33.312,,924,399,117
20:24:33.349,,1126,477,106
20:24:33.386,,1047,491,0
20:24:33.423,,1016,556,-46
20:24:33.460,,930,527,165
20:24:33.497,,1026,303,129
20:24:33.534,,1003,648,338
20:24:33.571,,973,652,-55
20:24:33.608,,723,521,193
20:24:33.645,,559,982,179
20:24:33.682,,387,1082,-59
20:24:33.719,,367,1118,79
20:24:33.756,,434,817,-205
20:24:33.793,,372,789,199
20:24:33.830,,320,731,241
20:24:33.867,,440,884,502
20:24:33.905,,589,720,263
20:24:33.942,,561,529,217
20:24:33.979,,358,396,405
20:24:34.016,,272,384,142
20:24:34.053,,248,703,337
20:24:34.090,,253,842,91
20:24:34.127,,234,820,-151
20:24:34.164,,180,964,74
20:24:34.201,,162,861,-238
20:24:34.238,,182,1128,16
20:24:34.275,,131,1187,-352
20:24:34.312,,86,1074,-151
20:24:34.349,,126,1209,-167
20:24:34.386,,139,1169,-373
20:24:34.423,,322,1369,-255
20:24:34.460,,224,1130,-385
20:24:34.497,,76,786,-213
20:24:34.534,,164,986,-216
20:24:34.571,,277,910,-430
20:24:34.609,,394,1349,-124
20:24:34.646,,364,1191,-255
20:24:34.683,,256,1016,-10
20:24:34.720,,146,941,69
20:24:34.757,,28,767,68
20:24:34.794,,-29,618,176
20:24:34.831,,35,696,125
20:24:34.868,,65,493,20
20:24:34.905,,59,362,115
20:24:34.942,,384,496,144
20:24:34.979,,547,70,67
20:24:35.016,,876,724,589
20:24:35.053,,1292,880,297
20:24:35.090,,1407,298,147
20:24:35.127,,1468,261,248
20:24:35.164,,1262,384,249
20:24:35.201,,1047,561,385
20:24:35.238,,1075,265,148
20:24:35.275,,1040,252,85
20:24:35.313,,970,388,242
20:24:35.350,,846,558,377
20:24:35.387,,831,507,438
20:24:35.424,,847,520,360
20:24:35.461,,1027,587,253
20:24:35.498,,1028,551,216
20:24:35.535,,1471,567,108
20:24:35.572,,1116,557,155
20:24:35.609,,763,423,224
20:24:35.646,,940,364,57
20:24:35.683,,1296,553,-40
20:24:35.720,,1205,548,122
20:24:35.757,,1174,332,117
20:24:35.794,,1151,428,156
20:24:35.831,,1024,359,162
20:24:35.868,,805,234,190
20:24:35.905,,652,202,181
20:24:35.943,,547,213,187
20:24:35.980,,508,165,199
20:24:36.017,,497,170,218
20:24:36.054,,605,173,269
20:24:36.091,,1009,188,165
20:24:36.128,,1109,265,285
20:24:36.165,,1085,276,541
20:24:36.202,,1403,198,318
20:24:36.239,,1450,226,110
20:24:36.276,,1132,152,76
20:24:36.313,,974,217,129
20:24:36.350,,919,359,145
20:24:36.387,,847,432,115
20:24:36.424,,803,485,162
20:24:36.461,,757,495,159
20:24:36.498,,734,527,220
20:24:36.535,,763,491,269
20:24:36.572,,923,504,242
20:24:36.610,,1026,510,186
20:24:36.647,,1067,520,152
20:24:36.684,,1566,677,84
20:24:36.721,,932,538,109
20:24:36.758,,727,377,125
20:24:36.795,,1004,379,-58
20:24:36.832,,1305,607,-105
20:24:36.869,,1120,489,-32
20:24:36.906,,1003,346,-18
20:24:36.943,,1090,403,-21
20:24:36.980,,1170,479,-22
20:24:37.017,,1153,612,37
20:24:37.054,,998,574,105
20:24:37.091,,809,432,162
20:24:37.128,,638,305,165
20:24:37.165,,509,252,156
20:24:37.202,,510,230,188
20:24:37.239,,751,243,115
20:24:37.276,,679,310,251
20:24:37.314,,740,303,411
20:24:37.351,,920,237,305
20:24:37.388,,1129,200,211
20:24:37.425,,1245,144,86
20:24:37.462,,1191,277,82
20:24:37.499,,1117,416,195
20:24:37.536,,1081,460,147
20:24:37.573,,1027,489,149
20:24:37.610,,991,466,129
20:24:37.647,,919,485,162
20:24:37.684,,859,555,214
20:24:37.721,,867,630,206
20:24:37.758,,959,648,168
20:24:37.795,,994,629,125
20:24:37.832,,1652,725,-35
20:24:37.869,,904,612,68
20:24:37.906,,636,428,136
20:24:37.943,,1051,460,-97
20:24:37.981,,1344,626,-135
20:24:38.018,,1172,438,-64
20:24:38.055,,1147,347,-73
20:24:38.092,,1220,393,-40
20:24:38.129,,1254,482,7
20:24:38.166,,1151,607,36
20:24:38.203,,953,544,129
20:24:38.240,,773,423,141
20:24:38.277,,635,322,142
20:24:38.314,,523,243,171
20:24:38.351,,473,235,189
20:24:38.388,,642,278,159
20:24:38.425,,620,363,372
20:24:38.462,,793,411,547
20:24:38.499,,1032,306,473
20:24:38.536,,1179,7,313
20:24:38.573,,1229,-133,84
20:24:38.610,,1202,115,9
20:24:38.647,,1057,464,157
20:24:38.685,,1017,497,99
20:24:38.722,,995,479,2
20:24:38.759,,995,492,23
20:24:38.796,,972,485,57
20:24:38.833,,945,572,129
20:24:38.870,,902,622,177
20:24:38.907,,969,644,144
20:24:38.944,,1000,594,162
20:24:38.981,,1526,742,59
20:24:39.018,,1108,701,125
20:24:39.055,,681,477,229
20:24:39.092,,880,423,49
20:24:39.129,,1274,560,-61
20:24:39.166,,1248,448,18
20:24:39.203,,1137,256,-21
20:24:39.240,,1136,302,-41
20:24:39.277,,1181,390,-30
20:24:39.314,,1194,365,-31
20:24:39.351,,1065,343,26
20:24:39.389,,924,332,77
20:24:39.426,,809,270,91
20:24:39.463,,707,213,111
20:24:39.500,,673,214,155
20:24:39.537,,812,181,116
20:24:39.574,,948,256,69
20:24:39.611,,836,352,123
20:24:39.648,,858,550,87
20:24:39.685,,1065,634,54
20:24:39.722,,980,448,-74
20:24:39.759,,881,471,-9
20:24:39.796,,801,561,7
20:24:39.833,,1095,1127,1198
20:24:39.870,,548,1148,443
20:24:39.907,,437,748,-190
20:24:39.944,,534,461,173
20:24:39.981,,571,323,66
20:24:40.018,,670,369,-126
20:24:40.055,,985,744,-171
20:24:40.092,,1115,720,67
20:24:40.130,,1499,734,122
20:24:40.167,,1070,821,-51
20:24:40.204,,735,425,-35
20:24:40.241,,691,429,71
20:24:40.278,,809,628,42
20:24:40.315,,830,688,50
20:24:40.352,,798,586,110
20:24:40.389,,796,675,96
20:24:40.426,,789,790,96
20:24:40.463,,728,792,121
20:24:40.500,,623,774,179
20:24:40.537,,545,660,195
20:24:40.574,,519,586,195
20:24:40.611,,491,543,163
20:24:40.648,,464,469,193
20:24:40.685,,521,429,203
20:24:40.722,,789,416,79
20:24:40.759,,679,472,149
20:24:40.796,,731,403,342
20:24:40.834,,970,355,321
20:24:40.871,,1102,294,156
20:24:40.908,,1102,192,76
20:24:40.945,,1025,259,135
20:24:40.982,,996,362,151
20:24:41.019,,952,386,118
20:24:41.056,,924,408,142
20:24:41.093,,909,442,133
20:24:41.130,,880,499,201
20:24:41.167,,882,512,241
20:24:41.204,,918,533,230
20:24:41.241,,1011,568,186
20:24:41.278,,1082,582,142
20:24:41.315,,1533,674,26
20:24:41.352,,804,573,145
20:24:41.389,,838,487,145
20:24:41.426,,1197,554,-62
20:24:41.463,,1130,608,-62
20:24:41.500,,977,457,15
20:24:41.538,,995,383,-7
20:24:41.575,,1108,425,-56
20:24:41.612,,1179,464,-52
20:24:41.649,,1099,496,-6
20:24:41.686,,951,509,43
20:24:41.723,,841,463,104
20:24:41.760,,726,368,81
20:24:41.797,,624,302,120
20:24:41.834,,620,275,178
20:24:41.871,,785,304,121
20:24:41.908,,600,320,305
20:24:41.945,,662,315,430
20:24:41.982,,845,293,386
20:24:42.019,,1050,221,307
20:24:42.056,,1208,120,184
20:24:42.093,,1219,248,178
20:24:42.130,,1076,351,256
20:24:42.167,,966,365,191
20:24:42.204,,901,394,188
20:24:42.242,,887,411,177
20:24:42.279,,836,427,180
20:24:42.316,,802,464,235
20:24:42.353,,808,465,275
20:24:42.390,,881,467,246
20:24:42.427,,999,482,192
20:24:42.464,,1107,524,150
20:24:42.501,,1481,696,135
20:24:42.538,,782,557,169
20:24:42.575,,774,400,113
20:24:42.612,,1278,503,-64
20:24:42.649,,1197,599,-42
20:24:42.686,,960,392,21
20:24:42.723,,929,357,47
20:24:42.760,,1076,428,-1
20:24:42.797,,1174,402,21
20:24:42.834,,1098,388,30
20:24:42.872,,907,433,125
20:24:42.909,,809,385,123
20:24:42.946,,696,314,134
20:24:42.983,,627,273,163
20:24:43.020,,574,271,195
20:24:43.057,,930,300,98
20:24:43.094,,862,355,244
20:24:43.131,,850,364,417
20:24:43.168,,981,317,406
20:24:43.205,,1113,241,261
20:24:43.242,,1152,92,135
20:24:43.279,,1101,185,124
20:24:43.316,,986,294,130
20:24:43.353,,915,368,115
20:24:43.390,,865,417,113
20:24:43.427,,826,468,146
20:24:43.464,,817,403,175
20:24:43.501,,849,440,210
20:24:43.539,,805,463,240
20:24:43.576,,881,516,195
20:24:43.613,,966,502,126
20:24:43.650,,1262,590,44
20:24:43.687,,1378,692,18
20:24:43.724,,709,574,129
20:24:43.761,,727,589,120
20:24:43.798,,1040,609,-79
20:24:43.835,,1179,542,-81
20:24:43.872,,1078,484,11
20:24:43.909,,1081,503,44
20:24:43.946,,1168,553,58
20:24:43.983,,1177,643,59
20:24:44.020,,1129,659,197
20:24:44.057,,940,562,280
20:24:44.094,,781,443,329
20:24:44.131,,576,310,216
20:24:44.168,,415,266,226
20:24:44.205,,340,292,265
20:24:44.243,,440,299,200
