Sensors' Acquisition [Hz]: Acc@26.0 
hh:mm:ss.ms, Annotation , AccX [mg], AccY, AccZ
01:55:46.658,,845,469,83
01:55:46.695,,843,713,80
01:55:46.718,>Walk,,,
01:55:46.732,,783,784,145
01:55:46.769,,850,728,238
01:55:46.806,,974,630,258
01:55:46.843,,1075,601,216
01:55:46.880,,1152,577,203
01:55:46.917,,1181,623,231
01:55:46.954,,1328,611,240
01:55:46.991,,1247,494,186
01:55:47.028,,1183,434,141
01:55:47.065,,1217,379,73
01:55:47.102,,1146,351,55
01:55:47.139,,1026,295,21
01:55:47.176,,895,250,7
01:55:47.214,,826,263,27
01:55:47.337,,643,194,6
01:55:47.338,,643,194,6
01:55:47.338,,643,194,6
01:55:47.362,,692,186,-3
01:55:47.399,,716,229,28
01:55:47.436,,677,314,102
01:55:47.473,,805,355,107
01:55:47.510,,1031,415,146
01:55:47.547,,1364,468,207
01:55:47.584,,1392,696,375
01:55:47.621,,1263,855,450
01:55:47.658,,1012,774,340
01:55:47.695,,1014,266,298
01:55:47.732,,987,46,313
01:55:47.770,,844,225,253
01:55:47.807,,725,500,207
01:55:47.844,,682,650,271
01:55:47.881,,700,613,320
01:55:47.918,,731,479,330
01:55:47.955,,903,380,294
01:55:48.044,,1209,414,176
01:55:48.044,,1209,414,176
01:55:48.066,,1179,473,195
01:55:48.103,,1031,470,196
01:55:48.140,,888,455,155
01:55:48.177,,914,428,107
01:55:48.214,,968,398,75
01:55:48.251,,992,353,78
01:55:48.288,,859,307,89
01:55:48.325,,748,294,101
01:55:48.363,,709,300,116
01:55:48.400,,713,291,111
01:55:48.437,,716,280,116
01:55:48.474,,760,289,131
01:55:48.511,,851,307,132
01:55:48.548,,884,304,143
01:55:48.585,,970,342,165
01:55:48.622,,1099,398,195
01:55:48.659,,1251,512,227
01:55:48.751,,770,560,382
01:55:48.752,,770,560,382
01:55:48.770,,709,504,392
01:55:48.807,,905,367,248
01:55:48.844,,1002,296,185
01:55:48.881,,822,290,221
01:55:48.919,,633,402,255
01:55:48.956,,557,509,246
01:55:48.993,,637,559,240
01:55:49.030,,737,479,226
01:55:49.067,,808,393,213
01:55:49.104,,898,393,220
01:55:49.141,,944,466,219
01:55:49.178,,1104,545,222
01:55:49.215,,1214,507,205
01:55:49.252,,1201,491,208
01:55:49.289,,1050,464,226
01:55:49.326,,1000,483,197
01:55:49.363,,982,430,128
01:55:49.400,,1033,365,81
01:55:49.488,,827,311,69
01:55:49.488,,827,311,69
01:55:49.512,,721,304,61
01:55:49.549,,696,309,81
01:55:49.586,,687,284,83
01:55:49.623,,688,249,63
01:55:49.660,,757,214,59
01:55:49.697,,851,214,61
01:55:49.734,,965,276,86
01:55:49.771,,1125,357,108
01:55:49.808,,1144,434,169
01:55:49.845,,1269,528,257
01:55:49.882,,1119,578,415
01:55:49.919,,1006,496,404
01:55:49.956,,984,309,277
01:55:49.993,,986,86,157
01:55:50.030,,811,98,107
01:55:50.067,,676,200,112
01:55:50.105,,579,418,113
01:55:50.142,,534,533,128
01:55:50.233,,580,494,151
01:55:50.234,,580,494,151
01:55:50.253,,810,516,185
01:55:50.290,,1058,592,264
01:55:50.327,,1157,681,319
01:55:50.364,,1212,686,301
01:55:50.401,,1258,545,241
01:55:50.438,,1207,313,254
01:55:50.475,,1093,293,224
01:55:50.512,,1051,359,166
01:55:50.549,,1131,425,164
01:55:50.586,,1009,459,184
01:55:50.623,,881,396,124
01:55:50.661,,744,318,71
01:55:50.698,,694,314,63
01:55:50.735,,728,333,90
01:55:50.772,,780,297,114
01:55:50.809,,850,231,112
01:55:50.846,,916,180,144
01:55:50.936,,1046,229,175
01:55:50.936,,1046,229,175
01:55:50.957,,1004,287,168
01:55:50.994,,989,381,258
01:55:51.031,,955,396,311
01:55:51.068,,1085,403,298
01:55:51.105,,1205,375,193
01:55:51.142,,977,319,117
01:55:51.179,,771,320,172
01:55:51.216,,756,415,170
01:55:51.254,,758,519,92
01:55:51.291,,760,572,104
01:55:51.328,,773,554,166
01:55:51.365,,963,575,215
01:55:51.402,,1102,618,216
01:55:51.439,,1179,720,237
01:55:51.476,,1202,749,259
01:55:51.513,,1195,648,256
01:55:51.550,,1065,532,283
01:55:51.587,,1167,467,257
01:55:51.675,,1360,432,143
01:55:51.675,,1360,432,143
01:55:51.698,,1179,341,142
01:55:51.735,,994,285,86
01:55:51.772,,875,290,47
01:55:51.810,,800,305,43
01:55:51.847,,723,255,35
01:55:51.884,,687,210,37
01:55:51.921,,700,203,43
01:55:51.958,,751,237,75
01:55:51.995,,819,260,118
01:55:52.032,,965,274,116
01:55:52.069,,1005,286,75
01:55:52.106,,1110,400,130
01:55:52.143,,1234,590,285
01:55:52.180,,1342,669,318
01:55:52.217,,1289,577,162
01:55:52.254,,1014,397,184
01:55:52.291,,821,144,231
01:55:52.384,,691,590,119
01:55:52.384,,691,590,119
01:55:52.403,,691,590,119
01:55:52.440,,604,639,186
01:55:52.477,,728,639,253
01:55:52.514,,1007,638,265
01:55:52.551,,1119,663,241
01:55:52.588,,1209,643,258
01:55:52.625,,1242,551,254
01:55:52.662,,1383,495,218
01:55:52.699,,1210,437,197
01:55:52.736,,1159,449,190
01:55:52.773,,1123,419,107
01:55:52.810,,1094,398,59
01:55:52.847,,1006,357,47
01:55:52.884,,858,275,12
01:55:52.921,,727,241,18
01:55:52.959,,698,273,44
01:55:52.996,,655,259,43
01:55:53.033,,694,242,46
01:55:53.070,,788,228,61
01:55:53.107,,908,228,76
01:55:53.144,,946,267,149
01:55:53.181,,982,303,194
01:55:53.218,,927,336,210
01:55:53.255,,1057,438,289
01:55:53.292,,1129,529,436
01:55:53.329,,1146,504,406
01:55:53.366,,1106,462,305
01:55:53.403,,1006,359,305
01:55:53.440,,859,237,283
01:55:53.477,,785,310,247
01:55:53.515,,719,437,198
01:55:53.552,,665,559,206
01:55:53.589,,621,589,279
01:55:53.626,,709,545,325
01:55:53.663,,931,541,342
01:55:53.700,,1088,521,308
01:55:53.737,,1116,528,328
01:55:53.774,,1257,456,316
01:55:53.811,,1199,459,300
01:55:53.848,,1105,466,320
01:55:53.885,,1068,441,284
01:55:53.922,,1080,400,175
01:55:53.959,,1157,352,104
01:55:53.996,,1068,305,119
01:55:54.033,,836,288,120
01:55:54.070,,641,316,119
01:55:54.108,,537,373,142
01:55:54.145,,566,420,163
01:55:54.182,,596,258,216
01:55:54.219,,703,118,232
01:55:54.256,,918,113,257
01:55:54.293,,977,129,289
01:55:54.330,,925,228,298
01:55:54.367,,1033,300,266
01:55:54.404,,1029,359,180
01:55:54.441,,1202,494,192
01:55:54.478,,1076,584,363
01:55:54.515,,964,581,332
01:55:54.552,,982,578,267
01:55:54.589,,970,414,166
01:55:54.626,,843,295,159
01:55:54.664,,747,328,200
01:55:54.701,,681,432,186
01:55:54.738,,647,530,171
01:55:54.775,,608,568,233
01:55:54.812,,708,573,310
01:55:54.849,,989,605,338
01:55:54.886,,1249,578,285
01:55:54.923,,1435,512,274
01:55:54.960,,1278,402,300
01:55:54.997,,1194,436,305
01:55:55.034,,1074,465,275
01:55:55.071,,1060,479,201
01:55:55.108,,994,417,132
01:55:55.145,,1008,361,88
01:55:55.182,,945,320,78
01:55:55.219,,814,300,48
01:55:55.257,,694,274,46
01:55:55.294,,688,318,71
01:55:55.331,,737,318,108
01:55:55.368,,773,304,97
01:55:55.405,,884,254,107
01:55:55.442,,936,216,142
01:55:55.479,,1037,211,140
01:55:55.516,,984,232,188
01:55:55.553,,1014,315,165
01:55:55.590,,887,442,261
01:55:55.627,,908,538,360
01:55:55.664,,1040,523,382
01:55:55.701,,1075,424,328
01:55:55.738,,924,276,264
01:55:55.775,,810,246,267
01:55:55.812,,787,356,256
01:55:55.849,,783,541,253
01:55:55.887,,698,613,292
01:55:55.924,,759,623,319
01:55:55.961,,958,594,296
01:55:55.998,,1077,598,249
01:55:56.035,,1295,636,271
01:55:56.072,,1284,639,274
01:55:56.109,,1234,598,246
01:55:56.146,,1105,551,260
01:55:56.183,,1135,507,200
01:55:56.220,,1181,430,126
01:55:56.257,,1208,345,95
01:55:56.294,,1179,290,100
01:55:56.331,,1024,243,67
01:55:56.368,,896,230,41
01:55:56.405,,787,208,62
01:55:56.442,,675,161,52
01:55:56.480,,635,196,65
01:55:56.517,,701,230,61
01:55:56.554,,729,216,81
01:55:56.591,,774,202,78
01:55:56.628,,902,217,65
01:55:56.665,,1004,319,83
01:55:56.702,,1177,486,179
01:55:56.739,,1346,692,384
01:55:56.776,,1390,694,411
01:55:56.813,,1225,556,282
01:55:56.850,,1011,261,332
01:55:56.887,,856,21,350
01:55:56.924,,786,179,281
01:55:56.961,,716,472,202
01:55:56.998,,646,672,246
01:55:57.036,,623,758,299
01:55:57.073,,738,685,307
01:55:57.110,,994,667,304
01:55:57.147,,1091,611,264
01:55:57.184,,1298,643,235
01:55:57.221,,1276,364,222
01:55:57.258,,1170,376,236
01:55:57.295,,1222,391,154
01:55:57.332,,1157,417,75
01:55:57.369,,1107,390,56
01:55:57.406,,902,342,59
01:55:57.443,,697,290,24
01:55:57.480,,571,279,46
01:55:57.517,,530,255,101
01:55:57.555,,563,242,116
01:55:57.592,,665,241,69
01:55:57.629,,834,258,92
01:55:57.666,,961,262,151
01:55:57.703,,1112,277,126
01:55:57.740,,1227,304,148
01:55:57.777,,1397,482,233
01:55:57.814,,1212,598,378
01:55:57.851,,1013,596,416
01:55:57.888,,970,503,321
01:55:57.925,,1042,312,206
01:55:57.962,,874,159,193
01:55:57.999,,749,193,191
01:55:58.036,,665,367,129
01:55:58.073,,589,536,74
01:55:58.111,,603,608,79
01:55:58.148,,747,604,116
01:55:58.185,,977,572,140
01:55:58.222,,1029,568,165
01:55:58.259,,1187,629,231
01:55:58.296,,1234,639,237
01:55:58.333,,1344,595,223
01:55:58.370,,1174,434,223
01:55:58.407,,1169,370,190
01:55:58.444,,1194,384,157
01:55:58.481,,1151,329,147
01:55:58.518,,946,338,136
01:55:58.555,,791,295,113
01:55:58.592,,718,306,68
01:55:58.629,,699,293,80
01:55:58.667,,669,245,90
01:55:58.704,,692,231,95
01:55:58.741,,850,257,102
01:55:58.778,,898,242,112
01:55:58.815,,960,257,116
01:55:58.852,,1059,277,127
01:55:58.889,,1160,342,38
01:55:58.926,,1142,511,49
01:55:58.963,,946,714,175
01:55:59.000,,842,802,192
01:55:59.037,,872,696,130
01:55:59.074,,838,490,124
01:55:59.111,,759,313,204
01:55:59.148,,671,253,202
01:55:59.185,,635,375,191
01:55:59.222,,660,534,246
01:55:59.260,,806,618,248
01:55:59.297,,1089,666,262
01:55:59.334,,1163,675,306
01:55:59.371,,1277,760,380
01:55:59.408,,1286,737,334
01:55:59.445,,1263,592,165
01:55:59.482,,983,403,65
01:55:59.519,,974,323,-25
01:55:59.556,,994,381,-39
01:55:59.593,,1036,516,-10
01:55:59.630,,1000,484,-40
01:55:59.667,,842,343,-111
01:55:59.704,,703,288,-92
01:55:59.741,,646,294,-33
01:55:59.778,,654,289,0
01:55:59.816,,731,256,-10
01:55:59.853,,813,222,-9
01:55:59.890,,793,234,52
01:55:59.927,,869,304,81
01:55:59.964,,990,358,43
01:56:00.001,,1300,544,39
01:56:00.038,,1265,861,202
01:56:00.075,,1075,1062,378
01:56:00.112,,906,979,330
01:56:00.149,,974,578,231
01:56:00.186,,1045,85,257
01:56:00.223,,858,-31,268
01:56:00.260,,684,236,223
01:56:00.297,,572,560,194
01:56:00.334,,565,763,249
01:56:00.371,,640,705,277
01:56:00.409,,808,536,255
01:56:00.446,,1023,365,193
01:56:00.483,,1072,318,152
01:56:00.520,,1195,453,180
01:56:00.557,,1134,568,201
01:56:00.594,,1090,615,161
01:56:00.631,,1022,530,190
01:56:00.668,,935,434,158
01:56:00.705,,925,386,112
01:56:00.742,,994,365,103
01:56:00.779,,930,328,101
01:56:00.816,,787,305,104
01:56:00.853,,704,313,140
01:56:00.890,,644,322,141
01:56:00.927,,627,306,126
01:56:00.965,,688,260,103
01:56:01.002,,824,252,123
01:56:01.039,,959,289,170
01:56:01.076,,1031,320,202
01:56:01.113,,1157,326,238
01:56:01.150,,1041,338,238
01:56:01.187,,981,407,291
01:56:01.224,,922,489,403
01:56:01.261,,959,506,380
01:56:01.298,,1053,404,275
01:56:01.335,,905,213,232
01:56:01.372,,681,193,234
01:56:01.409,,624,266,189
01:56:01.446,,640,358,105
01:56:01.483,,726,441,73
01:56:01.520,,806,476,106
01:56:01.558,,813,475,133
01:56:01.595,,861,547,198
01:56:01.632,,1018,680,266
01:56:01.669,,1322,777,252
01:56:01.706,,1186,747,243
01:56:01.743,,1118,522,305
01:56:01.780,,1062,359,360
01:56:01.817,,1002,381,286
01:56:01.854,,968,414,202
01:56:01.891,,1022,425,167
01:56:01.928,,937,400,128
01:56:01.965,,816,312,90
01:56:02.002,,720,302,78
01:56:02.039,,693,340,44
01:56:02.076,,780,360,0
01:56:02.114,,988,339,-1
01:56:02.151,,1112,258,-11
01:56:02.188,,960,200,8
01:56:02.225,,965,268,51
01:56:02.262,,996,356,85
01:56:02.299,,920,456,153
01:56:02.336,,927,435,331
01:56:02.373,,736,276,387
01:56:02.410,,855,296,432
01:56:02.447,,972,259,354
01:56:02.484,,874,280,269
01:56:02.521,,755,337,286
01:56:02.558,,702,378,291
01:56:02.595,,726,440,278
01:56:02.632,,782,472,275
01:56:02.670,,837,473,281
01:56:02.707,,1000,529,285
01:56:02.744,,1105,564,231
01:56:02.781,,1209,620,240
01:56:02.818,,1196,552,244
01:56:02.855,,1144,590,244
01:56:02.892,,1041,552,238
01:56:02.929,,994,507,210
01:56:02.966,,1021,449,159
01:56:03.003,,1193,373,81
01:56:03.040,,1111,298,46
01:56:03.077,,939,244,63
01:56:03.114,,785,271,88
01:56:03.151,,728,357,95
01:56:03.188,,745,388,94
01:56:03.225,,800,313,61
01:56:03.263,,854,223,52
01:56:03.300,,842,152,79
01:56:03.337,,818,166,121
01:56:03.374,,876,252,129
01:56:03.411,,886,358,142
01:56:03.448,,1032,484,218
01:56:03.485,,1100,622,406
01:56:03.522,,1181,595,442
01:56:03.559,,1179,366,231
01:56:03.596,,1014,185,135
01:56:03.633,,815,145,220
01:56:03.670,,758,268,247
01:56:03.707,,738,479,205
01:56:03.744,,685,631,186
01:56:03.781,,661,645,245
01:56:03.818,,788,581,293
01:56:03.856,,989,546,298
01:56:03.893,,1077,560,292
01:56:03.930,,1204,582,306
01:56:03.967,,1178,527,267
01:56:04.004,,1289,453,231
01:56:04.041,,1154,337,194
01:56:04.078,,1133,395,193
01:56:04.115,,1063,481,160
01:56:04.152,,1103,442,113
01:56:04.189,,998,337,65
01:56:04.226,,828,267,28
01:56:04.263,,706,268,23
01:56:04.300,,674,308,45
01:56:04.337,,672,284,45
01:56:04.374,,672,264,57
01:56:04.412,,710,264,87
01:56:04.449,,804,276,122
01:56:04.486,,967,272,144
01:56:04.523,,1122,218,85
01:56:04.560,,1179,317,111
01:56:04.597,,1151,495,265
01:56:04.634,,1125,659,405
01:56:04.671,,1092,635,386
01:56:04.708,,1011,439,208
01:56:04.745,,944,197,164
01:56:04.782,,833,157,197
01:56:04.819,,785,286,188
01:56:04.856,,737,468,175
01:56:04.893,,733,605,231
01:56:04.930,,708,568,321
01:56:04.968,,687,484,347
01:56:05.005,,845,424,349
01:56:05.042,,1042,334,249
01:56:05.079,,1090,325,192
01:56:05.116,,1233,442,275
01:56:05.153,,1193,525,322
01:56:05.190,,1087,510,270
01:56:05.227,,1098,458,236
01:56:05.264,,1163,419,148
01:56:05.301,,1125,345,45
01:56:05.338,,1045,331,45
01:56:05.375,,834,340,95
01:56:05.412,,640,347,91
01:56:05.449,,565,337,79
01:56:05.486,,627,307,71
01:56:05.523,,706,287,96
01:56:05.561,,732,270,121
01:56:05.598,,782,267,146
01:56:05.635,,846,290,194
01:56:05.672,,900,340,253
01:56:05.709,,1092,355,229
01:56:05.746,,1223,381,244
01:56:05.783,,1209,452,269
01:56:05.820,,928,502,334
01:56:05.857,,887,537,320
01:56:05.894,,977,488,173
01:56:05.931,,1027,364,68
01:56:05.968,,906,264,77
01:56:06.005,,728,329,106
01:56:06.042,,641,437,87
01:56:06.079,,589,492,66
01:56:06.116,,577,448,94
01:56:06.154,,580,288,124
01:56:06.191,,820,472,148
01:56:06.228,,990,639,150
01:56:06.265,,1056,701,146
01:56:06.302,,1247,748,218
01:56:06.339,,1162,786,288
01:56:06.376,,1144,740,310
01:56:06.413,,1062,602,239
01:56:06.450,,1042,452,115
01:56:06.487,,1113,362,20
01:56:06.524,,1004,309,-7
01:56:06.561,,870,271,-14
01:56:06.598,,788,279,1
01:56:06.635,,772,352,-11
01:56:06.672,,809,360,-48
01:56:06.709,,825,299,-44
01:56:06.747,,802,217,-43
01:56:06.784,,786,177,-45
01:56:06.821,,812,252,4
01:56:06.858,,859,364,71
01:56:06.895,,936,422,112
01:56:06.932,,1065,392,107
01:56:06.969,,1133,382,144
01:56:07.006,,1171,429,242
01:56:07.043,,1009,572,418
01:56:07.080,,879,636,426
01:56:07.117,,850,577,303
01:56:07.154,,960,324,200
01:56:07.191,,891,140,172
01:56:07.228,,751,214,199
01:56:07.265,,689,375,206
01:56:07.302,,736,568,191
01:56:07.340,,782,591,191
01:56:07.377,,828,459,166
01:56:07.414,,929,384,155
01:56:07.451,,1053,367,144
01:56:07.488,,1180,458,143
01:56:07.525,,1160,552,197
01:56:07.562,,1239,611,248
01:56:07.599,,1014,525,210
01:56:07.636,,948,424,142
01:56:07.673,,1055,344,86
01:56:07.710,,1053,289,96
01:56:07.747,,917,290,119
01:56:07.784,,771,301,121
01:56:07.821,,693,315,106
01:56:07.858,,715,306,91
01:56:07.895,,784,273,106
01:56:07.933,,986,226,113
01:56:07.970,,1031,206,94
01:56:08.007,,1152,258,97
01:56:08.044,,940,321,182
01:56:08.081,,933,424,223
01:56:08.118,,841,432,275
01:56:08.155,,849,416,300
01:56:08.192,,952,373,290
01:56:08.229,,975,317,261
01:56:08.266,,895,333,218
01:56:08.303,,809,396,227
01:56:08.340,,773,468,211
01:56:08.377,,774,536,213
01:56:08.414,,768,523,232
01:56:08.451,,876,518,251
01:56:08.488,,988,563,260
01:56:08.525,,903,588,270
01:56:08.563,,979,640,303
01:56:08.600,,1126,599,274
01:56:08.637,,1212,591,247
01:56:08.674,,1163,512,283
01:56:08.711,,1157,517,250
01:56:08.748,,1200,495,164
01:56:08.785,,1341,414,108
01:56:08.822,,1306,330,95
01:56:08.859,,1058,225,67
01:56:08.896,,851,231,61
01:56:08.933,,765,285,67
01:56:08.970,,748,306,63
01:56:09.007,,680,257,51
01:56:09.044,,675,220,66
01:56:09.081,,748,213,92
01:56:09.118,,813,220,120
01:56:09.156,,979,226,101
01:56:09.193,,1047,262,63
01:56:09.230,,1017,393,110
01:56:09.267,,1108,590,245
01:56:09.304,,1257,774,388
01:56:09.341,,1240,743,290
01:56:09.378,,1028,549,224
01:56:09.415,,842,112,286
01:56:09.452,,841,106,291
01:56:09.489,,826,332,242
01:56:09.526,,765,582,211
01:56:09.563,,744,706,279
01:56:09.600,,769,662,342
01:56:09.637,,864,581,377
01:56:09.674,,956,524,369
01:56:09.712,,950,442,300
01:56:09.749,,1141,404,242
01:56:09.786,,1204,372,223
01:56:09.823,,1266,438,239
01:56:09.860,,1275,501,275
01:56:09.897,,1096,473,191
01:56:09.934,,1045,410,100
01:56:09.971,,1079,326,85
01:56:10.008,,945,281,98
01:56:10.045,,752,245,92
01:56:10.082,,635,243,113
01:56:10.119,,604,249,124
01:56:10.156,,586,233,138
01:56:10.193,,606,222,173
01:56:10.230,,695,222,183
01:56:10.268,,826,200,160
01:56:10.305,,1027,214,143
01:56:10.342,,1323,328,142
01:56:10.379,,1429,490,148
01:56:10.416,,1517,716,294
01:56:10.453,,1193,764,361
01:56:10.490,,803,655,312
01:56:10.527,,923,364,219
01:56:10.564,,950,150,137
01:56:10.601,,820,207,174
01:56:10.638,,673,327,204
01:56:10.675,,584,502,186
01:56:10.712,,589,550,191
01:56:10.749,,556,439,208
01:56:10.786,,584,376,251
01:56:10.824,,768,425,271
01:56:10.861,,963,544,288
01:56:10.898,,1355,709,354
01:56:10.935,,1409,671,303
01:56:10.972,,1317,534,269
01:56:11.009,,1190,270,264
01:56:11.046,,1160,188,171
01:56:11.083,,1150,253,124
01:56:11.120,,1095,315,142
01:56:11.157,,914,374,134
01:56:11.194,,815,383,107
01:56:11.231,,723,310,50
01:56:11.268,,627,255,12
01:56:11.305,,635,243,34
01:56:11.342,,651,225,34
01:56:11.380,,677,224,23
01:56:11.417,,796,235,22
01:56:11.454,,924,281,17
01:56:11.491,,804,-307,-386
01:56:11.528,,860,-838,391
01:56:11.565,,936,758,225
01:56:11.602,,1189,106,501
01:56:11.639,,1164,483,319
01:56:11.676,,1243,264,216
01:56:11.713,,1262,-146,357
01:56:11.750,,849,583,346
01:56:11.787,,780,427,422
01:56:11.824,,678,330,312
01:56:11.861,,681,289,210
01:56:11.898,,732,252,220
01:56:11.936,,840,236,237
01:56:11.973,,1021,238,177
01:56:12.010,,1052,265,123
01:56:12.047,,1111,300,128
01:56:12.084,,1058,307,134
01:56:12.121,,1185,364,120
01:56:12.158,,1090,340,129
01:56:12.195,,1015,222,91
01:56:12.232,,948,5,8
01:56:12.269,,1013,-43,-6
01:56:12.306,,1083,100,10
01:56:12.343,,950,187,41
01:56:12.380,,875,136,55
01:56:12.417,,842,70,59
01:56:12.454,,865,31,73
01:56:12.492,,845,80,133
01:56:12.529,,881,158,185
01:56:12.566,,926,144,137
01:56:12.603,,1034,125,109
01:56:12.640,,1309,142,51
01:56:12.677,,1382,262,-42
01:56:12.714,,980,464,113
01:56:12.751,,854,523,296
01:56:12.788,,875,437,237
01:56:12.825,,907,288,135
01:56:12.862,,912,65,148
01:56:12.899,,844,-13,224
01:56:12.936,,819,107,252
01:56:12.973,,800,222,265
01:56:13.010,,784,272,320
01:56:13.048,,810,201,350
01:56:13.085,,908,153,407
01:56:13.122,,927,79,455
01:56:13.159,,901,133,424
01:56:13.196,,840,208,380
01:56:13.233,,788,239,348
01:56:13.270,,850,229,326
01:56:13.307,,1012,240,346
01:56:13.344,,967,295,385
01:56:13.381,,963,345,335
01:56:13.418,,1094,320,247
01:56:13.455,,1201,266,111
01:56:13.492,,1091,181,81
01:56:13.529,,931,106,92
01:56:13.566,,840,161,99
01:56:13.604,,896,332,80
01:56:13.641,,997,448,71
01:56:13.678,,995,395,74
01:56:13.715,,1025,229,63
01:56:13.752,,1168,92,44
01:56:13.789,,928,99,130
01:56:13.826,,780,269,290
01:56:13.863,,761,343,383
01:56:13.900,,856,337,326
01:56:13.937,,953,236,286
01:56:13.974,,959,26,346
01:56:14.011,,930,-24,433
01:56:14.048,,874,111,417
01:56:14.085,,814,207,387
01:56:14.122,,782,225,377
01:56:14.160,,781,239,370
01:56:14.197,,777,222,375
01:56:14.234,,757,249,388
01:56:14.271,,844,295,376
01:56:14.308,,1036,328,351
01:56:14.345,,1151,338,304
01:56:14.382,,1258,349,328
01:56:14.419,,1294,347,350
01:56:14.456,,1251,312,306
01:56:14.493,,1108,276,271
01:56:14.530,,1079,249,220
01:56:14.567,,1045,220,140
01:56:14.604,,1019,224,96
01:56:14.641,,1075,234,113
01:56:14.678,,1001,238,120
01:56:14.715,,906,195,77
01:56:14.753,,856,171,54
01:56:14.790,,879,177,84
01:56:14.827,,818,165,90
01:56:14.864,,746,152,104
01:56:14.901,,701,149,142
01:56:14.938,,747,154,186
01:56:14.975,,868,149,185
01:56:15.012,,1007,138,171
01:56:15.049,,1210,174,165
01:56:15.086,,1221,264,213
01:56:15.123,,1147,347,273
01:56:15.160,,1098,447,315
01:56:15.197,,1165,527,330
01:56:15.234,,1153,482,300
01:56:15.271,,1091,277,339
01:56:15.308,,1008,210,420
01:56:15.346,,946,276,401
01:56:15.383,,891,349,369
01:56:15.420,,890,358,350
01:56:15.457,,919,289,343
01:56:15.494,,935,235,311
01:56:15.531,,940,215,264
01:56:15.568,,947,221,199
01:56:15.605,,935,216,143
01:56:15.642,,946,202,91
01:56:15.679,,1015,239,68
01:56:15.716,,1082,306,77
01:56:15.753,,938,377,100
01:56:15.790,,883,409,45
01:56:15.827,,1058,427,-5
01:56:15.864,,1135,378,-46
01:56:15.902,,1003,286,-42
01:56:15.939,,811,200,0
01:56:15.976,,743,294,44
01:56:16.013,,769,415,20
01:56:16.050,,802,464,-22
01:56:16.087,,837,437,-10
01:56:16.124,,899,395,14
01:56:16.161,,963,362,12
01:56:16.198,,1059,359,24
01:56:16.235,,1146,363,48
01:56:16.272,,1125,409,94
01:56:16.309,,991,470,198
01:56:16.346,,865,449,218
01:56:16.383,,967,386,186
01:56:16.420,,1118,265,101
01:56:16.457,,1052,139,80
01:56:16.495,,859,133,109
01:56:16.532,,740,213,134
01:56:16.569,,657,301,91
01:56:16.606,,624,341,66
01:56:16.643,,745,310,112
01:56:16.680,,788,257,184
01:56:16.717,,821,315,276
01:56:16.754,,824,172,337
01:56:16.791,,951,14,370
01:56:16.828,,1068,50,455
01:56:16.865,,1173,26,466
01:56:16.902,,1315,298,403
01:56:16.939,,1264,405,386
01:56:16.976,,1299,264,297
01:56:17.013,,1213,169,118
01:56:17.050,,1054,120,33
01:56:17.087,,893,125,72
01:56:17.124,,744,202,148
01:56:17.162,,673,300,123
01:56:17.199,,664,293,106
01:56:17.236,,720,251,190
01:56:17.273,,779,195,249
01:56:17.310,,776,101,284
01:56:17.347,,753,30,289
01:56:17.384,,800,37,243
01:56:17.421,,920,121,204
01:56:17.458,,1048,195,180
01:56:17.495,,1338,259,104
01:56:17.532,,1379,337,101
01:56:17.569,,1417,451,142
01:56:17.606,,1142,508,234
01:56:17.643,,936,398,143
01:56:17.680,,973,202,58
01:56:17.717,,919,116,55
01:56:17.754,,769,185,67
01:56:17.792,,651,260,88
01:56:17.829,,558,336,113
01:56:17.866,,505,387,267
01:56:17.903,,388,403,496
01:56:17.940,,615,369,632
01:56:17.977,,1135,305,618
01:56:18.014,,1650,477,429
01:56:18.051,,1588,821,380
01:56:18.088,,1308,406,238
01:56:18.125,,1096,23,297
01:56:18.162,,1092,82,260
01:56:18.199,,1256,359,181
01:56:18.236,,1368,471,78
01:56:18.273,,1215,360,97
01:56:18.310,,1002,197,119
01:56:18.347,,832,180,114
01:56:18.385,,765,212,116
01:56:18.422,,729,231,122
01:56:18.459,,710,153,171
01:56:18.496,,650,62,219
01:56:18.533,,670,2,236
01:56:18.570,,742,-14,236
01:56:18.607,,942,-3,249
01:56:18.644,,1402,180,197
01:56:18.681,,1679,342,352
01:56:18.718,,1774,579,419
01:56:18.755,,1420,769,272
01:56:18.792,,908,248,153
01:56:18.829,,822,-121,216
01:56:18.866,,765,22,126
01:56:18.903,,744,373,106
01:56:18.940,,710,571,88
01:56:18.977,,597,632,191
01:56:19.014,,663,509,322
01:56:19.052,,923,465,376
01:56:19.089,,1188,509,371
01:56:19.126,,1368,524,359
01:56:19.163,,1379,387,350
01:56:19.200,,1453,242,294
01:56:19.237,,1385,133,246
01:56:19.274,,1291,113,129
01:56:19.311,,1295,205,124
01:56:19.348,,1302,233,109
01:56:19.385,,1034,221,86
01:56:19.422,,836,229,38
01:56:19.459,,689,234,29
01:56:19.496,,645,220,54
01:56:19.533,,642,196,133
01:56:19.570,,724,326,296
01:56:19.607,,623,563,242
01:56:19.645,,477,1049,150
01:56:19.682,,489,1612,23
01:56:19.719,,219,1412,-56
01:56:19.756,,126,1088,-202
01:56:19.793,,18,1043,-85
01:56:19.830,,35,907,-129
01:56:19.867,,89,787,-153
01:56:19.904,,18,661,-156
01:56:19.941,,-97,618,-201
01:56:19.978,,-220,676,-211
01:56:20.015,,-314,683,-276
01:56:20.052,,-316,646,-325
01:56:20.089,,-343,670,-292
01:56:20.126,,-373,717,-312
01:56:20.163,,-421,857,-373
01:56:20.200,,-461,856,-395
01:56:20.237,,-407,632,-323
01:56:20.274,,-638,1316,-262
01:56:20.311,,-377,1075,-121
01:56:20.349,,-471,932,-235
01:56:20.386,,-409,910,-285
01:56:20.423,,-452,914,-309
01:56:20.460,,-388,848,-253
01:56:20.497,,-342,792,-141
01:56:20.534,,-313,690,-70
01:56:20.571,,-271,728,-59
01:56:20.608,,-383,792,-57
01:56:20.645,,-428,861,-121
01:56:20.682,,-362,837,-123
01:56:20.719,,-386,918,-75
01:56:20.756,,-388,923,-113
01:56:20.793,,-455,915,-170
01:56:20.830,,-489,874,-316
01:56:20.867,,-486,982,-417
01:56:20.904,,-455,870,-527
01:56:20.941,,-268,708,-704
01:56:20.979,,-214,800,-681
01:56:21.016,,-210,686,-646
01:56:21.053,,-225,584,-552
01:56:21.090,,-341,446,-549
01:56:21.127,,-361,443,-546
01:56:21.164,,-335,532,-581
01:56:21.201,,-307,629,-647
01:56:21.238,,-334,614,-624
01:56:21.275,,-400,753,-553
01:56:21.312,,-373,776,-514
01:56:21.349,,-426,855,-466
01:56:21.386,,-468,923,-473
01:56:21.423,,-365,871,-502
01:56:21.460,,-239,1116,-469
01:56:21.497,,-154,1029,-553
01:56:21.534,,-171,909,-595
01:56:21.571,,-134,721,-623
01:56:21.608,,-105,683,-644
01:56:21.646,,-34,627,-578
01:56:21.683,,19,579,-454
01:56:21.720,,1,624,-385
01:56:21.757,,-19,754,-356
01:56:21.794,,-26,766,-379
01:56:21.831,,-21,807,-425
01:56:21.868,,-19,788,-489
01:56:21.905,,-8,784,-489
01:56:21.942,,-6,932,-597
01:56:21.979,,50,837,-568
01:56:22.016,,109,921,-652
01:56:22.053,,181,741,-747
01:56:22.090,,247,681,-901
01:56:22.127,,181,549,-848
01:56:22.164,,213,361,-797
01:56:22.201,,308,390,-729
01:56:22.238,,311,526,-774
01:56:22.276,,208,393,-693
01:56:22.313,,140,386,-768
01:56:22.350,,157,350,-961
01:56:22.387,,112,450,-1006
01:56:22.424,,111,359,-976
01:56:22.461,,161,360,-1045
01:56:22.498,,245,352,-1073
01:56:22.535,,304,397,-1111
01:56:22.572,,354,344,-1146
01:56:22.609,,410,301,-1170
01:56:22.646,,369,265,-1099
01:56:22.683,,360,241,-1090
01:56:22.720,,177,205,-917
01:56:22.757,,128,173,-855
01:56:22.794,,141,172,-855
01:56:22.831,,150,169,-728
01:56:22.868,,123,312,-688
01:56:22.906,,90,372,-769
01:56:22.943,,-13,544,-857
01:56:22.980,,-109,406,-897
01:56:23.017,,-76,333,-1029
01:56:23.054,,-52,186,-1019
01:56:23.091,,-84,184,-999
01:56:23.128,,-137,313,-1115
01:56:23.165,,-139,299,-1203
01:56:23.202,,-40,166,-1204
01:56:23.239,,-1,84,-1042
01:56:23.276,,25,86,-805
01:56:23.313,,41,193,-540
01:56:23.350,,53,301,-395
01:56:23.387,,26,383,-451
01:56:23.424,,67,204,-498
01:56:23.461,,-26,505,-379
01:56:23.498,,92,734,-523
01:56:23.535,,-60,746,-386
01:56:23.572,,-69,757,-339
01:56:23.610,,48,880,-9
01:56:23.647,,344,428,166
01:56:23.684,,1015,171,290
01:56:23.721,,1784,37,366
01:56:23.758,,1997,582,421
01:56:23.795,,1764,997,488
01:56:23.832,,1088,532,225
01:56:23.869,,1017,-43,124
01:56:23.906,,910,12,31
01:56:23.943,,773,310,126
01:56:23.980,,709,541,223
01:56:24.017,,662,504,247
01:56:24.054,,656,364,242
01:56:24.091,,659,257,210
01:56:24.128,,780,225,170
01:56:24.165,,992,210,122
01:56:24.202,,1116,185,75
01:56:24.239,,1209,255,113
01:56:24.276,,1134,374,212
01:56:24.314,,1077,482,270
01:56:24.351,,926,521,295
01:56:24.388,,891,457,245
01:56:24.425,,956,357,120
01:56:24.462,,907,181,37
01:56:24.499,,760,131,88
01:56:24.536,,633,186,145
01:56:24.573,,557,308,139
01:56:24.610,,552,416,152
01:56:24.647,,585,428,188
01:56:24.684,,727,383,221
01:56:24.721,,975,342,237
01:56:24.758,,1199,336,238
01:56:24.795,,1343,424,235
01:56:24.832,,1292,555,298
01:56:24.869,,1263,639,275
01:56:24.906,,1100,533,145
01:56:24.943,,1013,371,45
01:56:24.981,,982,274,20
01:56:25.018,,824,225,37
01:56:25.055,,707,242,40
01:56:25.092,,676,313,57
01:56:25.129,,691,360,42
01:56:25.166,,741,364,44
01:56:25.203,,851,309,59
01:56:25.240,,1031,203,36
01:56:25.277,,1147,94,1
01:56:25.314,,1198,111,2
01:56:25.351,,1100,255,47
01:56:25.388,,1032,433,122
01:56:25.425,,908,571,253
01:56:25.462,,904,567,349
01:56:25.499,,945,427,290
01:56:25.536,,909,168,168
01:56:25.573,,742,-10,150
01:56:25.611,,671,55,173
01:56:25.648,,646,230,168
01:56:25.685,,683,424,171
01:56:25.722,,661,524,252
01:56:25.759,,652,514,346
01:56:25.796,,897,495,361
01:56:25.833,,1128,423,280
01:56:25.870,,1405,375,226
01:56:25.907,,1325,347,241
01:56:25.944,,1232,389,236
01:56:25.981,,1040,390,226
01:56:26.018,,1065,399,169
01:56:26.055,,1070,380,104
01:56:26.092,,1050,340,80
01:56:26.129,,935,294,92
01:56:26.166,,788,257,83
01:56:26.203,,655,252,71
01:56:26.240,,667,267,91
01:56:26.278,,657,255,100
01:56:26.315,,687,219,99
01:56:26.352,,833,202,113
01:56:26.389,,958,182,125
01:56:26.426,,1061,208,150
01:56:26.463,,1174,270,186
01:56:26.500,,1262,336,160
01:56:26.537,,1220,434,268
01:56:26.574,,1049,450,377
01:56:26.611,,940,372,304
01:56:26.648,,959,264,166
01:56:26.685,,882,193,109
01:56:26.722,,789,219,150
01:56:26.759,,666,312,145
01:56:26.796,,625,420,143
01:56:26.833,,631,505,236
01:56:26.870,,656,492,268
01:56:26.908,,809,460,258
01:56:26.945,,1067,496,244
01:56:26.982,,1417,617,252
01:56:27.019,,1308,644,270
01:56:27.056,,1044,477,252
01:56:27.093,,1127,407,259
01:56:27.130,,1295,437,183
01:56:27.167,,1378,406,103
01:56:27.204,,1310,322,138
01:56:27.241,,1127,248,160
01:56:27.278,,892,223,104
01:56:27.315,,746,238,89
01:56:27.352,,734,242,102
01:56:27.389,,643,206,105
01:56:27.426,,592,149,128
01:56:27.464,,670,128,138
01:56:27.501,,757,141,163
01:56:27.538,,819,150,175
01:56:27.575,,962,165,153
01:56:27.612,,1116,234,119
01:56:27.649,,1302,394,158
01:56:27.686,,1438,622,355
01:56:27.723,,1355,683,357
01:56:27.760,,1098,610,232
01:56:27.797,,912,226,194
01:56:27.834,,808,-30,217
01:56:27.871,,791,90,172
01:56:27.908,,716,335,82
01:56:27.945,,613,551,69
01:56:27.982,,588,609,165
01:56:28.019,,713,649,275
01:56:28.056,,1016,676,291
01:56:28.094,,1406,748,249
01:56:28.131,,1561,672,212
01:56:28.168,,1398,407,206
01:56:28.205,,1169,294,217
01:56:28.242,,1184,269,144
01:56:28.279,,1157,271,62
01:56:28.316,,1149,315,128
01:56:28.353,,1066,256,118
01:56:28.390,,866,207,13
01:56:28.427,,723,201,-2
01:56:28.464,,685,248,18
01:56:28.501,,683,233,14
01:56:28.538,,663,184,3
01:56:28.575,,725,176,24
01:56:28.612,,815,194,54
01:56:28.649,,904,219,104
01:56:28.687,,1065,244,121
01:56:28.724,,1293,299,120
01:56:28.761,,1362,433,252
01:56:28.798,,1240,491,352
01:56:28.835,,1147,560,332
01:56:28.872,,1080,528,236
01:56:28.909,,945,157,186
01:56:28.946,,845,75,217
01:56:28.983,,717,522,10
01:56:29.020,,567,1117,-461
01:56:29.057,,544,1471,-675
01:56:29.094,,750,1390,-744
01:56:29.131,,989,1147,-755
01:56:29.168,,985,894,-811
01:56:29.205,,1012,741,-1041
01:56:29.242,,972,568,-1044
01:56:29.279,,976,518,-975
01:56:29.316,,853,359,-789
01:56:29.354,,721,271,-665
01:56:29.391,,413,272,-520
01:56:29.428,,268,271,-452
01:56:29.465,,92,349,-454
01:56:29.502,,-11,353,-523
01:56:29.539,,-145,429,-589
01:56:29.576,,-193,508,-676
01:56:29.613,,-248,545,-778
01:56:29.650,,-220,596,-793
01:56:29.687,,-252,554,-806
01:56:29.724,,-229,545,-961
01:56:29.761,,-155,588,-1111
01:56:29.798,,-80,577,-950
01:56:29.835,,-110,477,-804
01:56:29.872,,-58,387,-660
01:56:29.909,,8,492,-650
01:56:29.946,,-16,521,-693
01:56:29.983,,-95,469,-626
01:56:30.020,,-155,431,-647
01:56:30.058,,-186,481,-722
01:56:30.095,,-165,488,-673
01:56:30.132,,-114,552,-721
01:56:30.169,,-54,596,-840
01:56:30.206,,-17,623,-917
01:56:30.243,,-36,680,-968
01:56:30.280,,113,697,-1055
01:56:30.317,,158,703,-1041
01:56:30.354,,309,646,-1043
01:56:30.391,,306,568,-924
01:56:30.428,,228,478,-836
01:56:30.465,,276,417,-722
01:56:30.502,,225,443,-547
01:56:30.539,,167,414,-498
01:56:30.576,,105,424,-524
01:56:30.613,,132,258,-657
01:56:30.650,,135,376,-796
01:56:30.687,,245,514,-919
01:56:30.725,,289,592,-919
01:56:30.762,,333,595,-974
01:56:30.799,,400,513,-1158
01:56:30.836,,423,401,-1210
01:56:30.873,,563,256,-1211
01:56:30.910,,545,245,-1070
01:56:30.947,,450,233,-837
01:56:30.984,,432,253,-717
01:56:31.021,,201,185,-770
01:56:31.058,,76,160,-653
01:56:31.095,,-11,147,-585
01:56:31.132,,-42,4,-652
01:56:31.169,,-75,91,-769
01:56:31.206,,-85,175,-966
01:56:31.243,,-124,220,-1020
01:56:31.280,,-92,294,-1129
01:56:31.317,,-109,323,-1216
01:56:31.354,,-63,291,-1260
01:56:31.391,,-1,298,-1265
01:56:31.429,,103,335,-1132
01:56:31.466,,126,226,-1051
01:56:31.503,,74,115,-945
01:56:31.540,,35,141,-860
01:56:31.577,,29,192,-746
01:56:31.614,,44,205,-730
01:56:31.651,,54,190,-718
01:56:31.688,,49,358,-636
01:56:31.725,,31,485,-692
01:56:31.762,,17,490,-808
01:56:31.799,,3,529,-804
01:56:31.836,,6,401,-913
01:56:31.873,,43,557,-832
01:56:31.910,,28,620,-960
01:56:31.947,,19,637,-1105
01:56:31.984,,67,592,-1161
01:56:32.021,,92,566,-1224
01:56:32.058,,111,438,-1071
01:56:32.095,,129,347,-826
01:56:32.132,,94,354,-759
01:56:32.170,,-41,396,-582
01:56:32.207,,-98,384,-510
01:56:32.244,,-191,-18,-846
01:56:32.281,,-340,596,-465
01:56:32.318,,-122,948,-833
01:56:32.355,,-421,74,-550
01:56:32.392,,-154,481,-999
01:56:32.429,,-54,608,-971
01:56:32.466,,-86,435,-1036
01:56:32.503,,145,707,-935
01:56:32.540,,182,649,-1030
01:56:32.577,,254,465,-1212
01:56:32.614,,98,464,-1045
01:56:32.651,,38,512,-992
01:56:32.688,,49,452,-943
01:56:32.725,,56,374,-755
01:56:32.762,,66,390,-616
01:56:32.799,,60,376,-563
01:56:32.837,,53,342,-586
01:56:32.874,,87,441,-646
01:56:32.911,,130,551,-765
01:56:32.948,,189,671,-771
01:56:32.985,,160,738,-765
01:56:33.022,,190,861,-864
01:56:33.059,,143,913,-918
01:56:33.096,,149,998,-805
01:56:33.133,,169,937,-626
01:56:33.170,,482,443,-314
01:56:33.207,,234,1051,-773
01:56:33.244,,87,614,-572
01:56:33.281,,-27,326,-488
01:56:33.318,,-68,226,-636
01:56:33.355,,-105,420,-727
01:56:33.392,,-150,593,-728
01:56:33.429,,-158,636,-840
01:56:33.466,,-133,639,-896
01:56:33.503,,-56,681,-905
01:56:33.541,,124,570,-1049
01:56:33.578,,269,593,-828
01:56:33.615,,113,921,-472
01:56:33.652,,104,805,-316
01:56:33.689,,84,728,-300
01:56:33.726,,71,507,-235
01:56:33.763,,237,-2,-87
01:56:33.800,,580,-125,122
01:56:33.837,,962,157,159
01:56:33.874,,1322,472,148
01:56:33.911,,1530,662,190
01:56:33.948,,1479,615,222
01:56:33.985,,1398,288,154
01:56:34.022,,1273,-7,16
01:56:34.059,,1411,177,-124
01:56:34.096,,1242,545,-88
01:56:34.133,,1385,766,57
01:56:34.170,,885,669,270
01:56:34.208,,577,418,198
01:56:34.245,,673,245,92
01:56:34.282,,773,97,-17
01:56:34.319,,777,129,-30
01:56:34.356,,691,257,75
01:56:34.393,,576,407,165
01:56:34.430,,604,514,220
01:56:34.467,,664,443,274
01:56:34.504,,774,190,361
01:56:34.541,,981,453,262
01:56:34.578,,1175,647,124
01:56:34.615,,1468,512,108
01:56:34.652,,1277,393,213
01:56:34.689,,1134,394,210
01:56:34.726,,1084,459,110
01:56:34.763,,1105,415,-6
01:56:34.800,,1001,330,-9
01:56:34.837,,806,231,18
01:56:34.874,,654,228,35
01:56:34.912,,589,342,36
01:56:34.949,,619,414,38
01:56:34.986,,692,408,29
01:56:35.023,,813,333,19
01:56:35.060,,1011,243,12
01:56:35.097,,1159,167,15
01:56:35.134,,1182,157,11
01:56:35.171,,992,263,39
01:56:35.208,,994,468,115
01:56:35.245,,937,671,309
01:56:35.282,,976,695,374
01:56:35.319,,1024,499,211
01:56:35.356,,942,198,103
01:56:35.393,,758,32,163
01:56:35.430,,650,132,156
01:56:35.467,,599,343,110
01:56:35.504,,675,535,146
01:56:35.541,,696,583,227
01:56:35.578,,726,495,253
01:56:35.616,,915,466,284
01:56:35.653,,1152,499,255
01:56:35.690,,1432,590,215
01:56:35.727,,1384,596,223
01:56:35.764,,1211,495,236
01:56:35.801,,1067,377,184
01:56:35.838,,1075,362,100
01:56:35.875,,1117,352,46
01:56:35.912,,972,339,66
01:56:35.949,,777,308,90
01:56:35.986,,641,288,48
01:56:36.023,,616,323,38
01:56:36.060,,667,315,40
01:56:36.097,,669,266,35
01:56:36.134,,755,214,31
01:56:36.171,,897,214,33
01:56:36.208,,977,221,40
01:56:36.245,,1090,289,29
01:56:36.283,,1023,352,73
01:56:36.320,,1138,513,156
01:56:36.357,,1136,682,350
01:56:36.394,,1114,691,377
01:56:36.431,,1076,500,203
01:56:36.468,,997,194,183
01:56:36.505,,813,-20,220
01:56:36.542,,714,86,193
01:56:36.579,,613,310,150
01:56:36.616,,561,562,204
01:56:36.653,,591,626,243
01:56:36.690,,800,584,279
01:56:36.727,,1045,520,275
01:56:36.764,,1242,522,253
01:56:36.801,,1329,509,237
01:56:36.838,,1375,499,221
01:56:36.875,,1229,396,166
01:56:36.912,,1153,327,99
01:56:36.950,,1071,287,60
01:56:36.987,,1027,311,83
01:56:37.024,,848,348,97
01:56:37.061,,718,329,33
01:56:37.098,,631,298,11
01:56:37.135,,651,309,26
01:56:37.172,,688,297,43
01:56:37.209,,752,264,55
01:56:37.246,,898,246,71
01:56:37.283,,1067,226,66
01:56:37.320,,1222,217,46
01:56:37.357,,997,245,114
01:56:37.394,,983,383,203
01:56:37.431,,1026,539,341
01:56:37.468,,1077,595,376
01:56:37.505,,1047,463,248
01:56:37.542,,946,274,204
01:56:37.580,,834,165,214
01:56:37.617,,752,224,163
01:56:37.654,,711,358,141
01:56:37.691,,698,539,170
01:56:37.728,,663,621,254
01:56:37.765,,679,555,274
01:56:37.802,,925,545,269
01:56:37.839,,1115,525,206
01:56:37.876,,1208,565,193
01:56:37.913,,1206,590,221
01:56:37.950,,1361,640,192
01:56:37.987,,1218,514,132
01:56:38.024,,1165,441,84
01:56:38.061,,1111,387,22
01:56:38.098,,1028,364,15
01:56:38.135,,883,341,20
01:56:38.173,,773,315,21
01:56:38.210,,785,342,40
01:56:38.247,,789,346,70
01:56:38.284,,777,299,65
01:56:38.321,,794,196,19
01:56:38.358,,853,135,31
01:56:38.395,,881,135,69
01:56:38.432,,951,201,62
01:56:38.469,,955,283,64
01:56:38.506,,1047,396,99
01:56:38.543,,1160,579,246
01:56:38.580,,1249,686,374
01:56:38.617,,1174,576,223
01:56:38.654,,951,336,108
01:56:38.691,,811,97,132
01:56:38.728,,802,121,137
01:56:38.766,,773,282,118
01:56:38.803,,734,521,125
01:56:38.840,,688,654,191
01:56:38.877,,745,666,236
01:56:38.914,,960,666,267
01:56:38.951,,1086,618,273
01:56:38.988,,1270,599,301
01:56:39.025,,1239,535,275
01:56:39.062,,1293,439,217
01:56:39.099,,1235,382,144
01:56:39.136,,1273,363,67
01:56:39.173,,1356,375,57
01:56:39.210,,1182,329,37
01:56:39.247,,924,289,-6
01:56:39.284,,758,297,-12
01:56:39.321,,668,329,-18
01:56:39.359,,662,340,-6
01:56:39.396,,657,295,8
01:56:39.433,,685,222,2
01:56:39.470,,746,178,25
01:56:39.507,,814,179,81
01:56:39.544,,933,221,149
01:56:39.581,,955,258,221
01:56:39.618,,1093,313,151
01:56:39.655,,1254,453,209
01:56:39.692,,1383,612,320
01:56:39.729,,1315,656,230
01:56:39.766,,1122,514,155
01:56:39.803,,929,266,122
01:56:39.840,,859,281,118
01:56:39.877,,769,399,110
01:56:39.914,,690,531,90
01:56:39.951,,663,623,198
01:56:39.989,,669,637,309
01:56:40.026,,893,625,293
01:56:40.063,,1114,499,163
01:56:40.100,,1322,374,140
01:56:40.137,,1398,491,238
01:56:40.174,,1120,555,236
01:56:40.211,,942,528,192
01:56:40.248,,941,401,106
01:56:40.285,,996,291,17
01:56:40.322,,995,238,-28
01:56:40.359,,899,255,-29
01:56:40.396,,748,282,-34
01:56:40.433,,626,293,-28
01:56:40.470,,610,344,7
01:56:40.507,,647,348,41
01:56:40.544,,738,321,74
01:56:40.582,,872,269,86
01:56:40.619,,941,202,86
01:56:40.656,,1018,191,102
01:56:40.693,,1157,309,141
01:56:40.730,,1228,469,175
01:56:40.767,,1156,603,310
01:56:40.804,,1086,562,374
01:56:40.841,,1038,431,259
01:56:40.878,,1074,271,170
01:56:40.915,,894,169,157
01:56:40.952,,724,252,150
01:56:40.989,,640,400,137
01:56:41.026,,623,526,126
01:56:41.063,,639,587,159
01:56:41.100,,628,530,214
01:56:41.137,,823,561,251
01:56:41.174,,1062,615,229
01:56:41.212,,1171,634,220
01:56:41.249,,1219,521,213
01:56:41.286,,1246,418,196
01:56:41.323,,1249,385,169
01:56:41.360,,1207,360,100
01:56:41.397,,1077,350,29
01:56:41.434,,1075,378,36
01:56:41.471,,1096,414,90
01:56:41.508,,984,338,1
01:56:41.545,,794,244,-13
01:56:41.582,,719,226,40
01:56:41.619,,678,225,44
01:56:41.656,,593,208,26
01:56:41.693,,556,169,16
01:56:41.730,,613,173,14
01:56:41.767,,772,236,22
01:56:41.804,,958,338,79
01:56:41.842,,1248,439,113
01:56:41.879,,1482,503,133
01:56:41.916,,1760,613,193
01:56:41.953,,1352,658,269
01:56:41.990,,866,512,224
01:56:42.027,,841,315,160
01:56:42.064,,954,278,40
01:56:42.101,,880,364,18
01:56:42.138,,712,442,107
01:56:42.175,,581,500,161
01:56:42.212,,529,512,190
01:56:42.249,,509,495,195
01:56:42.286,,646,502,237
01:56:42.323,,984,504,236
01:56:42.360,,1324,467,167
01:56:42.397,,1433,445,178
01:56:42.434,,1212,372,212
01:56:42.472,,1174,409,215
01:56:42.509,,1201,456,186
01:56:42.546,,1203,398,88
01:56:42.583,,1148,332,52
01:56:42.620,,1118,281,62
01:56:42.657,,908,235,15
01:56:42.694,,725,239,0
01:56:42.731,,612,266,19
01:56:42.768,,606,292,20
01:56:42.805,,652,287,27
01:56:42.842,,679,250,27
01:56:42.879,,732,205,29
01:56:42.916,,832,194,53
01:56:42.953,,1044,227,50
01:56:42.990,,1217,325,77
01:56:43.027,,1237,451,156
01:56:43.064,,1250,600,342
01:56:43.102,,1230,648,403
01:56:43.139,,1167,545,208
01:56:43.176,,1100,249,106
01:56:43.213,,886,82,131
01:56:43.250,,709,187,150
01:56:43.287,,577,348,131
01:56:43.324,,577,550,160
01:56:43.361,,612,554,192
01:56:43.398,,710,475,214
01:56:43.435,,940,415,210
01:56:43.472,,1123,404,189
01:56:43.509,,1332,521,218
01:56:43.546,,1270,562,240
01:56:43.583,,1320,551,236
01:56:43.620,,1225,416,104
01:56:43.657,,1161,364,-18
01:56:43.695,,1117,338,-65
01:56:43.732,,927,305,-35
01:56:43.769,,750,278,-39
01:56:43.806,,643,283,-33
01:56:43.843,,623,326,-5
01:56:43.880,,690,316,-42
01:56:43.917,,749,264,-48
01:56:43.954,,818,204,-27
01:56:43.991,,910,167,-11
01:56:44.028,,990,184,-7
01:56:44.065,,1150,323,18
01:56:44.102,,1048,441,74
01:56:44.139,,1071,549,170
01:56:44.176,,1086,588,318
01:56:44.213,,1097,580,332
01:56:44.250,,1073,414,185
01:56:44.287,,895,153,121
01:56:44.325,,751,77,160
01:56:44.362,,679,140,262
01:56:44.399,,693,201,321
01:56:44.436,,621,270,23
01:56:44.473,,609,449,-77
01:56:44.510,,774,643,19
01:56:44.547,,1047,797,139
01:56:44.584,,1304,818,140
01:56:44.621,,1339,744,20
01:56:44.658,,1131,546,-40
01:56:44.695,,503,-565,-100
01:56:44.732,,1201,222,-76
01:56:44.769,,1337,538,-56
01:56:44.806,,663,461,-121
01:56:44.843,,841,76,-144
01:56:44.880,,754,142,-101
01:56:44.917,,693,111,-4
01:56:44.955,,708,204,50
01:56:44.992,,775,287,70
01:56:45.029,,948,322,48
01:56:45.066,,1154,244,7
01:56:45.103,,1179,121,-30
01:56:45.140,,1237,78,-58
01:56:45.177,,1135,216,-62
01:56:45.214,,928,465,70
01:56:45.251,,863,641,202
01:56:45.288,,903,548,155
01:56:45.325,,957,346,70
01:56:45.362,,822,91,100
01:56:45.399,,668,28,167
01:56:45.436,,626,180,169
01:56:45.473,,630,304,138
01:56:45.510,,700,366,175
01:56:45.547,,742,324,179
01:56:45.585,,896,332,161
01:56:45.622,,1147,433,169
01:56:45.659,,1289,585,226
01:56:45.696,,1264,683,245
01:56:45.733,,1109,665,218
01:56:45.770,,1127,501,145
01:56:45.807,,1177,327,27
01:56:45.844,,1141,235,-42
01:56:45.881,,1170,194,-25
01:56:45.918,,1055,235,34
01:56:45.955,,866,300,29
01:56:45.992,,781,343,52
01:56:46.029,,815,278,31
01:56:46.066,,744,246,-7
01:56:46.103,,728,196,33
01:56:46.140,,797,161,71
01:56:46.177,,913,174,71
01:56:46.215,,984,193,70
01:56:46.252,,1068,234,86
01:56:46.289,,1080,290,102
01:56:46.326,,1131,357,127
01:56:46.363,,1112,434,235
01:56:46.400,,1149,469,280
01:56:46.437,,1143,427,157
01:56:46.474,,1015,334,110
01:56:46.511,,786,210,149
01:56:46.548,,734,249,144
01:56:46.585,,686,361,119
01:56:46.622,,691,478,139
01:56:46.659,,701,509,181
01:56:46.696,,825,478,199
01:56:46.733,,1001,500,231
01:56:46.770,,1048,515,270
01:56:46.807,,1159,511,274
01:56:46.844,,1236,511,220
01:56:46.882,,1461,447,183
01:56:46.919,,1272,341,175
01:56:46.956,,1227,293,131
01:56:46.993,,1199,294,77
01:56:47.030,,1190,327,78
01:56:47.067,,991,290,64
01:56:47.104,,765,233,39
01:56:47.141,,641,226,53
01:56:47.178,,671,266,63
01:56:47.215,,683,239,45
01:56:47.252,,760,185,38
01:56:47.289,,859,149,38
01:56:47.326,,912,135,42
01:56:47.363,,1017,176,62
01:56:47.400,,985,255,110
01:56:47.437,,1228,341,84
01:56:47.474,,1213,447,179
01:56:47.511,,1180,464,275
01:56:47.548,,1096,415,273
01:56:47.586,,989,350,230
01:56:47.623,,829,262,163
01:56:47.660,,782,259,134
01:56:47.697,,760,310,122
01:56:47.734,,808,487,138
01:56:47.771,,784,582,217
01:56:47.808,,767,607,310
01:56:47.845,,985,662,341
01:56:47.882,,1144,596,246
01:56:47.919,,1331,475,204
01:56:47.956,,1373,307,155
01:56:47.993,,1379,378,185
01:56:48.030,,1228,453,208
01:56:48.067,,1200,486,146
01:56:48.104,,1262,439,45
01:56:48.141,,1208,329,-3
01:56:48.178,,1049,256,2
01:56:48.215,,914,205,-22
01:56:48.252,,792,204,-30
01:56:48.290,,800,250,5
01:56:48.327,,801,217,-16
01:56:48.364,,861,180,-49
01:56:48.401,,869,137,-61
01:56:48.438,,807,105,-65
01:56:48.475,,867,145,-46
01:56:48.512,,903,248,45
01:56:48.549,,1056,374,115
01:56:48.586,,1082,434,195
01:56:48.623,,1205,438,315
01:56:48.660,,1325,384,289
01:56:48.697,,1283,276,153
01:56:48.734,,1078,185,216
01:56:48.771,,927,217,292
01:56:48.808,,823,363,248
01:56:48.845,,749,524,233
01:56:48.882,,727,557,221
01:56:48.919,,796,538,259
01:56:48.956,,945,558,318
01:56:48.994,,1206,636,327
01:56:49.031,,1430,628,226
01:56:49.068,,1498,412,179
01:56:49.105,,1415,257,143
01:56:49.142,,1312,262,83
01:56:49.179,,1339,295,34
01:56:49.216,,1347,324,10
01:56:49.253,,1200,306,0
01:56:49.290,,963,277,-8
01:56:49.327,,800,261,-18
01:56:49.364,,715,258,-23
01:56:49.401,,720,228,-20
01:56:49.438,,786,195,-3
01:56:49.475,,843,156,8
01:56:49.512,,829,101,12
01:56:49.549,,793,82,43
01:56:49.586,,871,116,54
01:56:49.623,,887,173,8
01:56:49.661,,1029,281,17
01:56:49.698,,1188,408,99
01:56:49.735,,1481,561,240
01:56:49.772,,1761,765,397
01:56:49.809,,1437,796,290
01:56:49.846,,923,387,213
01:56:49.883,,884,-77,238
01:56:49.920,,832,-8,179
01:56:49.957,,790,311,117
01:56:49.994,,699,614,127
01:56:50.031,,719,770,223
01:56:50.068,,891,747,234
01:56:50.105,,1100,634,281
01:56:50.142,,1381,519,221
01:56:50.179,,1256,470,165
01:56:50.216,,1395,476,167
01:56:50.253,,1517,387,56
01:56:50.291,,1577,337,-72
01:56:50.328,,1530,310,-62
01:56:50.365,,1359,193,-1
01:56:50.402,,1034,260,33
01:56:50.439,,839,244,20
01:56:50.476,,691,239,-38
01:56:50.513,,617,176,-49
01:56:50.550,,601,121,-15
01:56:50.587,,582,95,-21
01:56:50.624,,560,105,-28
01:56:50.661,,622,194,30
01:56:50.698,,740,277,94
01:56:50.735,,978,359,163
01:56:50.772,,1456,396,188
01:56:50.809,,1920,430,268
01:56:50.846,,1693,316,283
01:56:50.883,,1325,272,209
01:56:50.921,,921,105,121
01:56:50.958,,897,238,68
01:56:50.995,,815,429,37
01:56:51.032,,746,611,86
01:56:51.069,,694,588,137
01:56:51.106,,705,517,173
01:56:51.143,,862,480,172
01:56:51.180,,1017,479,116
01:56:51.217,,1305,564,133
01:56:51.254,,1144,574,209
01:56:51.291,,1219,537,165
01:56:51.328,,1240,432,-23
01:56:51.365,,1347,302,-114
01:56:51.402,,1364,186,-177
01:56:51.439,,1130,158,-114
01:56:51.476,,902,222,-101
01:56:51.513,,749,259,-92
01:56:51.550,,717,307,-31
01:56:51.588,,750,271,-34
01:56:51.625,,768,179,-71
01:56:51.662,,868,96,-57
01:56:51.699,,917,83,-26
01:56:51.736,,998,149,-33
01:56:51.773,,1110,270,18
01:56:51.810,,1262,402,90
01:56:51.847,,1175,483,244
01:56:51.884,,1133,465,310
01:56:51.921,,1205,366,187
01:56:51.958,,1154,224,37
01:56:51.995,,938,117,49
01:56:52.032,,837,146,98
01:56:52.069,,758,339,72
01:56:52.106,,706,540,37
01:56:52.143,,657,588,67
01:56:52.180,,742,527,111
01:56:52.217,,942,505,167
01:56:52.254,,1064,497,177
01:56:52.292,,1381,634,230
01:56:52.329,,1378,699,272
01:56:52.366,,1368,532,207
01:56:52.403,,1380,334,88
01:56:52.440,,1587,239,31
01:56:52.477,,1568,102,48
01:56:52.514,,1192,122,93
01:56:52.551,,1001,184,96
01:56:52.588,,867,221,21
01:56:52.625,,748,258,-8
01:56:52.662,,714,210,-7
01:56:52.699,,690,142,-19
01:56:52.736,,726,115,-23
01:56:52.773,,731,108,-11
01:56:52.810,,793,140,-6
01:56:52.847,,844,167,-7
01:56:52.884,,1094,236,-43
01:56:52.922,,1277,382,26
01:56:52.959,,1510,598,247
01:56:52.996,,1642,767,411
01:56:53.033,,1364,629,221
01:56:53.070,,983,285,166
01:56:53.107,,901,-97,225
01:56:53.144,,877,-9,212
01:56:53.181,,842,310,198
01:56:53.218,,736,622,237
01:56:53.255,,708,788,312
01:56:53.292,,927,792,339
01:56:53.329,,1108,703,364
01:56:53.366,,1383,600,344
01:56:53.403,,1515,377,222
01:56:53.440,,1527,233,129
01:56:53.477,,1469,175,86
01:56:53.514,,1603,186,20
01:56:53.551,,1457,259,-85
01:56:53.588,,1202,260,-102
01:56:53.626,,915,296,-83
01:56:53.663,,710,302,-106
01:56:53.700,,592,270,-116
01:56:53.737,,528,207,-97
01:56:53.774,,495,148,-52
01:56:53.811,,512,126,-11
01:56:53.848,,647,178,69
01:56:53.885,,796,211,135
01:56:53.922,,988,166,88
01:56:53.959,,1342,152,27
01:56:53.996,,1742,283,-8
01:56:54.033,,1722,570,215
01:56:54.070,,1540,838,418
01:56:54.107,,1192,904,323
01:56:54.144,,980,462,112
01:56:54.181,,916,-32,109
01:56:54.219,,874,-73,146
01:56:54.256,,720,142,115
01:56:54.293,,637,479,129
01:56:54.330,,647,688,201
01:56:54.367,,744,643,207
01:56:54.404,,941,470,159
01:56:54.441,,1120,323,112
01:56:54.478,,1389,345,150
01:56:54.515,,1329,491,221
01:56:54.552,,1296,576,225
01:56:54.589,,1231,463,138
01:56:54.626,,1179,286,9
01:56:54.663,,1193,185,-57
01:56:54.700,,1023,147,-63
01:56:54.737,,815,197,-49
01:56:54.774,,710,246,-45
01:56:54.811,,618,269,-47
01:56:54.848,,626,274,-29
01:56:54.886,,712,247,1
01:56:54.923,,848,212,37
01:56:54.960,,935,144,46
01:56:54.997,,1040,114,48
01:56:55.034,,1268,143,27
01:56:55.071,,1370,279,30
01:56:55.108,,1087,441,187
01:56:55.145,,888,508,350
01:56:55.182,,1012,490,381
01:56:55.219,,1125,402,233
01:56:55.256,,964,205,123
01:56:55.293,,801,150,202
01:56:55.330,,742,265,258
01:56:55.367,,705,423,225
01:56:55.404,,701,541,245
01:56:55.441,,783,561,276
01:56:55.478,,1028,544,293
01:56:55.515,,1118,476,242
01:56:55.553,,1358,431,214
01:56:55.590,,1419,331,161
01:56:55.627,,1392,359,115
01:56:55.664,,1285,376,105
01:56:55.701,,1326,372,45
01:56:55.738,,1262,326,-2
01:56:55.775,,1162,260,19
01:56:55.812,,991,228,17
01:56:55.849,,810,182,-14
01:56:55.886,,685,168,-2
01:56:55.923,,626,162,19
01:56:55.960,,584,156,33
01:56:55.997,,663,188,52
01:56:56.034,,797,220,75
01:56:56.071,,1039,206,37
01:56:56.108,,1276,144,-87
01:56:56.145,,1324,211,-134
01:56:56.182,,1129,414,25
01:56:56.220,,1028,609,186
01:56:56.257,,1134,656,166
01:56:56.294,,1206,543,40
01:56:56.331,,1084,349,11
01:56:56.368,,932,205,96
01:56:56.405,,815,278,125
01:56:56.442,,748,420,110
01:56:56.479,,720,537,123
01:56:56.516,,734,621,206
01:56:56.553,,923,650,258
01:56:56.590,,1146,650,229
01:56:56.627,,1518,582,177
01:56:56.664,,1354,379,141
01:56:56.701,,1385,394,146
01:56:56.738,,1394,441,3
01:56:56.775,,1414,289,-313
01:56:56.812,,1265,14,-404
01:56:56.850,,1136,138,-289
01:56:56.887,,952,108,-410
01:56:56.924,,748,88,-397
01:56:56.961,,531,97,-289
01:56:56.998,,478,261,-128
01:56:57.035,,556,332,-41
01:56:57.072,,667,228,-88
01:56:57.109,,785,145,-105
01:56:57.146,,978,23,-53
01:56:57.183,,1201,67,17
01:56:57.220,,1398,345,-33
01:56:57.257,,1393,664,-90
01:56:57.294,,1403,838,-68
01:56:57.331,,1135,836,-16
01:56:57.368,,881,623,-17
01:56:57.405,,855,471,0
01:56:57.442,,913,343,-44
01:56:57.479,,820,332,-51
01:56:57.516,,722,328,-9
01:56:57.554,,657,394,11
01:56:57.591,,640,419,-8
01:56:57.628,,655,417,0
01:56:57.665,,730,389,49
01:56:57.702,,860,342,75
01:56:57.739,,1029,287,96
01:56:57.776,,1146,307,97
01:56:57.813,,1189,515,188
01:56:57.850,,1177,691,251
01:56:57.887,,1217,665,167
01:56:57.924,,1048,309,21
01:56:57.961,,742,317,-684
01:56:57.998,,1427,1107,145
01:56:58.035,,544,-106,-305
01:56:58.072,,535,339,-168
01:56:58.109,,609,242,-51
01:56:58.146,,637,218,12
01:56:58.183,,735,312,57
01:56:58.221,,836,318,3
01:56:58.258,,927,286,-42
01:56:58.295,,1013,220,-10
01:56:58.332,,1150,199,27
01:56:58.369,,1158,299,9
01:56:58.406,,1120,460,0
01:56:58.443,,942,635,163
01:56:58.480,,870,617,184
01:56:58.517,,900,463,77
01:56:58.554,,934,258,38
01:56:58.591,,804,139,99
01:56:58.628,,687,304,98
01:56:58.665,,526,619,33
01:56:58.702,,457,955,32
01:56:58.739,,505,852,100
01:56:58.776,,636,662,178
01:56:58.813,,779,590,205
01:56:58.851,,914,601,124
01:56:58.888,,1413,439,129
01:56:58.925,,1405,481,-199
01:56:58.962,,1044,663,-188
01:56:58.999,,875,207,-127
01:56:59.036,,718,435,-220
01:56:59.073,,1203,660,-262
01:56:59.110,,617,343,-282
01:56:59.147,,671,-98,-188
01:56:59.184,,613,161,-147
01:56:59.221,,647,348,-154
01:56:59.258,,716,353,-207
01:56:59.295,,786,307,-210
01:56:59.332,,957,505,-240
01:56:59.369,,990,616,-300
01:56:59.406,,951,742,-407
01:56:59.443,,752,874,-584
01:56:59.481,,729,1047,-770
01:56:59.518,,455,1101,-722
01:56:59.555,,401,1041,-589
01:56:59.592,,521,1114,-497
01:56:59.629,,492,766,-398
01:56:59.666,,392,500,-260
01:56:59.703,,303,417,-84
01:56:59.740,,257,188,23
01:56:59.777,,207,437,110
01:56:59.814,,221,671,107
01:56:59.851,,206,800,107
01:56:59.888,,320,958,117
01:56:59.925,,317,992,-6
01:56:59.962,,384,1223,-18
01:56:59.999,,421,1081,-98
01:57:00.036,,685,572,-62
01:57:00.073,,649,937,-74
01:57:00.110,,706,1136,91
01:57:00.148,,507,788,-155
01:57:00.185,,471,1173,-287
01:57:00.222,,502,962,-370
01:57:00.259,,543,533,-369
01:57:00.296,,537,554,-466
01:57:00.333,,529,623,-367
01:57:00.370,,523,648,-298
01:57:00.407,,596,644,-327
01:57:00.444,,712,594,-248
01:57:00.481,,824,775,-209
01:57:00.518,,909,709,-225
01:57:00.555,,780,757,-195
01:57:00.592,,613,826,-24
01:57:00.629,,534,897,152
01:57:00.666,,565,947,148
01:57:00.703,,620,970,119
01:57:00.740,,564,861,90
01:57:00.777,,472,764,74
01:57:00.815,,422,746,67
01:57:00.852,,358,773,55
01:57:00.889,,309,609,80
01:57:00.926,,274,613,150
01:57:00.963,,307,600,313
01:57:01.000,,386,746,441
01:57:01.037,,522,816,502
01:57:01.074,,634,865,571
01:57:01.111,,624,967,632
01:57:01.148,,585,866,567
01:57:01.185,,662,885,602
01:57:01.222,,719,897,618
01:57:01.259,,697,812,416
01:57:01.296,,621,670,176
01:57:01.333,,572,615,70
01:57:01.370,,544,558,-31
01:57:01.407,,582,388,50
01:57:01.444,,609,453,58
01:57:01.482,,645,451,67
01:57:01.519,,768,576,88
01:57:01.556,,877,638,131
01:57:01.593,,961,639,134
01:57:01.630,,784,667,181
01:57:01.667,,629,853,257
01:57:01.704,,612,958,348
01:57:01.741,,594,979,309
01:57:01.778,,519,930,188
01:57:01.815,,438,853,163
01:57:01.852,,383,765,144
01:57:01.889,,358,731,73
01:57:01.926,,300,899,107
01:57:01.963,,266,963,156
01:57:02.000,,310,858,136
01:57:02.037,,353,855,81
01:57:02.074,,382,926,112
01:57:02.111,,471,955,115
01:57:02.149,,623,1000,164
01:57:02.186,,694,1009,236
01:57:02.223,,760,947,290
01:57:02.260,,821,724,299
01:57:02.297,,800,640,262
01:57:02.334,,698,544,259
01:57:02.371,,598,484,322
01:57:02.408,,525,549,373
01:57:02.445,,529,567,316
01:57:02.482,,592,603,210
01:57:02.519,,694,711,199
01:57:02.556,,810,761,237
01:57:02.593,,833,808,246
01:57:02.630,,891,773,197
01:57:02.667,,736,758,168
01:57:02.704,,566,705,144
01:57:02.741,,406,715,171
01:57:02.778,,440,727,205
01:57:02.816,,600,834,204
01:57:02.853,,591,781,141
01:57:02.890,,534,656,132
01:57:02.927,,463,644,163
01:57:02.964,,402,724,126
01:57:03.001,,366,797,113
01:57:03.038,,347,849,93
01:57:03.075,,398,932,83
01:57:03.112,,436,1068,64
01:57:03.149,,525,1226,114
01:57:03.186,,533,1242,227
01:57:03.223,,597,1196,356
01:57:03.260,,645,1018,423
01:57:03.297,,717,832,401
01:57:03.334,,757,670,314
01:57:03.371,,839,623,250
01:57:03.408,,788,510,187
01:57:03.445,,692,388,127
01:57:03.482,,642,272,111
01:57:03.520,,630,270,146
01:57:03.557,,694,311,197
01:57:03.594,,746,356,235
01:57:03.631,,900,489,303
01:57:03.668,,901,660,391
01:57:03.705,,932,785,431
01:57:03.742,,907,902,385
01:57:03.779,,831,1049,371
01:57:03.816,,619,834,266
01:57:03.853,,500,786,256
01:57:03.890,,534,723,206
01:57:03.927,,615,704,177
01:57:03.964,,590,637,166
01:57:04.001,,498,601,196
01:57:04.038,,459,605,200
01:57:04.075,,485,572,164
01:57:04.112,,541,614,130
01:57:04.150,,637,717,108
01:57:04.187,,692,813,98
01:57:04.224,,641,949,119
01:57:04.261,,754,1138,219
01:57:04.298,,722,1071,291
01:57:04.335,,697,975,294
01:57:04.372,,628,882,304
01:57:04.409,,748,791,351
01:57:04.446,,839,723,382
01:57:04.483,,829,629,327
01:57:04.520,,695,551,274
01:57:04.557,,593,486,251
01:57:04.594,,562,420,242
01:57:04.631,,584,355,243
01:57:04.668,,631,325,232
01:57:04.705,,756,335,224
01:57:04.743,,894,388,219
01:57:04.780,,943,454,226
01:57:04.817,,1026,597,268
01:57:04.854,,1068,716,271
01:57:04.891,,1071,803,244
01:57:04.928,,736,887,325
01:57:04.965,,514,920,338
01:57:05.002,,543,903,302
01:57:05.039,,595,824,383
01:57:05.076,,549,748,384
01:57:05.113,,450,675,344
01:57:05.150,,414,604,264
01:57:05.187,,439,602,191
01:57:05.224,,441,622,160
01:57:05.261,,482,736,179
01:57:05.298,,634,808,164
01:57:05.335,,776,798,164
01:57:05.372,,987,855,218
01:57:05.409,,1075,864,239
01:57:05.447,,930,778,282
01:57:05.484,,952,657,401
01:57:05.521,,994,494,428
01:57:05.558,,947,530,398
01:57:05.595,,811,510,349
01:57:05.632,,683,470,356
01:57:05.669,,666,465,360
01:57:05.706,,649,449,304
01:57:05.743,,614,444,237
01:57:05.780,,611,452,209
01:57:05.817,,683,468,186
01:57:05.854,,762,459,165
01:57:05.891,,874,452,148
01:57:05.928,,1015,476,126
01:57:05.965,,1051,481,108
01:57:06.002,,887,563,257
01:57:06.039,,818,617,428
01:57:06.076,,884,628,538
01:57:06.113,,856,673,571
01:57:06.151,,704,739,478
01:57:06.188,,535,767,413
01:57:06.225,,404,739,334
01:57:06.262,,342,660,242
01:57:06.299,,335,703,257
01:57:06.336,,350,705,291
01:57:06.373,,408,715,309
01:57:06.410,,541,739,369
01:57:06.447,,661,771,376
01:57:06.484,,783,769,356
01:57:06.521,,886,817,356
01:57:06.558,,967,779,318
01:57:06.595,,847,678,311
01:57:06.632,,835,564,381
01:57:06.669,,879,461,368
01:57:06.706,,942,408,331
01:57:06.743,,867,403,309
01:57:06.780,,743,393,298
01:57:06.818,,658,430,274
01:57:06.855,,646,450,256
01:57:06.892,,648,513,261
01:57:06.929,,631,583,276
01:57:06.966,,637,669,283
01:57:07.003,,661,720,281
01:57:07.040,,700,701,288
01:57:07.077,,804,676,314
01:57:07.114,,796,669,263
01:57:07.151,,665,669,205
01:57:07.188,,560,721,313
01:57:07.225,,645,765,398
01:57:07.262,,798,764,379
01:57:07.299,,709,828,463
01:57:07.336,,581,789,337
01:57:07.373,,414,797,215
01:57:07.410,,346,812,75
01:57:07.447,,340,773,-109
01:57:07.485,,258,755,-132
01:57:07.522,,237,716,-109
01:57:07.559,,305,844,-70
01:57:07.596,,357,936,-27
01:57:07.633,,483,1001,43
01:57:07.670,,573,1056,18
01:57:07.707,,526,1094,28
01:57:07.744,,450,1054,65
01:57:07.781,,600,966,158
01:57:07.818,,754,866,176
01:57:07.855,,832,713,132
01:57:07.892,,722,579,62
01:57:07.929,,602,536,17
01:57:07.966,,587,487,33
01:57:08.003,,599,570,63
01:57:08.040,,643,686,116
01:57:08.077,,647,749,183
01:57:08.114,,657,877,283
01:57:08.152,,727,902,287
01:57:08.189,,807,855,230
01:57:08.226,,729,740,131
01:57:08.263,,577,644,67
01:57:08.300,,455,603,101
01:57:08.337,,505,649,185
01:57:08.374,,733,722,223
01:57:08.411,,715,807,325
01:57:08.448,,533,784,385
01:57:08.485,,358,834,430
01:57:08.522,,332,1031,447
01:57:08.559,,327,835,198
01:57:08.596,,239,816,63
01:57:08.633,,207,851,-39
01:57:08.670,,305,960,-95
01:57:08.707,,359,1019,-134
01:57:08.744,,444,942,-172
01:57:08.781,,534,993,-185
01:57:08.818,,637,1100,-98
01:57:08.856,,581,1095,61
01:57:08.893,,564,953,170
01:57:08.930,,630,778,217
01:57:08.967,,663,712,248
01:57:09.004,,687,628,209
01:57:09.041,,668,565,136
01:57:09.078,,622,496,100
01:57:09.115,,630,557,63
01:57:09.152,,665,571,64
01:57:09.189,,705,762,124
01:57:09.226,,670,906,132
01:57:09.263,,748,919,162
01:57:09.300,,776,959,229
01:57:09.337,,804,899,233
01:57:09.374,,698,737,178
01:57:09.411,,550,601,129
01:57:09.448,,439,602,158
01:57:09.485,,511,618,218
01:57:09.522,,661,733,295
01:57:09.560,,578,694,303
01:57:09.597,,450,699,336
01:57:09.634,,361,767,388
01:57:09.671,,324,749,359
01:57:09.708,,298,905,331
01:57:09.745,,226,1074,251
01:57:09.782,,226,1057,124
01:57:09.819,,363,1087,126
01:57:09.856,,478,1044,127
01:57:09.893,,635,1013,34
01:57:09.930,,743,954,-39
01:57:09.967,,670,865,-17
01:57:10.004,,673,804,96
01:57:10.041,,665,686,195
01:57:10.078,,701,596,262
01:57:10.115,,647,533,313
01:57:10.152,,532,490,322
01:57:10.189,,513,501,281
01:57:10.226,,567,479,236
01:57:10.264,,629,477,285
01:57:10.301,,640,592,362
01:57:10.338,,709,764,377
01:57:10.375,,816,869,342
01:57:10.412,,884,968,345
01:57:10.449,,819,1104,354
01:57:10.486,,644,1037,308
01:57:10.523,,405,894,311
01:57:10.560,,380,788,272
01:57:10.597,,490,683,213
01:57:10.634,,516,600,156
01:57:10.671,,436,527,144
01:57:10.708,,368,524,171
01:57:10.745,,333,562,206
01:57:10.782,,267,615,244
01:57:10.819,,218,832,436
01:57:10.856,,246,1026,581
01:57:10.893,,310,1217,631
01:57:10.931,,434,1314,626
01:57:10.968,,505,1290,434
01:57:11.005,,381,1046,239
01:57:11.042,,402,858,264
01:57:11.079,,536,800,305
01:57:11.116,,657,761,263
01:57:11.153,,650,634,180
01:57:11.190,,591,516,141
01:57:11.227,,551,449,112
01:57:11.264,,530,386,151
01:57:11.301,,550,384,221
01:57:11.338,,578,422,269
01:57:11.375,,654,500,290
01:57:11.412,,776,614,349
01:57:11.449,,891,703,416
01:57:11.486,,907,826,440
01:57:11.523,,866,939,455
01:57:11.560,,872,996,380
01:57:11.598,,530,1014,324
01:57:11.635,,401,927,251
01:57:11.672,,537,864,206
01:57:11.709,,673,727,159
01:57:11.746,,601,604,147
01:57:11.783,,430,604,180
01:57:11.820,,349,598,183
01:57:11.857,,314,621,163
01:57:11.894,,297,629,166
01:57:11.931,,354,719,218
01:57:11.968,,494,826,265
01:57:12.005,,541,870,319
01:57:12.042,,663,951,412
01:57:12.079,,665,943,489
01:57:12.116,,778,1044,564
01:57:12.153,,737,999,483
01:57:12.190,,645,870,380
01:57:12.227,,612,760,290
01:57:12.264,,636,692,184
01:57:12.302,,624,633,75
01:57:12.339,,619,559,-23
01:57:12.376,,612,523,-8
01:57:12.413,,685,442,-13
01:57:12.450,,713,416,50
01:57:12.487,,741,432,112
01:57:12.524,,806,485,178
01:57:12.561,,886,575,238
01:57:12.598,,926,614,227
01:57:12.635,,948,688,209
01:57:12.672,,890,759,240
01:57:12.709,,844,778,310
01:57:12.746,,798,691,231
01:57:12.783,,841,689,243
01:57:12.820,,839,695,296
01:57:12.857,,715,650,326
01:57:12.894,,604,549,287
01:57:12.932,,513,535,192
01:57:12.969,,490,612,190
01:57:13.006,,394,410,165
01:57:13.043,,500,342,215
01:57:13.080,,624,386,234
01:57:13.117,,719,621,112
01:57:13.154,,993,649,151
01:57:13.191,,1106,648,163
01:57:13.228,,1248,763,171
01:57:13.265,,1165,728,154
01:57:13.302,,988,666,64
01:57:13.339,,890,559,-5
01:57:13.376,,878,444,-18
01:57:13.413,,789,350,-2
01:57:13.450,,719,334,15
01:57:13.487,,715,359,26
01:57:13.524,,728,387,30
01:57:13.561,,720,340,-4
01:57:13.598,,835,277,-32
01:57:13.636,,1071,307,-23
01:57:13.673,,1134,321,19
01:57:13.710,,902,334,49
01:57:13.747,,931,360,47
01:57:13.784,,1031,407,70
01:57:13.821,,1010,471,167
01:57:13.858,,936,539,302
01:57:13.895,,919,546,330
01:57:13.932,,1045,474,212
01:57:13.969,,986,264,110
01:57:14.006,,737,77,128
01:57:14.043,,637,130,137
01:57:14.080,,575,278,127
01:57:14.117,,577,472,158
01:57:14.154,,654,556,221
01:57:14.191,,753,489,227
01:57:14.228,,933,430,219
01:57:14.265,,1092,349,147
01:57:14.302,,1275,359,105
01:57:14.340,,1182,478,173
01:57:14.377,,1110,596,257
01:57:14.414,,1063,602,218
01:57:14.451,,987,463,104
01:57:14.488,,1054,354,64
01:57:14.525,,988,253,72
01:57:14.562,,817,266,67
01:57:14.599,,685,314,79
01:57:14.636,,677,370,103
01:57:14.673,,737,377,82
01:57:14.710,,822,330,58
01:57:14.747,,979,270,39
01:57:14.784,,1100,222,5
01:57:14.821,,1142,144,-26
01:57:14.858,,1110,254,-3
01:57:14.895,,977,417,124
01:57:14.932,,777,525,248
01:57:14.969,,804,502,266
01:57:15.006,,916,348,144
01:57:15.044,,880,187,46
01:57:15.081,,788,144,108
01:57:15.118,,730,272,166
01:57:15.155,,726,422,128
01:57:15.192,,755,544,134
01:57:15.229,,798,588,197
01:57:15.266,,896,594,237
01:57:15.303,,1037,622,252
01:57:15.340,,1100,601,213
01:57:15.377,,1183,533,187
01:57:15.414,,1169,447,172
01:57:15.451,,1152,444,143
01:57:15.488,,1181,484,93
01:57:15.525,,1098,472,19
01:57:15.562,,969,322,-77
01:57:15.599,,987,306,-42
01:57:15.636,,933,402,11
01:57:15.674,,935,363,-58
01:57:15.711,,924,285,-69
01:57:15.748,,860,254,-46
01:57:15.785,,862,269,-28
01:57:15.822,,831,275,-28
01:57:15.859,,815,281,-18
01:57:15.896,,831,283,-40
01:57:15.933,,818,263,-39
01:57:15.970,,844,247,-28
01:57:16.007,,863,344,28
01:57:16.044,,1030,500,45
01:57:16.081,,1029,641,152
01:57:16.118,,993,659,216
01:57:16.155,,977,629,190
01:57:16.192,,996,623,243
01:57:16.229,,870,545,259
01:57:16.266,,644,553,233
01:57:16.303,,497,634,207
01:57:16.341,,473,695,161
01:57:16.378,,528,726,122
01:57:16.415,,637,642,126
01:57:16.452,,838,583,116
01:57:16.489,,1012,592,106
01:57:16.526,,1153,643,111
01:57:16.563,,1183,621,116
01:57:16.600,,1226,598,129
01:57:16.637,,1063,478,102
01:57:16.674,,994,416,64
01:57:16.711,,948,385,26
01:57:16.748,,944,388,6
01:57:16.785,,883,368,-5
01:57:16.822,,769,326,-15
01:57:16.859,,690,310,-3
01:57:16.896,,674,311,2
01:57:16.933,,717,311,9
01:57:16.971,,761,299,20
01:57:17.008,,808,266,2
01:57:17.045,,851,240,-14
01:57:17.082,,916,296,14
01:57:17.119,,1047,396,73
01:57:17.156,,1106,452,80
01:57:17.193,,1266,602,194
01:57:17.230,,1114,708,383
01:57:17.267,,939,578,288
01:57:17.304,,964,467,162
01:57:17.341,,968,355,135
01:57:17.378,,837,371,144
01:57:17.415,,663,447,115
01:57:17.452,,529,508,75
01:57:17.489,,530,545,92
01:57:17.526,,575,520,139
01:57:17.563,,752,521,174
01:57:17.601,,997,544,189
01:57:17.638,,1244,530,163
01:57:17.675,,1302,488,168
01:57:17.712,,1235,475,193
01:57:17.749,,1088,460,161
01:57:17.786,,982,421,116
01:57:17.823,,949,390,80
01:57:17.860,,995,398,69
01:57:17.897,,950,372,30
01:57:17.934,,846,314,-9
01:57:17.971,,771,294,6
01:57:18.008,,778,299,6
01:57:18.045,,795,298,-6
01:57:18.082,,862,303,1
01:57:18.119,,895,286,-8
01:57:18.156,,853,257,-9
01:57:18.193,,841,258,0
01:57:18.230,,943,277,0
01:57:18.267,,1099,336,-31
01:57:18.305,,983,475,114
01:57:18.342,,869,578,326
01:57:18.379,,862,598,386
01:57:18.416,,968,526,265
01:57:18.453,,1011,260,149
01:57:18.490,,938,79,194
01:57:18.527,,869,230,227
01:57:18.564,,793,428,203
01:57:18.601,,715,588,249
01:57:18.638,,681,599,299
01:57:18.675,,749,513,298
01:57:18.712,,919,424,224
01:57:18.749,,1048,366,167
01:57:18.786,,961,372,180
01:57:18.823,,1048,465,215
01:57:18.860,,1141,536,199
01:57:18.898,,1186,491,122
01:57:18.935,,1231,428,123
01:57:18.972,,1089,362,113
01:57:19.009,,971,374,57
01:57:19.046,,1013,380,15
01:57:19.083,,1111,354,-27
01:57:19.120,,999,322,-34
01:57:19.157,,835,360,-44
01:57:19.194,,725,440,-93
01:57:19.231,,610,681,-115
01:57:19.268,,513,898,-93
01:57:19.305,,430,784,5
01:57:19.342,,378,533,38
01:57:19.379,,433,410,50
01:57:19.416,,502,411,133
01:57:19.453,,550,410,183
01:57:19.490,,705,374,179
01:57:19.527,,857,299,157
01:57:19.565,,1141,352,178
01:57:19.602,,1432,457,250
01:57:19.639,,1586,600,222
01:57:19.676,,1368,645,78
01:57:19.713,,1005,408,95
01:57:19.750,,813,212,113
01:57:19.787,,764,305,61
01:57:19.824,,678,471,31
01:57:19.861,,615,549,34
01:57:19.898,,540,535,76
01:57:19.935,,669,495,114
01:57:19.972,,897,513,108
01:57:20.009,,1143,621,88
01:57:20.046,,1320,748,142
01:57:20.083,,1283,741,185
01:57:20.120,,1115,575,134
01:57:20.157,,1107,447,17
01:57:20.195,,1150,331,-98
01:57:20.232,,1154,259,-145
01:57:20.269,,1015,281,-69
01:57:20.306,,858,340,-93
01:57:20.343,,727,331,-115
01:57:20.380,,659,315,-61
01:57:20.417,,636,256,-25
01:57:20.454,,612,146,-10
01:57:20.491,,603,127,50
01:57:20.528,,726,181,44
01:57:20.565,,937,282,1
01:57:20.602,,1220,379,-35
01:57:20.639,,1336,458,-42
01:57:20.676,,1422,630,88
01:57:20.713,,1213,782,301
01:57:20.750,,1022,766,249
01:57:20.787,,933,554,110
01:57:20.825,,965,271,48
01:57:20.862,,885,105,71
01:57:20.899,,746,172,91
01:57:20.936,,614,353,75
01:57:20.973,,546,511,81
01:57:21.010,,486,546,112
01:57:21.047,,549,503,160
01:57:21.084,,749,470,144
01:57:21.121,,989,482,134
01:57:21.158,,1281,547,145
01:57:21.195,,1413,559,86
01:57:21.232,,1270,469,7
01:57:21.269,,1095,329,-13
01:57:21.306,,1094,275,-69
01:57:21.343,,998,252,-133
01:57:21.380,,963,211,-75
01:57:21.417,,794,170,-123
01:57:21.454,,702,220,-92
01:57:21.491,,771,257,21
01:57:21.529,,778,173,33
01:57:21.566,,798,116,46
01:57:21.603,,894,134,80
01:57:21.640,,998,171,36
01:57:21.677,,1099,261,-42
01:57:21.714,,1095,327,-62
01:57:21.751,,1087,384,-56
01:57:21.788,,1087,469,-30
01:57:21.825,,1066,565,-6
01:57:21.862,,1000,753,201
01:57:21.899,,923,741,218
01:57:21.936,,875,526,53
01:57:21.973,,975,206,-54
01:57:22.010,,898,52,-38
01:57:22.047,,728,134,11
01:57:22.084,,657,347,69
01:57:22.121,,614,514,140
01:57:22.158,,569,502,170
01:57:22.195,,581,433,232
01:57:22.233,,731,345,272
01:57:22.270,,997,286,247
01:57:22.307,,1184,268,165
01:57:22.344,,1296,370,116
01:57:22.381,,1323,506,104
01:57:22.418,,1208,607,102
01:57:22.455,,927,516,22
01:57:22.492,,951,403,-113
01:57:22.529,,988,255,-184
01:57:22.566,,948,180,-120
01:57:22.603,,818,103,-162
01:57:22.640,,713,138,-155
01:57:22.677,,695,201,-115
01:57:22.714,,744,201,-100
01:57:22.751,,836,171,-79
01:57:22.788,,865,211,-18
01:57:22.825,,942,297,39
01:57:22.862,,1101,329,13
01:57:22.900,,1123,319,18
01:57:22.937,,1005,312,107
01:57:22.974,,1014,360,123
01:57:23.011,,1041,395,106
01:57:23.048,,1197,461,66
01:57:23.085,,918,431,99
01:57:23.122,,784,423,105
01:57:23.159,,879,360,-81
01:57:23.196,,877,160,-53
01:57:23.233,,677,168,20
01:57:23.270,,580,301,53
01:57:23.307,,561,439,85
01:57:23.344,,649,506,140
01:57:23.381,,808,517,196
01:57:23.418,,1006,377,139
01:57:23.455,,1210,218,51
01:57:23.492,,1122,172,66
01:57:23.529,,1271,363,132
01:57:23.566,,1174,551,127
01:57:23.603,,1155,629,107
01:57:23.641,,1106,489,48
01:57:23.678,,1112,317,-16
01:57:23.715,,1183,225,-38
01:57:23.752,,1039,179,-42
01:57:23.789,,849,246,-29
01:57:23.826,,713,291,6
01:57:23.863,,626,317,37
01:57:23.900,,671,321,40
01:57:23.937,,730,283,55
01:57:23.974,,838,253,74
01:57:24.011,,923,184,52
01:57:24.048,,960,118,5
01:57:24.085,,1008,178,26
01:57:24.122,,1081,327,33
01:57:24.159,,1204,478,33
01:57:24.196,,1251,641,132
01:57:24.233,,1110,635,202
01:57:24.270,,989,520,182
01:57:24.307,,950,291,108
01:57:24.345,,795,207,66
01:57:24.382,,731,274,74
01:57:24.419,,667,361,63
01:57:24.456,,642,457,70
01:57:24.493,,577,478,139
01:57:24.530,,654,489,230
01:57:24.567,,935,572,277
01:57:24.604,,1197,658,276
01:57:24.641,,1407,677,218
01:57:24.678,,1312,547,229
01:57:24.715,,1309,418,227
01:57:24.752,,1297,322,158
01:57:24.789,,1262,284,16
01:57:24.826,,1366,294,3
01:57:24.863,,1194,278,47
01:57:24.900,,915,289,31
01:57:24.937,,798,316,-11
01:57:24.975,,666,307,-51
01:57:25.012,,644,296,-44
01:57:25.049,,619,222,-20
01:57:25.086,,658,183,6
01:57:25.123,,753,172,18
01:57:25.160,,856,187,35
01:57:25.197,,966,201,43
01:57:25.234,,1065,248,7
01:57:25.271,,1362,396,-36
01:57:25.308,,1531,664,136
01:57:25.345,,1554,910,323
01:57:25.382,,1200,861,225
01:57:25.419,,951,466,155
01:57:25.456,,821,16,151
01:57:25.493,,820,48,99
01:57:25.530,,763,271,22
01:57:25.567,,637,536,0
01:57:25.604,,546,670,119
01:57:25.642,,617,686,255
01:57:25.679,,922,652,265
01:57:25.716,,1080,564,158
01:57:25.753,,1191,508,165
01:57:25.790,,1305,478,218
01:57:25.827,,1353,476,166
01:57:25.864,,1283,422,155
01:57:25.901,,1304,301,79
01:57:25.938,,1249,263,5
01:57:25.975,,1096,247,-19
01:57:26.012,,879,276,-3
01:57:26.049,,707,332,-9
01:57:26.086,,599,348,-22
01:57:26.123,,628,329,-42
01:57:26.160,,613,266,-41
01:57:26.197,,653,218,-21
01:57:26.234,,794,235,16
01:57:26.271,,881,297,32
01:57:26.308,,903,369,76
01:57:26.346,,984,560,115
01:57:26.383,,1004,871,85
01:57:26.420,,942,1201,154
01:57:26.457,,788,1250,319
01:57:26.494,,708,1064,406
01:57:26.531,,703,919,393
01:57:26.568,,641,841,392
01:57:26.605,,400,477,505
01:57:26.642,,245,488,379
01:57:26.679,,146,840,83
01:57:26.716,,133,870,-18
01:57:26.753,,167,868,34
01:57:26.790,,206,918,-2
01:57:26.827,,272,1038,-36
01:57:26.864,,344,1111,-33
01:57:26.901,,444,1150,-8
01:57:26.938,,488,1059,-22
01:57:26.975,,587,1158,32
01:57:27.013,,727,1273,45
01:57:27.050,,680,873,-3
01:57:27.087,,591,673,155
01:57:27.124,,488,697,212
01:57:27.161,,528,501,242
01:57:27.198,,682,185,482
01:57:27.235,,379,685,358
01:57:27.272,,51,1168,109
01:57:27.309,,-8,883,201
01:57:27.346,,38,885,443
01:57:27.383,,140,1224,346
01:57:27.420,,202,988,150
01:57:27.457,,307,823,253
01:57:27.494,,463,859,447
01:57:27.531,,539,728,653
01:57:27.568,,383,1063,531
01:57:27.605,,266,1306,178
01:57:27.642,,229,885,230
01:57:27.680,,92,752,337
01:57:27.717,,-53,748,144
01:57:27.754,,-122,500,41
01:57:27.791,,-2,527,-70
01:57:27.828,,189,545,153
01:57:27.865,,360,498,404
01:57:27.902,,538,202,678
01:57:27.939,,253,1689,749
01:57:27.976,,208,1594,636
01:57:28.013,,175,1235,387
01:57:28.050,,275,1386,252
01:57:28.087,,382,1210,90
01:57:28.124,,412,1159,188
01:57:28.161,,329,961,122
01:57:28.198,,276,814,123
01:57:28.235,,256,673,107
01:57:28.272,,320,536,225
01:57:28.309,,348,501,358
01:57:28.347,,251,397,425
01:57:28.384,,248,357,507
01:57:28.421,,293,664,542
01:57:28.458,,303,965,478
01:57:28.495,,291,1032,259
01:57:28.532,,408,1051,126
01:57:28.569,,454,1018,186
01:57:28.606,,332,1225,153
01:57:28.643,,263,1499,326
01:57:28.680,,330,1148,453
01:57:28.717,,453,851,335
01:57:28.754,,438,696,-24
01:57:28.791,,524,592,29
01:57:28.828,,511,550,332
01:57:28.865,,309,556,316
01:57:28.902,,199,694,311
01:57:28.939,,138,789,353
01:57:28.976,,28,924,370
01:57:29.014,,25,1001,383
01:57:29.051,,45,1115,399
01:57:29.088,,119,1176,247
01:57:29.125,,535,973,272
01:57:29.162,,721,1021,520
01:57:29.199,,496,1111,488
01:57:29.236,,221,1059,264
01:57:29.273,,162,896,168
01:57:29.310,,217,815,199
01:57:29.347,,249,907,199
01:57:29.384,,219,968,203
01:57:29.421,,220,779,223
01:57:29.458,,164,593,283
01:57:29.495,,190,594,382
01:57:29.532,,180,642,363
01:57:29.569,,183,793,295
01:57:29.606,,335,1004,261
01:57:29.644,,421,981,415
01:57:29.681,,362,799,423
01:57:29.718,,159,989,241
01:57:29.755,,211,1333,262
01:57:29.792,,369,1457,543
01:57:29.829,,444,897,468
01:57:29.866,,556,482,374
01:57:29.903,,485,446,273
01:57:29.940,,377,481,206
01:57:29.977,,192,657,201
01:57:30.014,,66,679,210
01:57:30.051,,-4,739,223
01:57:30.088,,-3,929,249
01:57:30.125,,35,1005,371
01:57:30.162,,231,970,602
01:57:30.199,,265,992,618
01:57:30.236,,206,1184,492
01:57:30.274,,221,1437,350
01:57:30.311,,285,1421,71
01:57:30.348,,358,1154,65
01:57:30.385,,404,877,160
01:57:30.422,,337,704,188
01:57:30.459,,330,777,235
01:57:30.496,,372,809,270
01:57:30.533,,371,710,305
01:57:30.570,,311,569,330
01:57:30.607,,238,562,378
01:57:30.644,,153,584,364
01:57:30.681,,148,791,378
01:57:30.718,,205,940,395
01:57:30.755,,297,879,314
01:57:30.792,,393,827,348
01:57:30.829,,413,1022,416
01:57:30.866,,314,1171,283
01:57:30.904,,167,1444,278
01:57:30.941,,228,1350,357
01:57:30.978,,354,905,322
01:57:31.015,,422,584,187
01:57:31.052,,370,539,72
01:57:31.089,,275,545,116
01:57:31.126,,173,621,223
01:57:31.163,,21,772,228
01:57:31.200,,-36,826,227
01:57:31.237,,-13,891,315
01:57:31.274,,48,959,354
01:57:31.311,,105,1201,415
01:57:31.348,,299,1087,521
01:57:31.385,,425,1147,553
01:57:31.422,,384,1458,235
01:57:31.459,,267,1337,29
01:57:31.497,,323,1000,115
01:57:31.534,,341,838,203
01:57:31.571,,260,826,172
01:57:31.608,,261,786,168
01:57:31.645,,293,724,174
01:57:31.682,,275,606,204
01:57:31.719,,217,623,253
01:57:31.756,,144,738,261
01:57:31.793,,107,891,269
01:57:31.830,,171,874,312
01:57:31.867,,322,788,386
01:57:31.904,,495,978,415
01:57:31.941,,552,677,523
01:57:31.978,,491,972,461
01:57:32.015,,341,892,474
01:57:32.052,,208,1280,335
01:57:32.089,,178,1311,343
01:57:32.127,,327,900,396
01:57:32.164,,567,404,754
01:57:32.201,,114,871,262
01:57:32.238,,99,547,68
01:57:32.275,,78,538,263
01:57:32.312,,131,620,447
01:57:32.349,,-50,572,357
01:57:32.386,,-228,748,233
01:57:32.423,,-182,1174,300
01:57:32.460,,61,1498,609
01:57:32.497,,199,1514,677
01:57:32.534,,447,1098,454
01:57:32.571,,746,908,621
01:57:32.608,,442,520,345
01:57:32.645,,293,992,258
01:57:32.682,,358,921,479
01:57:32.719,,149,729,364
01:57:32.757,,129,671,299
01:57:32.794,,149,544,323
01:57:32.831,,182,556,313
01:57:32.868,,168,719,267
01:57:32.905,,59,927,148
01:57:32.942,,223,974,267
01:57:32.979,,465,774,643
01:57:33.016,,536,641,787
01:57:33.053,,206,1171,512
01:57:33.090,,56,1512,431
01:57:33.127,,185,1350,543
01:57:33.164,,314,840,406
01:57:33.201,,506,530,290
01:57:33.238,,638,303,279
01:57:33.275,,524,331,321
01:57:33.312,,216,688,293
01:57:33.349,,139,759,409
01:57:33.387,,-11,715,440
01:57:33.424,,-200,890,296
01:57:33.461,,-203,999,253
01:57:33.498,,284,995,851
01:57:33.535,,299,910,801
01:57:33.572,,231,1147,297
01:57:33.609,,228,1064,67
01:57:33.646,,339,1447,336
01:57:33.683,,488,1193,518
01:57:33.720,,463,910,569
01:57:33.757,,346,690,364
01:57:33.794,,318,648,292
01:57:33.831,,331,592,284
01:57:33.868,,368,553,373
01:57:33.905,,305,512,425
01:57:33.942,,298,664,431
01:57:33.979,,245,994,258
01:57:34.017,,356,907,333
01:57:34.054,,267,710,358
01:57:34.091,,199,1086,314
01:57:34.128,,182,1447,491
01:57:34.165,,234,1348,721
01:57:34.202,,427,755,729
01:57:34.239,,543,482,472
01:57:34.276,,585,502,253
01:57:34.313,,544,662,274
01:57:34.350,,405,575,344
01:57:34.387,,218,600,312
01:57:34.424,,140,702,412
01:57:34.461,,87,720,444
01:57:34.498,,12,901,422
01:57:34.535,,-80,1157,297
01:57:34.572,,35,962,384
01:57:34.609,,147,1260,667
01:57:34.647,,346,1303,716
01:57:34.684,,241,1278,278
01:57:34.721,,450,1189,421
01:57:34.758,,452,802,286
01:57:34.795,,281,821,29
01:57:34.832,,214,957,15
01:57:34.869,,219,770,110
01:57:34.906,,171,662,144
01:57:34.943,,131,601,193
01:57:34.980,,255,573,468
01:57:35.017,,437,631,713
01:57:35.054,,469,620,747
01:57:35.091,,411,718,539
01:57:35.128,,415,875,355
01:57:35.165,,461,826,398
01:57:35.202,,214,1185,374
01:57:35.239,,-35,1630,393
01:57:35.276,,46,1152,443
01:57:35.314,,157,713,334
01:57:35.351,,211,669,125
01:57:35.388,,328,851,244
01:57:35.425,,508,349,404
01:57:35.462,,511,244,559
01:57:35.499,,301,432,561
01:57:35.536,,129,666,511
01:57:35.573,,29,815,415
01:57:35.610,,-123,1063,206
01:57:35.647,,-71,1176,214
01:57:35.684,,-23,1308,447
01:57:35.721,,315,1488,663
01:57:35.758,,465,1315,571
01:57:35.795,,546,1110,428
01:57:35.832,,433,1019,333
01:57:35.869,,420,977,188
01:57:35.906,,182,1116,-111
01:57:35.943,,72,1029,-254
01:57:35.981,,22,899,-239
01:57:36.018,,9,767,-160
01:57:36.055,,-23,677,-26
01:57:36.092,,-122,688,67
01:57:36.129,,-210,601,128
01:57:36.166,,-302,751,217
01:57:36.203,,-307,776,355
01:57:36.240,,-306,922,408
01:57:36.277,,-278,796,501
01:57:36.314,,-254,868,556
01:57:36.351,,-357,1093,563
01:57:36.388,,-234,1092,530
01:57:36.425,,-166,952,508
01:57:36.462,,-149,848,474
01:57:36.499,,-158,740,417
01:57:36.536,,-185,606,391
01:57:36.573,,-227,612,443
01:57:36.611,,-288,593,449
01:57:36.648,,-352,633,468
01:57:36.685,,-345,621,520
01:57:36.722,,-367,611,545
01:57:36.759,,-400,776,603
01:57:36.796,,-401,844,626
01:57:36.833,,-436,955,620
01:57:36.870,,-374,972,574
01:57:36.907,,-366,1024,532
01:57:36.944,,-311,1092,517
01:57:36.981,,-237,949,434
01:57:37.018,,-223,819,350
01:57:37.055,,-262,858,320
01:57:37.092,,-225,784,289
01:57:37.129,,-183,656,303
01:57:37.166,,-186,665,357
01:57:37.203,,-211,698,396
01:57:37.240,,-239,749,437
01:57:37.278,,-245,774,460
01:57:37.315,,-267,776,471
01:57:37.352,,-310,870,497
01:57:37.389,,-270,889,505
01:57:37.426,,-272,963,524
01:57:37.463,,-220,1041,510
01:57:37.500,,-186,1087,487
01:57:37.537,,-71,1138,475
01:57:37.574,,36,902,390
01:57:37.611,,42,810,307
01:57:37.648,,-23,846,327
01:57:37.685,,-66,878,381
01:57:37.722,,-128,828,413
01:57:37.759,,-207,790,446
01:57:37.796,,-279,809,405
01:57:37.833,,-303,739,378
01:57:37.870,,-350,689,403
01:57:37.907,,-380,676,465
01:57:37.945,,-406,690,487
01:57:37.982,,-428,804,514
01:57:38.019,,-487,934,597
01:57:38.056,,-384,1077,610
01:57:38.093,,-332,1292,583
01:57:38.130,,-159,995,551
01:57:38.167,,-89,758,574
01:57:38.204,,-62,756,623
01:57:38.241,,-55,703,577
01:57:38.278,,-50,519,509
01:57:38.315,,-59,412,471
01:57:38.352,,-126,533,448
01:57:38.389,,-195,624,401
01:57:38.426,,-350,743,410
01:57:38.463,,-490,861,421
01:57:38.500,,-560,865,442
01:57:38.537,,-576,888,451
01:57:38.575,,-607,980,491
01:57:38.612,,-570,1059,458
01:57:38.649,,-533,1070,344
01:57:38.686,,-452,1071,310
01:57:38.723,,-315,1025,310
01:57:38.760,,-203,941,313
01:57:38.797,,-201,877,337
01:57:38.834,,-221,811,324
01:57:38.871,,-202,710,316
01:57:38.908,,-288,651,320
01:57:38.945,,-390,685,278
01:57:38.982,,-444,807,238
01:57:39.019,,-656,999,-166
01:57:39.056,,-356,906,240
01:57:39.093,,-316,756,620
01:57:39.130,,-495,1067,602
01:57:39.168,,-370,947,171
01:57:39.205,,-408,919,170
01:57:39.242,,-460,756,140
01:57:39.279,,-543,786,120
01:57:39.316,,-465,764,120
01:57:39.353,,-432,767,162
01:57:39.390,,-432,701,215
01:57:39.427,,-426,706,247
01:57:39.464,,-438,755,293
01:57:39.501,,-464,726,312
01:57:39.538,,-504,760,315
01:57:39.575,,-595,803,271
01:57:39.612,,-589,862,272
01:57:39.649,,-487,893,350
01:57:39.686,,-456,1026,436
01:57:39.723,,-356,1052,358
01:57:39.760,,-333,1168,233
01:57:39.798,,-242,1088,163
01:57:39.835,,-233,928,196
01:57:39.872,,-280,817,175
01:57:39.909,,-300,694,163
01:57:39.946,,-310,697,239
01:57:39.983,,-345,692,263
01:57:40.020,,-351,724,231
01:57:40.057,,-361,700,242
01:57:40.094,,-354,705,287
01:57:40.131,,-483,911,298
01:57:40.168,,-479,1016,370
01:57:40.205,,-452,1012,505
01:57:40.242,,-485,1138,544
01:57:40.279,,-458,1218,400
01:57:40.316,,-438,1270,332
01:57:40.353,,-280,982,292
01:57:40.390,,-264,766,332
01:57:40.428,,-266,737,357
01:57:40.465,,-263,678,434
01:57:40.502,,-253,589,466
01:57:40.539,,-253,577,482
01:57:40.576,,-261,535,500
01:57:40.613,,-280,519,517
01:57:40.650,,-323,578,558
01:57:40.687,,-343,698,603
01:57:40.724,,-377,821,670
01:57:40.761,,-320,866,708
01:57:40.798,,-328,980,754
01:57:40.835,,-297,888,683
01:57:40.872,,-246,963,692
01:57:40.909,,-161,853,664
01:57:40.946,,-99,756,623
01:57:40.983,,-67,743,593
01:57:41.020,,-65,541,476
01:57:41.058,,-129,512,429
01:57:41.095,,-210,524,423
01:57:41.132,,-270,486,439
01:57:41.169,,-381,656,466
01:57:41.206,,-471,641,503
01:57:41.243,,-606,712,564
01:57:41.280,,-675,822,613
01:57:41.317,,-735,919,614
01:57:41.354,,-651,1211,676
01:57:41.391,,-471,1202,582
01:57:41.428,,-412,1023,460
01:57:41.465,,-368,853,400
01:57:41.502,,-311,757,367
01:57:41.539,,-352,805,373
01:57:41.576,,-297,768,390
01:57:41.613,,-273,666,378
01:57:41.650,,-253,569,368
01:57:41.688,,-255,545,395
01:57:41.725,,-308,554,427
01:57:41.762,,-344,600,503
01:57:41.799,,-411,729,592
01:57:41.836,,-358,778,628
01:57:41.873,,-442,918,672
01:57:41.910,,-420,865,655
01:57:41.947,,-433,979,672
01:57:41.984,,-352,916,639
01:57:42.021,,-304,831,590
01:57:42.058,,-303,714,557
01:57:42.095,,-254,584,545
01:57:42.132,,-237,554,522
01:57:42.169,,-311,552,488
01:57:42.206,,-371,531,484
01:57:42.243,,-389,549,525
01:57:42.280,,-392,526,566
01:57:42.318,,-485,611,581
01:57:42.355,,-550,756,655
01:57:42.392,,-490,767,680
01:57:42.429,,-499,748,618
01:57:42.466,,-571,882,635
01:57:42.503,,-546,846,580
01:57:42.540,,-498,927,568
01:57:42.577,,-460,921,525
01:57:42.614,,-388,790,439
01:57:42.651,,-416,775,362
01:57:42.688,,-412,715,380
01:57:42.725,,-354,603,417
01:57:42.762,,-366,576,440
01:57:42.799,,-394,568,455
01:57:42.836,,-418,615,494
01:57:42.873,,-404,622,524
01:57:42.911,,-445,615,537
01:57:42.948,,-519,643,557
01:57:42.985,,-560,693,609
01:57:43.022,,-540,684,668
01:57:43.059,,-536,776,742
01:57:43.096,,-543,867,733
01:57:43.133,,-394,832,677
01:57:43.170,,-288,803,591
01:57:43.207,,-250,741,526
01:57:43.244,,-209,678,536
01:57:43.281,,-217,582,538
01:57:43.318,,-260,572,529
01:57:43.355,,-298,526,514
01:57:43.392,,-357,459,463
01:57:43.429,,-430,473,465
01:57:43.466,,-467,541,503
01:57:43.503,,-581,690,464
01:57:43.541,,-659,867,468
01:57:43.578,,-679,942,320
01:57:43.615,,-755,1103,200
01:57:43.652,,-673,1166,50
01:57:43.689,,-594,1247,-91
01:57:43.726,,-424,1001,-87
01:57:43.763,,-369,851,-143
01:57:43.800,,-419,805,-221
01:57:43.837,,-401,821,-228
01:57:43.874,,-326,707,-145
01:57:43.911,,-280,716,-56
01:57:43.948,,-285,774,-7
01:57:43.985,,-324,701,-2
01:57:44.022,,-364,766,-38
01:57:44.059,,-390,877,-61
01:57:44.096,,-401,949,-83
01:57:44.134,,-421,951,-98
01:57:44.171,,-457,1085,-153
01:57:44.208,,-493,1196,-215
01:57:44.245,,-342,1179,-191
01:57:44.282,,-286,1042,-144
01:57:44.319,,-300,929,-122
01:57:44.356,,-264,832,-115
01:57:44.393,,-240,645,-51
01:57:44.430,,-268,737,13
01:57:44.467,,-342,697,-61
01:57:44.504,,-406,701,-68
01:57:44.541,,-448,758,-47
01:57:44.578,,-494,754,19
01:57:44.615,,-564,874,-62
01:57:44.652,,-580,951,-74
01:57:44.689,,-598,1155,-173
01:57:44.726,,-556,1075,-239
01:57:44.763,,-428,1097,-241
01:57:44.801,,-433,1103,-259
01:57:44.838,,-410,846,-296
01:57:44.875,,-414,803,-259
01:57:44.912,,-387,737,-168
01:57:44.949,,-326,557,-72
01:57:44.986,,-332,686,24
01:57:45.023,,-370,693,-8
01:57:45.060,,-442,762,-72
01:57:45.097,,-497,795,-39
01:57:45.134,,-509,874,-15
01:57:45.171,,-522,879,-52
01:57:45.208,,-531,976,50
01:57:45.245,,-543,1103,19
01:57:45.282,,-597,1001,-131
01:57:45.319,,-499,1061,-79
01:57:45.356,,-393,985,-64
01:57:45.393,,-342,928,-85
01:57:45.430,,-350,781,-76
01:57:45.468,,-357,656,-96
01:57:45.505,,-416,694,-110
01:57:45.542,,-491,708,-134
01:57:45.579,,-517,687,-103
01:57:45.616,,-507,749,-51
01:57:45.653,,-517,784,-30
01:57:45.690,,-531,825,-20
01:57:45.727,,-527,855,-72
01:57:45.764,,-661,993,-152
01:57:45.801,,-643,1046,-210
01:57:45.838,,-587,1090,-262
01:57:45.875,,-501,902,-188
01:57:45.912,,-450,873,-203
01:57:45.949,,-508,831,-357
01:57:45.986,,-489,729,-285
01:57:46.023,,-393,751,-185
01:57:46.060,,-357,668,-153
01:57:46.097,,-316,639,20
01:57:46.135,,-338,778,-85
01:57:46.172,,-447,760,-71
01:57:46.209,,-473,829,-98
01:57:46.246,,-577,904,-117
01:57:46.283,,-556,883,-98
01:57:46.320,,-590,948,-76
01:57:46.357,,-595,1061,-39
01:57:46.394,,-579,1053,-60
01:57:46.431,,-440,1014,-58
01:57:46.468,,-327,926,-45
01:57:46.505,,-280,878,-71
01:57:46.542,,-315,852,-53
01:57:46.579,,-290,706,15
01:57:46.616,,-329,726,59
01:57:46.653,,-412,729,29
01:57:46.690,,-452,740,11
01:57:46.728,,-459,798,50
01:57:46.765,,-427,775,134
01:57:46.802,,-459,869,124
01:57:46.839,,-524,1008,61
01:57:46.876,,-602,1049,4
01:57:46.913,,-615,1118,-96
01:57:46.950,,-597,1121,-152
01:57:46.987,,-460,1128,-190
01:57:47.024,,-358,1019,-177
01:57:47.061,,-349,801,-303
01:57:47.098,,-336,866,-391
01:57:47.135,,-291,906,-307
01:57:47.172,,-291,727,-192
01:57:47.209,,-280,711,15
01:57:47.246,,-305,702,51
01:57:47.283,,-385,713,34
01:57:47.320,,-395,723,75
01:57:47.357,,-395,885,7
01:57:47.395,,-398,852,-155
01:57:47.432,,-417,900,-88
01:57:47.469,,-465,961,-127
01:57:47.506,,-504,1060,-132
01:57:47.543,,-523,1061,-224
01:57:47.580,,-485,1140,-286
01:57:47.617,,-326,1102,-255
01:57:47.654,,-231,958,-230
01:57:47.691,,-255,800,-214
01:57:47.728,,-281,639,-164
01:57:47.765,,-348,674,-118
01:57:47.802,,-433,652,-152
01:57:47.839,,-505,654,-183
01:57:47.876,,-504,729,-154
01:57:47.913,,-527,764,-117
01:57:47.950,,-570,871,-151
01:57:47.987,,-576,959,-215
01:57:48.024,,-582,948,-199
01:57:48.062,,-584,976,-263
01:57:48.099,,-670,991,-337
01:57:48.136,,-570,1026,-363
01:57:48.173,,-491,925,-379
01:57:48.210,,-452,783,-410
01:57:48.247,,-436,713,-414
01:57:48.284,,-387,671,-337
01:57:48.321,,-373,634,-243
01:57:48.358,,-393,659,-177
01:57:48.395,,-400,684,-139
01:57:48.432,,-434,700,-127
01:57:48.469,,-470,738,-128
01:57:48.506,,-501,781,-120
01:57:48.543,,-544,776,-169
01:57:48.580,,-540,801,-167
01:57:48.617,,-559,908,-163
01:57:48.655,,-576,1088,-255
01:57:48.692,,-567,987,-296
01:57:48.729,,-487,1043,-331
01:57:48.766,,-435,1016,-341
01:57:48.803,,-339,923,-338
01:57:48.840,,-299,758,-322
01:57:48.877,,-290,670,-278
01:57:48.914,,-339,709,-200
01:57:48.951,,-387,616,-176
01:57:48.988,,-435,583,-200
01:57:49.025,,-477,652,-195
01:57:49.062,,-504,724,-162
01:57:49.099,,-575,819,-217
01:57:49.136,,-629,919,-305
01:57:49.173,,-650,948,-361
01:57:49.210,,-670,1015,-432
01:57:49.247,,-588,977,-465
01:57:49.285,,-465,996,-450
01:57:49.322,,-406,938,-434
01:57:49.359,,-369,798,-411
01:57:49.396,,-386,750,-463
01:57:49.433,,-372,735,-434
01:57:49.470,,-336,700,-274
01:57:49.507,,-365,640,-199
01:57:49.544,,-392,596,-193
01:57:49.581,,-423,663,-171
01:57:49.618,,-400,775,-160
01:57:49.655,,-399,794,-157
01:57:49.692,,-388,769,-169
01:57:49.729,,-327,729,-120
01:57:49.766,,-161,855,24
01:57:49.803,,-12,744,59
01:57:49.840,,146,555,-27
01:57:49.878,,360,608,-62
01:57:49.915,,629,631,25
01:57:49.952,,1056,529,19
01:57:49.989,,1628,577,-112
01:57:50.026,,1932,714,-156
01:57:50.063,,1597,904,-68
01:57:50.100,,1051,913,-51
01:57:50.137,,823,713,-17
01:57:50.174,,857,512,19
01:57:50.211,,846,468,88
01:57:50.248,,882,561,154
01:57:50.285,,934,676,158
01:57:50.322,,974,754,211
01:57:50.359,,1152,810,281
01:57:50.396,,1107,727,282
01:57:50.433,,1232,676,280
01:57:50.471,,1261,550,202
01:57:50.508,,1249,454,91
01:57:50.545,,1279,406,58
01:57:50.582,,1241,358,34
01:57:50.619,,1006,316,9
01:57:50.656,,876,318,24
01:57:50.693,,772,319,25
01:57:50.730,,708,307,26
01:57:50.767,,692,277,31
01:57:50.804,,716,242,43
01:57:50.841,,807,227,59
01:57:50.878,,817,199,72
01:57:50.915,,911,184,78
01:57:50.952,,895,222,101
01:57:50.989,,1002,368,129
01:57:51.026,,1080,518,231
01:57:51.063,,1173,586,345
01:57:51.101,,1280,517,285
01:57:51.138,,1222,384,134
01:57:51.175,,1062,297,129
01:57:51.212,,945,327,202
01:57:51.249,,830,466,166
01:57:51.286,,729,651,137
01:57:51.323,,625,727,181
01:57:51.360,,763,905,232
01:57:51.397,,948,957,189
01:57:51.434,,1056,1011,182
01:57:51.471,,1162,1068,160
01:57:51.508,,1146,994,94
01:57:51.545,,1189,1034,86
01:57:51.582,,1376,1082,-28
01:57:51.619,,1579,1115,-177
01:57:51.656,,1610,1544,-298
01:57:51.693,,1613,1529,-217
01:57:51.731,,1213,863,-76
01:57:51.768,,791,737,24
01:57:51.805,,542,651,179
01:57:51.842,,210,522,323
01:57:51.879,,30,472,391
01:57:51.916,,-128,218,480
01:57:51.953,,-189,164,606
01:57:51.990,,-283,139,618
01:57:52.027,,-452,109,577
01:57:52.064,,-744,286,473
01:57:52.101,,-899,495,434
01:57:52.138,,-957,536,202
01:57:52.175,,-877,531,167
01:57:52.212,,-798,273,206
01:57:52.249,,-798,99,264
01:57:52.286,,-792,68,229
01:57:52.323,,-762,-103,200
01:57:52.361,,-767,-91,178
01:57:52.398,,-725,13,272
01:57:52.435,,-701,27,297
01:57:52.472,,-729,-66,139
01:57:52.509,,-825,-217,161
01:57:52.546,,-889,-367,38
01:57:52.583,,-1296,-504,-99
01:57:52.620,,-1360,-133,-262
01:57:52.657,,-1517,207,-342
01:57:52.694,,-1300,197,-250
01:57:52.731,,-1132,111,-282
01:57:52.768,,-1030,119,-342
01:57:52.805,,-906,211,-272
01:57:52.842,,-766,101,-209
01:57:52.879,,-704,3,-193
01:57:52.916,,-649,-13,-202
01:57:52.954,,-582,-44,-162
01:57:52.991,,-520,227,-226
01:57:53.028,,-550,520,-189
01:57:53.065,,-465,376,-159
01:57:53.102,,-193,656,-88
01:57:53.139,,-95,923,-81
01:57:53.176,,91,1221,114
01:57:53.213,,373,823,388
01:57:53.250,,795,142,350
01:57:53.287,,1505,49,378
01:57:53.324,,1949,358,289
01:57:53.361,,1889,862,214
01:57:53.398,,1346,987,194
01:57:53.435,,740,844,278
01:57:53.472,,745,623,305
01:57:53.509,,755,544,308
01:57:53.546,,697,564,311
01:57:53.584,,831,718,279
01:57:53.621,,965,816,238
01:57:53.658,,1158,893,238
01:57:53.695,,1246,875,241
01:57:53.732,,1245,769,208
01:57:53.769,,1187,645,154
01:57:53.806,,1298,567,85
01:57:53.843,,1456,428,9
01:57:53.880,,1185,247,-22
01:57:53.917,,952,259,22
01:57:53.954,,826,344,55
01:57:53.991,,705,400,45
01:57:54.028,,653,397,42
01:57:54.065,,668,336,58
01:57:54.102,,676,246,52
01:57:54.139,,775,193,105
01:57:54.177,,782,164,184
01:57:54.214,,929,193,211
01:57:54.251,,922,247,195
01:57:54.288,,995,370,224
01:57:54.325,,1088,501,322
01:57:54.362,,1208,632,443
01:57:54.399,,1332,714,530
01:57:54.436,,1136,609,452
01:57:54.473,,919,412,438
01:57:54.510,,830,259,417
01:57:54.547,,754,333,350
01:57:54.584,,718,491,311
01:57:54.621,,678,617,315
01:57:54.658,,751,731,324
01:57:54.695,,916,759,304
01:57:54.732,,1018,667,288
01:57:54.769,,1265,613,253
01:57:54.807,,1217,502,218
01:57:54.844,,1304,510,194
01:57:54.881,,1234,496,202
01:57:54.918,,1316,462,111
01:57:54.955,,1220,398,54
01:57:54.992,,1175,370,90
01:57:55.029,,962,316,102
01:57:55.066,,761,298,103
01:57:55.103,,641,291,119
01:57:55.140,,627,295,144
01:57:55.177,,579,249,158
01:57:55.214,,584,198,187
01:57:55.251,,680,167,224
01:57:55.288,,799,170,272
01:57:55.325,,1012,160,236
01:57:55.362,,1168,215,177
01:57:55.400,,1435,400,187
01:57:55.437,,1617,705,395
01:57:55.474,,977,655,272
01:57:55.511,,903,290,203
01:57:55.548,,825,108,201
01:57:55.585,,794,194,171
01:57:55.622,,687,363,121
01:57:55.659,,566,545,110
01:57:55.696,,549,575,128
01:57:55.733,,688,567,130
01:57:55.770,,918,637,215
01:57:55.807,,1009,789,350
01:57:55.844,,1182,928,374
01:57:55.881,,1142,758,268
01:57:55.918,,1174,461,248
01:57:55.955,,1357,290,271
01:57:55.993,,1434,316,210
01:57:56.030,,1365,342,118
01:57:56.067,,1321,349,145
01:57:56.104,,1182,331,158
01:57:56.141,,929,301,77
01:57:56.178,,769,311,49
01:57:56.215,,738,343,46
01:57:56.252,,710,324,55
01:57:56.289,,693,283,90
01:57:56.326,,713,214,128
01:57:56.363,,736,145,155
01:57:56.400,,877,97,147
01:57:56.437,,912,89,111
01:57:56.474,,990,238,90
01:57:56.511,,1249,484,189
01:57:56.548,,1481,680,293
01:57:56.586,,1506,694,289
01:57:56.623,,1249,546,193
01:57:56.660,,980,424,252
01:57:56.697,,907,303,231
01:57:56.734,,897,333,173
01:57:56.771,,864,452,94
01:57:56.808,,747,591,114
01:57:56.845,,602,738,210
01:57:56.882,,714,876,299
01:57:56.919,,912,976,307
01:57:56.956,,1194,1059,270
01:57:56.993,,1379,740,223
01:57:57.030,,1552,494,272
01:57:57.067,,1572,389,244
01:57:57.104,,1609,424,118
01:57:57.141,,1650,464,17
01:57:57.178,,1613,431,23
01:57:57.216,,1290,317,-8
01:57:57.253,,986,270,-43
01:57:57.290,,780,267,-55
01:57:57.327,,686,299,-55
01:57:57.364,,648,289,-30
01:57:57.401,,618,237,8
01:57:57.438,,609,181,49
01:57:57.475,,600,142,104
01:57:57.512,,671,134,168
01:57:57.549,,812,150,142
01:57:57.586,,989,220,148
01:57:57.623,,1328,398,166
01:57:57.660,,1721,626,289
01:57:57.697,,1970,825,398
01:57:57.734,,1715,916,290
01:57:57.771,,1156,679,223
01:57:57.809,,945,113,292
01:57:57.846,,921,105,232
01:57:57.883,,803,460,149
01:57:57.920,,666,731,126
01:57:57.957,,593,808,149
01:57:57.994,,716,801,196
01:57:58.031,,954,701,233
01:57:58.068,,1156,615,267
01:57:58.105,,1390,480,183
01:57:58.142,,1383,494,70
01:57:58.179,,1457,512,-95
01:57:58.216,,1565,464,-202
01:57:58.253,,1446,486,-230
01:57:58.290,,1374,597,-321
01:57:58.327,,1236,663,-322
01:57:58.364,,1068,737,-282
01:57:58.401,,876,648,-217
01:57:58.439,,529,669,-278
01:57:58.476,,192,976,-359
01:57:58.513,,104,937,-321
01:57:58.550,,7,1010,-243
01:57:58.587,,-148,964,-251
01:57:58.624,,-242,1106,-199
01:57:58.661,,-417,897,-96
01:57:58.698,,-577,827,-28
01:57:58.735,,-637,653,50
01:57:58.772,,-467,671,153
01:57:58.809,,-273,338,180
01:57:58.846,,-240,332,192
01:57:58.883,,-283,385,178
01:57:58.920,,-500,387,90
01:57:58.957,,-800,360,-36
01:57:58.994,,-928,345,-78
01:57:59.031,,-845,201,0
01:57:59.068,,-888,107,68
01:57:59.106,,-915,-31,172
01:57:59.143,,-1028,-184,223
01:57:59.180,,-1069,-177,267
01:57:59.217,,-1104,-167,193
01:57:59.254,,-1250,-270,128
01:57:59.291,,-1244,-20,164
01:57:59.328,,-1234,-79,-1
01:57:59.365,,-1136,-152,-50
01:57:59.402,,-1003,-83,-39
01:57:59.439,,-1041,-82,-66
01:57:59.476,,-948,-23,-8
01:57:59.513,,-893,12,85
01:57:59.550,,-826,-82,105
01:57:59.587,,-798,3,142
01:57:59.624,,-822,-45,122
01:57:59.661,,-885,79,116
01:57:59.698,,-966,208,139
01:57:59.736,,-998,135,191
01:57:59.773,,-1080,81,256
01:57:59.810,,-1270,50,247
01:57:59.847,,-1369,6,200
01:57:59.884,,-1270,184,211
01:57:59.921,,-1100,374,236
01:57:59.958,,-931,543,308
01:57:59.995,,-993,493,317
01:58:00.032,,-1113,168,250
01:58:00.069,,-1304,-370,246
01:58:00.106,,-1307,60,149
01:58:00.143,,-1098,-118,18
01:58:00.180,,-981,-249,-124
01:58:00.217,,-795,-289,-26
01:58:00.254,,-629,-243,140
01:58:00.291,,-496,-230,281
01:58:00.329,,-548,-407,479
01:58:00.366,,-499,-456,697
01:58:00.403,,-614,-576,786
01:58:00.440,,-658,-590,699
01:58:00.477,,-1096,-939,632
01:58:00.514,,-909,-559,554
01:58:00.551,,-822,-505,431
01:58:00.588,,-712,-378,358
01:58:00.625,,-654,-306,401
01:58:00.662,,-556,-239,395
01:58:00.699,,-436,-236,476
01:58:00.736,,-342,-281,463
01:58:00.773,,-379,-430,411
01:58:00.810,,-527,-284,434
01:58:00.847,,-565,-281,472
01:58:00.884,,-554,-534,435
01:58:00.922,,-619,-694,432
01:58:00.959,,-613,-707,398
01:58:00.996,,-611,-1078,184
01:58:01.033,,-656,-1016,410
01:58:01.070,,-625,-883,513
01:58:01.107,,-672,-885,541
01:58:01.144,,-491,-804,786
01:58:01.181,,-562,-612,680
01:58:01.218,,-586,-650,527
01:58:01.255,,-593,-665,336
01:58:01.292,,-754,-545,265
01:58:01.329,,-694,-454,419
01:58:01.366,,-757,-504,487
01:58:01.403,,-664,-647,576
01:58:01.440,,-802,-544,520
01:58:01.477,,-793,-627,454
01:58:01.515,,-784,-667,449
01:58:01.552,,-895,-658,454
01:58:01.589,,-874,-606,454
01:58:01.626,,-987,-512,379
01:58:01.663,,-1086,-376,340
01:58:01.700,,-998,-382,326
01:58:01.737,,-941,-394,297
01:58:01.774,,-909,-364,322
01:58:01.811,,-808,-350,345
01:58:01.848,,-722,-323,326
01:58:01.885,,-733,-314,276
01:58:01.922,,-747,-262,266
01:58:01.959,,-807,-229,285
01:58:01.996,,-869,-186,381
01:58:02.033,,-841,-246,457
01:58:02.070,,-840,-364,471
01:58:02.108,,-918,-435,419
01:58:02.145,,-1024,-442,465
01:58:02.182,,-1018,-448,424
01:58:02.219,,-1164,-358,449
01:58:02.256,,-1116,-21,489
01:58:02.293,,-1007,37,424
01:58:02.330,,-825,-51,412
01:58:02.367,,-751,-71,470
01:58:02.404,,-757,-69,446
01:58:02.441,,-780,-106,368
01:58:02.478,,-751,-152,346
01:58:02.515,,-754,-115,332
01:58:02.552,,-918,-60,510
01:58:02.589,,-1066,-142,446
01:58:02.626,,-1039,-304,365
01:58:02.663,,-1021,-260,370
01:58:02.700,,-1110,-198,231
01:58:02.738,,-1256,-156,130
01:58:02.775,,-1011,-209,188
01:58:02.812,,-976,-109,-1
01:58:02.849,,-780,-189,-39
01:58:02.886,,-550,-170,-157
01:58:02.923,,-594,-43,-417
01:58:02.960,,-644,35,-472
01:58:02.997,,-580,111,-663
01:58:03.034,,-924,144,-744
01:58:03.071,,-893,168,-444
01:58:03.108,,-712,124,-584
01:58:03.145,,-725,125,-817
01:58:03.182,,-593,149,-615
01:58:03.219,,-531,261,-919
01:58:03.256,,-499,91,-1108
01:58:03.293,,-510,194,-991
01:58:03.331,,-509,336,-962
01:58:03.368,,-409,218,-1304
01:58:03.405,,-244,288,-1202
01:58:03.442,,-226,264,-1367
01:58:03.479,,-244,134,-1341
01:58:03.516,,-313,113,-983
01:58:03.553,,-360,6,-679
01:58:03.590,,-334,-36,-399
01:58:03.627,,-293,-49,-426
01:58:03.664,,-307,0,-877
01:58:03.701,,-416,53,-986
01:58:03.738,,-640,259,-1059
01:58:03.775,,-761,311,-1060
01:58:03.812,,-811,381,-959
01:58:03.850,,-754,317,-985
01:58:03.887,,-611,302,-896
01:58:03.924,,-549,258,-839
01:58:03.961,,-487,289,-869
01:58:03.998,,-455,198,-724
01:58:04.035,,-463,218,-688
01:58:04.072,,-422,318,-701
01:58:04.109,,-441,371,-599
01:58:04.146,,-422,409,-500
01:58:04.183,,-477,395,-488
01:58:04.220,,-495,442,-512
01:58:04.257,,-510,467,-521
01:58:04.294,,-523,507,-564
01:58:04.331,,-595,531,-592
01:58:04.368,,-650,586,-633
01:58:04.405,,-688,613,-713
01:58:04.443,,-757,557,-747
01:58:04.480,,-618,468,-849
01:58:04.517,,-535,554,-791
01:58:04.554,,-375,524,-685
01:58:04.591,,-358,480,-642
01:58:04.628,,-436,465,-537
01:58:04.665,,-506,473,-470
01:58:04.702,,-564,440,-510
01:58:04.739,,-600,403,-541
01:58:04.776,,-615,409,-562
01:58:04.813,,-639,417,-552
01:58:04.850,,-690,401,-604
01:58:04.887,,-720,429,-650
01:58:04.924,,-767,452,-669
01:58:04.961,,-765,438,-754
01:58:04.998,,-765,516,-787
01:58:05.036,,-706,501,-805
01:58:05.073,,-639,477,-747
01:58:05.110,,-622,373,-709
01:58:05.147,,-603,340,-682
01:58:05.184,,-590,375,-581
01:58:05.221,,-556,406,-484
01:58:05.258,,-525,442,-399
01:58:05.295,,-530,426,-366
01:58:05.332,,-544,421,-405
01:58:05.369,,-585,441,-485
01:58:05.406,,-602,495,-551
01:58:05.443,,-645,541,-587
01:58:05.480,,-658,509,-697
01:58:05.517,,-742,471,-816
01:58:05.554,,-722,569,-962
01:58:05.591,,-628,672,-858
01:58:05.629,,-531,582,-707
01:58:05.666,,-485,466,-602
01:58:05.703,,-576,406,-517
01:58:05.740,,-638,394,-464
01:58:05.777,,-636,341,-441
01:58:05.814,,-651,260,-454
01:58:05.851,,-703,213,-491
01:58:05.888,,-756,286,-552
01:58:05.925,,-788,337,-641
01:58:05.962,,-889,342,-778
01:58:05.999,,-823,464,-841
01:58:06.036,,-745,529,-916
01:58:06.073,,-696,547,-879
01:58:06.110,,-599,504,-733
01:58:06.147,,-484,335,-632
01:58:06.184,,-431,242,-579
01:58:06.222,,-418,314,-471
01:58:06.259,,-471,372,-482
01:58:06.296,,-553,396,-503
01:58:06.333,,-585,417,-595
01:58:06.370,,-603,470,-664
01:58:06.407,,-639,450,-704
01:58:06.444,,-706,441,-692
01:58:06.481,,-762,439,-712
01:58:06.518,,-774,415,-732
01:58:06.555,,-672,323,-813
01:58:06.592,,-641,377,-818
01:58:06.629,,-546,439,-733
01:58:06.666,,-470,421,-678
01:58:06.703,,-481,363,-635
01:58:06.740,,-580,343,-590
01:58:06.777,,-586,322,-590
01:58:06.814,,-596,281,-623
01:58:06.852,,-580,249,-621
01:58:06.889,,-637,198,-646
01:58:06.926,,-753,269,-680
01:58:06.963,,-745,298,-703
01:58:07.000,,-755,243,-751
01:58:07.037,,-762,254,-756
01:58:07.074,,-788,428,-724
01:58:07.111,,-778,329,-858
01:58:07.148,,-762,129,-756
01:58:07.185,,-799,305,-644
01:58:07.222,,-624,265,-637
01:58:07.259,,-623,372,-601
01:58:07.296,,-525,360,-616
01:58:07.333,,-453,403,-514
01:58:07.370,,-574,21,-617
01:58:07.407,,-763,74,-503
01:58:07.444,,-660,890,-764
01:58:07.481,,-631,20,-730
01:58:07.519,,-684,145,-833
01:58:07.556,,-696,88,-900
01:58:07.593,,-752,87,-878
01:58:07.630,,-739,99,-765
01:58:07.667,,-702,-39,-767
01:58:07.704,,-721,16,-859
01:58:07.741,,-586,120,-844
01:58:07.778,,-538,-97,-794
01:58:07.815,,-567,-80,-679
01:58:07.852,,-596,-20,-651
01:58:07.889,,-690,105,-754
01:58:07.926,,-739,141,-704
01:58:07.963,,-707,103,-673
01:58:08.000,,-654,-27,-620
01:58:08.037,,-688,-68,-588
01:58:08.074,,-708,-31,-617
01:58:08.112,,-680,10,-660
01:58:08.149,,-700,75,-767
01:58:08.186,,-750,140,-731
01:58:08.223,,-679,13,-693
01:58:08.260,,-602,-10,-847
01:58:08.297,,-711,-133,-858
01:58:08.334,,-818,-502,-1006
01:58:08.371,,-672,-231,-703
01:58:08.408,,-597,115,-894
01:58:08.445,,-734,-22,-813
01:58:08.482,,-506,-127,-657
01:58:08.519,,-619,-154,-624
01:58:08.556,,-709,-87,-658
01:58:08.593,,-694,-33,-695
01:58:08.630,,-667,-57,-675
01:58:08.667,,-668,-103,-612
01:58:08.705,,-709,-140,-616
01:58:08.742,,-745,-161,-648
01:58:08.779,,-725,-193,-644
01:58:08.816,,-718,-249,-631
01:58:08.853,,-717,-276,-645
01:58:08.890,,-707,-304,-712
01:58:08.927,,-617,-299,-775
01:58:08.964,,-577,-294,-782
01:58:09.001,,-623,-272,-738
01:58:09.038,,-738,-253,-735
01:58:09.075,,-739,-224,-836
01:58:09.112,,-722,-254,-753
01:58:09.149,,-693,-250,-615
01:58:09.186,,-699,-168,-573
01:58:09.223,,-693,-153,-643
01:58:09.260,,-720,-126,-667
01:58:09.297,,-712,-124,-652
01:58:09.335,,-655,-76,-671
01:58:09.372,,-634,-125,-698
01:58:09.409,,-654,-200,-739
01:58:09.446,,-645,-228,-730
01:58:09.483,,-488,-280,-730
01:58:09.520,,-675,-165,-761
01:58:09.557,,-489,-141,-761
01:58:09.594,,-436,-114,-857
01:58:09.631,,-649,48,-889
01:58:09.668,,-605,70,-812
01:58:09.705,,-331,65,-914
01:58:09.742,,-977,-32,-601
01:58:09.779,,-514,227,-725
01:58:09.816,,-567,140,-527
01:58:09.853,,-620,175,-506
01:58:09.890,,-370,628,-483
01:58:09.928,,-585,849,-446
01:58:09.965,,-370,948,-28
01:58:10.002,,-411,1279,217
01:58:10.039,,-361,1063,444
01:58:10.076,,-307,861,686
01:58:10.113,,-115,566,1014
01:58:10.150,,46,489,1170
01:58:10.187,,27,556,1086
01:58:10.224,,-140,354,966
01:58:10.261,,-227,289,848
01:58:10.298,,-278,313,734
01:58:10.335,,-301,317,706
01:58:10.372,,-339,249,717
01:58:10.409,,-623,177,782
01:58:10.446,,-564,657,718
01:58:10.483,,-171,161,838
01:58:10.520,,-264,112,933
01:58:10.558,,-364,510,978
01:58:10.595,,-320,568,1012
01:58:10.632,,-251,450,1088
01:58:10.669,,-224,311,948
01:58:10.706,,-256,456,840
01:58:10.743,,-251,373,896
01:58:10.780,,-223,226,921
01:58:10.817,,-164,210,887
01:58:10.854,,-104,188,854
01:58:10.891,,-105,86,858
01:58:10.928,,-5,-184,755
01:58:10.965,,-124,603,1048
01:58:11.002,,-237,-7,1021
01:58:11.039,,-220,30,966
01:58:11.076,,-193,71,1060
01:58:11.113,,-211,200,1091
01:58:11.150,,111,-728,1091
01:58:11.188,,141,-395,1218
01:58:11.225,,274,-131,1132
01:58:11.262,,534,-40,997
01:58:11.299,,239,-150,947
01:58:11.336,,31,14,883
01:58:11.373,,-63,-19,861
01:58:11.410,,-101,-102,868
01:58:11.447,,-107,-147,868
01:58:11.484,,-101,-157,912
01:58:11.521,,-104,-224,992
01:58:11.558,,-47,-277,927
01:58:11.595,,8,-95,778
01:58:11.632,,33,469,599
01:58:11.669,,-55,911,618
01:58:11.706,,-41,955,637
01:58:11.743,,-118,978,534
01:58:11.780,,14,826,673
01:58:11.817,,33,733,836
01:58:11.854,,143,764,862
01:58:11.892,,161,506,930
01:58:11.929,,211,380,862
01:58:11.966,,215,277,826
01:58:12.003,,108,308,872
01:58:12.040,,24,437,895
01:58:12.077,,75,548,974
01:58:12.114,,221,472,1081
01:58:12.151,,429,439,1078
01:58:12.188,,513,503,994
01:58:12.225,,424,627,907
01:58:12.262,,331,879,894
01:58:12.299,,271,871,789
01:58:12.336,,283,692,712
01:58:12.373,,316,581,665
01:58:12.410,,310,464,621
01:58:12.447,,223,443,502
01:58:12.484,,143,409,475
01:58:12.521,,142,566,507
01:58:12.559,,248,513,712
01:58:12.596,,309,511,936
01:58:12.633,,284,489,954
01:58:12.670,,279,618,912
01:58:12.707,,278,696,825
01:58:12.744,,306,651,847
01:58:12.781,,360,789,859
01:58:12.818,,358,921,873
01:58:12.855,,362,836,729
01:58:12.892,,295,709,646
01:58:12.929,,177,641,579
01:58:12.966,,136,881,548
01:58:13.003,,165,916,520
01:58:13.040,,242,673,475
01:58:13.077,,250,599,454
01:58:13.114,,278,454,519
01:58:13.151,,223,659,435
01:58:13.189,,276,639,397
01:58:13.226,,334,858,252
01:58:13.263,,282,906,217
01:58:13.300,,210,961,404
01:58:13.337,,200,1175,399
01:58:13.374,,300,1270,386
01:58:13.411,,388,1046,448
01:58:13.448,,533,845,644
01:58:13.485,,542,739,456
01:58:13.522,,566,781,273
01:58:13.559,,406,693,334
01:58:13.596,,220,703,374
01:58:13.633,,43,688,317
01:58:13.670,,-53,687,296
01:58:13.707,,-41,691,298
01:58:13.744,,-31,787,265
01:58:13.782,,-5,935,306
01:58:13.819,,163,975,395
01:58:13.856,,199,1084,534
01:58:13.893,,238,1150,712
01:58:13.930,,267,957,213
01:58:13.967,,502,1096,162
01:58:14.004,,307,1603,47
01:58:14.041,,189,1042,-68
01:58:14.078,,249,730,-83
01:58:14.115,,199,922,-88
01:58:14.152,,179,768,-115
01:58:14.189,,148,637,-151
01:58:14.226,,87,671,-87
01:58:14.263,,16,686,-128
01:58:14.300,,-41,662,-291
01:58:14.337,,80,684,-117
01:58:14.374,,227,1125,14
01:58:14.412,,111,1209,38
01:58:14.449,,97,1292,76
01:58:14.486,,241,1462,1
01:58:14.523,,348,1349,-64
01:58:14.560,,413,935,-129
01:58:14.597,,434,704,-42
01:58:14.634,,540,827,44
01:58:14.671,,189,411,-225
01:58:14.708,,201,702,-96
01:58:14.745,,154,637,-114
01:58:14.782,,54,825,-53
01:58:14.819,,41,944,97
01:58:14.856,,-116,1045,263
01:58:14.893,,-110,1133,149
01:58:14.930,,-8,1191,5
01:58:14.967,,-31,1187,-56
01:58:15.005,,90,1303,-184
01:58:15.042,,221,1365,-254
01:58:15.079,,309,1371,-37
01:58:15.116,,298,1041,-97
01:58:15.153,,184,850,-174
01:58:15.190,,172,870,-227
01:58:15.227,,121,839,-159
01:58:15.264,,145,780,-27
01:58:15.301,,113,692,22
01:58:15.338,,90,682,68
01:58:15.375,,37,691,4
01:58:15.412,,90,828,-102
01:58:15.449,,196,897,-55
01:58:15.486,,300,959,38
01:58:15.523,,299,1105,163
01:58:15.560,,166,1141,92
01:58:15.597,,101,1282,63
01:58:15.635,,93,1467,88
01:58:15.672,,283,1309,122
01:58:15.709,,331,929,169
01:58:15.746,,358,631,15
01:58:15.783,,241,635,-110
01:58:15.820,,134,541,-121
01:58:15.857,,26,453,-158
01:58:15.894,,0,673,-206
01:58:15.931,,75,778,-133
01:58:15.968,,4,907,240
01:58:16.005,,58,1425,406
01:58:16.042,,86,1431,305
01:58:16.079,,235,1229,162
01:58:16.116,,247,1328,-294
01:58:16.153,,383,1320,-484
01:58:16.190,,331,1070,-328
01:58:16.227,,246,809,-226
01:58:16.265,,239,762,-189
01:58:16.302,,329,851,-103
01:58:16.339,,380,711,45
01:58:16.376,,231,509,327
01:58:16.413,,74,798,141
01:58:16.450,,96,960,-47
01:58:16.487,,291,1052,27
01:58:16.524,,367,855,157
01:58:16.561,,267,967,-199
01:58:16.598,,246,819,-185
01:58:16.635,,191,1209,0
01:58:16.672,,74,1487,166
01:58:16.709,,182,1324,294
01:58:16.746,,438,880,341
01:58:16.783,,519,659,80
01:58:16.820,,373,662,-49
01:58:16.857,,355,566,26
01:58:16.895,,244,449,20
01:58:16.932,,203,574,117
01:58:16.969,,55,865,224
01:58:17.006,,-88,1247,55
01:58:17.043,,0,1062,-25
01:58:17.080,,-35,1199,8
01:58:17.117,,299,1309,175
01:58:17.154,,341,1121,-79
01:58:17.191,,537,1336,-505
01:58:17.228,,491,1366,-410
01:58:17.265,,488,1018,-359
01:58:17.302,,425,998,-31
01:58:17.339,,371,602,239
01:58:17.376,,240,651,223
01:58:17.413,,222,315,288
01:58:17.450,,144,233,464
01:58:17.487,,71,279,623
01:58:17.524,,141,499,834
01:58:17.562,,401,243,837
01:58:17.599,,590,603,719
01:58:17.636,,755,911,766
01:58:17.673,,553,908,977
01:58:17.710,,380,921,870
01:58:17.747,,330,1025,811
01:58:17.784,,432,772,1096
01:58:17.821,,489,745,538
01:58:17.858,,591,87,304
01:58:17.895,,449,332,548
01:58:17.932,,159,589,521
01:58:17.969,,194,577,427
01:58:18.006,,249,274,437
01:58:18.043,,358,177,601
01:58:18.080,,488,277,1026
01:58:18.117,,451,300,1362
01:58:18.154,,554,199,916
01:58:18.192,,637,800,988
01:58:18.229,,826,545,946
01:58:18.266,,852,904,785
01:58:18.303,,620,715,542
01:58:18.340,,585,555,479
01:58:18.377,,499,702,569
01:58:18.414,,453,487,635
01:58:18.451,,386,525,530
01:58:18.488,,328,576,577
01:58:18.525,,305,450,600
01:58:18.562,,262,528,627
01:58:18.599,,289,557,593
01:58:18.636,,299,516,513
01:58:18.673,,385,473,549
01:58:18.710,,476,326,820
01:58:18.747,,473,297,1092
01:58:18.784,,551,449,1154
01:58:18.822,,557,651,1391
01:58:18.859,,549,553,1094
01:58:18.896,,715,507,624
01:58:18.933,,572,442,254
01:58:18.970,,363,423,313
01:58:19.007,,269,582,390
01:58:19.044,,215,475,485
01:58:19.081,,347,321,596
01:58:19.118,,407,248,720
01:58:19.155,,317,244,862
01:58:19.192,,259,463,835
01:58:19.229,,219,311,765
01:58:19.266,,449,594,1257
01:58:19.303,,618,513,1378
01:58:19.340,,623,855,1182
01:58:19.377,,421,845,880
01:58:19.414,,413,637,507
01:58:19.452,,475,616,488
01:58:19.489,,492,417,696
01:58:19.526,,483,259,737
01:58:19.563,,508,43,535
01:58:19.600,,264,650,539
01:58:19.637,,180,612,599
01:58:19.674,,188,606,641
01:58:19.711,,271,676,583
01:58:19.748,,362,738,587
01:58:19.785,,573,651,707
01:58:19.822,,568,357,836
01:58:19.859,,408,509,1008
01:58:19.896,,663,403,1121
01:58:19.933,,769,265,808
01:58:19.970,,823,349,404
01:58:20.007,,736,231,410
01:58:20.045,,645,225,413
01:58:20.082,,582,281,473
01:58:20.119,,366,211,856
01:58:20.156,,347,285,852
01:58:20.193,,414,303,775
01:58:20.230,,537,157,1026
01:58:20.267,,520,187,947
01:58:20.304,,652,291,1034
01:58:20.341,,835,467,1057
01:58:20.378,,822,696,827
01:58:20.415,,747,429,565
01:58:20.452,,638,374,311
01:58:20.489,,659,397,502
01:58:20.526,,724,363,599
01:58:20.563,,591,205,592
01:58:20.600,,370,340,564
01:58:20.638,,308,606,755
01:58:20.675,,166,479,713
01:58:20.712,,394,356,568
01:58:20.749,,286,577,635
01:58:20.786,,669,607,532
01:58:20.823,,575,479,938
01:58:20.860,,617,239,1354
01:58:20.897,,843,208,1026
01:58:20.934,,615,764,831
01:58:20.971,,569,357,696
01:58:21.008,,569,279,661
01:58:21.045,,397,376,524
01:58:21.082,,429,599,30
01:58:21.119,,689,164,459
01:58:21.156,,696,225,957
01:58:21.193,,372,525,615
01:58:21.231,,402,694,551
01:58:21.268,,360,674,726
01:58:21.305,,498,584,922
01:58:21.342,,513,491,803
01:58:21.379,,598,472,1001
01:58:21.416,,649,824,858
01:58:21.453,,497,1203,120
01:58:21.490,,643,971,208
01:58:21.527,,601,508,266
01:58:21.564,,447,660,503
01:58:21.601,,570,503,517
01:58:21.638,,513,454,646
01:58:21.675,,324,450,485
01:58:21.712,,466,441,390
01:58:21.749,,408,636,598
01:58:21.786,,591,773,625
01:58:21.824,,538,525,563
01:58:21.861,,558,550,456
01:58:21.898,,501,929,477
01:58:21.935,,567,1263,595
01:58:21.972,,538,1157,847
01:58:22.009,,418,857,707
01:58:22.046,,583,146,729
01:58:22.083,,338,175,660
01:58:22.120,,411,275,569
01:58:22.157,,346,117,487
01:58:22.194,,341,410,349
01:58:22.231,,375,621,451
01:58:22.268,,589,687,744
01:58:22.305,,369,274,889
01:58:22.342,,339,206,988
01:58:22.379,,419,115,1019
01:58:22.417,,551,437,1152
01:58:22.454,,772,506,1152
01:58:22.491,,678,439,978
01:58:22.528,,611,503,595
01:58:22.565,,488,586,483
01:58:22.602,,507,316,796
01:58:22.639,,445,322,886
01:58:22.676,,181,471,653
01:58:22.713,,219,417,663
01:58:22.750,,297,419,560
01:58:22.787,,355,538,505
01:58:22.824,,549,534,628
01:58:22.861,,794,372,740
01:58:22.898,,747,267,804
01:58:22.935,,720,491,739
01:58:22.972,,726,624,814
01:58:23.009,,650,607,898
01:58:23.047,,619,391,898
01:58:23.084,,571,206,764
01:58:23.121,,552,425,542
01:58:23.158,,835,617,368
01:58:23.195,,134,224,479
01:58:23.232,,387,349,404
01:58:23.269,,354,162,539
01:58:23.306,,348,358,674
01:58:23.343,,307,488,770
01:58:23.380,,377,349,884
01:58:23.417,,380,263,1044
01:58:23.454,,388,183,1107
01:58:23.491,,344,460,1010
01:58:23.528,,626,304,900
01:58:23.565,,803,497,1106
01:58:23.603,,839,297,743
01:58:23.640,,814,361,743
01:58:23.677,,710,194,478
01:58:23.714,,525,174,529
01:58:23.751,,517,211,831
01:58:23.788,,437,401,1032
01:58:23.825,,243,416,913
01:58:23.862,,156,135,492
01:58:23.899,,248,358,752
01:58:23.936,,208,414,703
01:58:23.973,,346,477,745
01:58:24.010,,479,414,655
01:58:24.047,,665,267,823
01:58:24.084,,784,69,948
01:58:24.121,,814,185,1063
01:58:24.158,,658,451,1146
01:58:24.196,,640,340,1029
01:58:24.233,,716,249,982
01:58:24.270,,613,408,771
01:58:24.307,,453,459,477
01:58:24.344,,482,333,439
01:58:24.381,,436,107,477
01:58:24.418,,347,323,461
01:58:24.455,,519,-30,564
01:58:24.492,,540,213,559
01:58:24.529,,693,190,987
01:58:24.566,,616,216,1258
01:58:24.603,,657,410,927
01:58:24.640,,658,1072,722
01:58:24.677,,736,586,1048
01:58:24.714,,521,597,973
01:58:24.752,,512,597,534
01:58:24.789,,649,286,766
01:58:24.826,,526,224,935
01:58:24.863,,294,650,657
01:58:24.900,,229,642,416
01:58:24.937,,223,459,390
01:58:24.974,,289,313,418
01:58:25.011,,424,303,539
01:58:25.048,,499,396,640
01:58:25.085,,801,364,758
01:58:25.122,,405,229,901
01:58:25.159,,528,418,915
01:58:25.196,,420,851,969
01:58:25.233,,420,615,1190
01:58:25.270,,380,428,1080
01:58:25.307,,529,285,783
01:58:25.344,,564,515,439
01:58:25.382,,556,453,418
01:58:25.419,,561,249,537
01:58:25.456,,430,216,580
01:58:25.493,,314,345,669
01:58:25.530,,216,517,709
01:58:25.567,,181,739,702
01:58:25.604,,244,675,931
01:58:25.641,,428,174,1120
01:58:25.678,,521,472,927
01:58:25.715,,720,721,957
01:58:25.752,,682,552,989
01:58:25.789,,466,102,1036
01:58:25.826,,401,195,803
01:58:25.863,,337,291,621
01:58:25.900,,398,290,576
01:58:25.937,,389,65,609
01:58:25.974,,461,390,559
01:58:26.011,,408,429,553
01:58:26.049,,434,566,692
01:58:26.086,,399,519,709
01:58:26.123,,567,394,763
01:58:26.160,,539,397,913
01:58:26.197,,499,554,1042
01:58:26.234,,534,723,1138
01:58:26.271,,476,490,1165
01:58:26.308,,492,542,825
01:58:26.345,,589,404,559
01:58:26.382,,573,593,420
01:58:26.419,,571,676,336
01:58:26.456,,479,398,368
01:58:26.493,,373,441,488
01:58:26.530,,319,401,617
01:58:26.567,,355,341,690
01:58:26.604,,338,362,691
01:58:26.642,,364,576,779
01:58:26.679,,360,541,863
01:58:26.716,,474,542,841
01:58:26.753,,654,577,949
01:58:26.790,,689,808,814
01:58:26.827,,735,905,531
01:58:26.864,,661,768,449
01:58:26.901,,650,625,569
01:58:26.938,,774,447,876
01:58:26.975,,613,122,946
01:58:27.012,,424,-19,628
01:58:27.049,,283,638,214
01:58:27.086,,191,769,253
01:58:27.123,,152,616,485
01:58:27.160,,262,622,654
01:58:27.197,,358,407,627
01:58:27.234,,388,713,673
01:58:27.272,,528,521,887
01:58:27.309,,660,233,1168
01:58:27.346,,614,307,1409
01:58:27.383,,554,560,971
01:58:27.420,,563,614,603
01:58:27.457,,533,552,464
01:58:27.494,,424,552,417
01:58:27.531,,476,99,642
01:58:27.568,,398,81,796
01:58:27.605,,292,300,784
01:58:27.642,,262,226,685
01:58:27.679,,264,164,728
01:58:27.716,,292,347,918
01:58:27.753,,302,348,1201
01:58:27.790,,361,415,987
01:58:27.827,,494,421,1018
01:58:27.864,,581,672,895
01:58:27.902,,638,484,886
01:58:27.939,,475,461,859
01:58:27.976,,524,541,975
01:58:28.013,,427,295,883
01:58:28.050,,270,190,687
01:58:28.087,,85,506,554
01:58:28.124,,147,235,570
01:58:28.161,,127,253,556
01:58:28.198,,169,463,578
01:58:28.235,,236,550,567
01:58:28.272,,363,617,703
01:58:28.309,,545,239,918
01:58:28.346,,386,197,1053
01:58:28.383,,277,626,1161
01:58:28.420,,294,627,1364
01:58:28.457,,497,168,1373
01:58:28.494,,591,-44,1124
01:58:28.531,,543,224,819
01:58:28.569,,594,363,797
01:58:28.606,,557,459,599
01:58:28.643,,510,114,439
01:58:28.680,,382,127,246
01:58:28.717,,357,351,550
01:58:28.754,,343,396,782
01:58:28.791,,143,483,776
01:58:28.828,,60,552,891
01:58:28.865,,161,465,1102
01:58:28.902,,184,452,1134
01:58:28.939,,338,432,1137
01:58:28.976,,635,608,1087
01:58:29.013,,668,637,1012
01:58:29.050,,629,509,813
01:58:29.087,,513,516,664
01:58:29.124,,499,285,770
01:58:29.161,,478,44,786
01:58:29.198,,333,71,728
01:58:29.236,,253,294,730
01:58:29.273,,198,444,710
01:58:29.310,,232,583,683
01:58:29.347,,244,555,627
01:58:29.384,,272,603,612
01:58:29.421,,400,445,659
01:58:29.458,,521,515,753
01:58:29.495,,644,470,988
01:58:29.532,,627,293,1318
01:58:29.569,,432,419,1393
01:58:29.606,,232,499,1005
01:58:29.643,,-194,235,835
01:58:29.680,,547,181,449
01:58:29.717,,483,404,386
01:58:29.754,,379,496,771
01:58:29.791,,319,456,772
01:58:29.829,,262,23,497
01:58:29.866,,342,170,465
01:58:29.903,,474,603,785
01:58:29.940,,395,296,1364
01:58:29.977,,396,65,1482
01:58:30.014,,386,449,1170
01:58:30.051,,500,1059,801
01:58:30.088,,725,767,650
01:58:30.125,,776,462,572
01:58:30.162,,602,348,564
01:58:30.199,,542,277,624
01:58:30.236,,602,130,599
01:58:30.273,,535,-57,698
01:58:30.310,,259,-12,873
01:58:30.347,,121,241,904
01:58:30.384,,150,198,954
01:58:30.421,,274,295,944
01:58:30.459,,489,283,868
01:58:30.496,,933,211,656
01:58:30.533,,854,-34,780
01:58:30.570,,641,472,867
01:58:30.607,,649,256,1139
01:58:30.644,,545,255,1225
01:58:30.681,,644,65,940
01:58:30.718,,713,-157,653
01:58:30.755,,601,404,509
01:58:30.792,,594,527,385
01:58:30.829,,574,261,457
01:58:30.866,,464,91,791
01:58:30.903,,278,180,754
01:58:30.940,,330,0,780
01:58:30.977,,350,260,965
01:58:31.014,,380,294,940
01:58:31.051,,499,353,1105
01:58:31.089,,521,247,1020
01:58:31.126,,802,216,903
01:58:31.163,,725,323,889
01:58:31.200,,623,872,613
01:58:31.237,,745,569,518
01:58:31.274,,767,355,665
01:58:31.311,,720,404,615
01:58:31.348,,653,281,601
01:58:31.385,,644,436,436
01:58:31.422,,450,438,392
01:58:31.459,,305,231,482
01:58:31.496,,294,480,777
01:58:31.533,,291,476,910
01:58:31.570,,456,418,677
01:58:31.607,,639,579,689
01:58:31.644,,642,386,859
01:58:31.681,,628,448,798
01:58:31.719,,629,674,840
01:58:31.756,,685,693,709
01:58:31.793,,797,649,557
01:58:31.830,,668,256,581
01:58:31.867,,788,-200,720
01:58:31.904,,861,191,751
01:58:31.941,,579,338,897
01:58:31.978,,357,409,542
01:58:32.015,,279,399,144
01:58:32.052,,485,390,413
01:58:32.089,,628,169,638
01:58:32.126,,598,132,734
01:58:32.163,,535,155,825
01:58:32.200,,455,-143,1123
01:58:32.237,,567,200,1236
01:58:32.274,,750,218,1108
01:58:32.311,,670,810,952
01:58:32.349,,878,744,552
01:58:32.386,,619,749,394
01:58:32.423,,501,435,472
01:58:32.460,,593,376,534
01:58:32.497,,729,166,657
01:58:32.534,,678,-117,677
01:58:32.571,,491,138,441
01:58:32.608,,445,315,645
01:58:32.645,,462,295,818
01:58:32.682,,520,388,745
01:58:32.719,,770,484,603
01:58:32.756,,771,276,757
01:58:32.793,,692,421,694
01:58:32.830,,763,107,579
01:58:32.867,,983,480,724
01:58:32.904,,926,537,626
01:58:32.941,,902,461,511
01:58:32.979,,884,517,402
01:58:33.016,,779,460,286
01:58:33.053,,677,406,217
01:58:33.090,,535,353,149
01:58:33.127,,426,380,96
01:58:33.164,,457,446,125
01:58:33.201,,539,527,232
01:58:33.238,,709,560,317
01:58:33.275,,1009,550,400
01:58:33.312,,1402,526,443
01:58:33.349,,531,757,312
01:58:33.386,,1097,467,447
01:58:33.423,,1349,643,520
01:58:33.460,,1038,470,295
01:58:33.497,,1122,222,256
01:58:33.534,,1101,239,366
01:58:33.572,,954,280,389
01:58:33.609,,825,314,256
01:58:33.646,,740,391,213
01:58:33.683,,801,341,153
01:58:33.720,,779,279,129
01:58:33.757,,853,234,174
01:58:33.794,,909,193,152
01:58:33.831,,917,171,139
01:58:33.868,,952,217,137
01:58:33.905,,841,255,165
01:58:33.942,,901,378,205
01:58:33.979,,883,472,360
01:58:34.016,,992,472,445
01:58:34.053,,1104,371,373
01:58:34.090,,1032,269,294
01:58:34.127,,895,206,313
01:58:34.164,,813,266,344
01:58:34.202,,767,368,332
01:58:34.239,,759,491,334
01:58:34.276,,743,591,387
01:58:34.313,,901,718,467
01:58:34.350,,1082,803,553
01:58:34.387,,1131,737,554
01:58:34.424,,1328,603,510
01:58:34.461,,1249,425,462
01:58:34.498,,1308,399,420
01:58:34.535,,1261,434,337
01:58:34.572,,1288,441,257
01:58:34.609,,1401,436,226
01:58:34.646,,1265,310,202
01:58:34.683,,1038,238,120
01:58:34.720,,897,237,89
01:58:34.757,,804,273,84
