Sensors' Acquisition [Hz]: Acc@26.0 
hh:mm:ss.ms, Annotation , AccX [mg], AccY, AccZ
17:31:41.613,,802,376,246
17:31:41.649,,821,355,233
17:31:41.673,>Walk,,,
17:31:41.686,,972,212,139
17:31:41.723,,962,168,152
17:31:41.760,,930,244,173
17:31:41.797,,770,266,172
17:31:41.834,,610,301,116
17:31:41.870,,552,384,138
17:31:41.907,,607,492,140
17:31:41.944,,650,559,122
17:31:41.981,,777,461,89
17:31:42.018,,927,505,129
17:31:42.054,,1038,565,181
17:31:42.091,,1195,584,170
17:31:42.128,,1311,700,223
17:31:42.165,,1085,632,198
17:31:42.289,,913,568,90
17:31:42.290,,913,568,90
17:31:42.290,,913,568,90
17:31:42.312,,835,557,78
17:31:42.349,,760,398,45
17:31:42.386,,744,359,26
17:31:42.423,,769,363,-7
17:31:42.459,,803,356,-30
17:31:42.496,,840,344,-35
17:31:42.533,,845,317,-42
17:31:42.570,,849,324,-46
17:31:42.606,,876,341,-59
17:31:42.643,,897,396,-24
17:31:42.680,,1169,492,-5
17:31:42.717,,1220,543,26
17:31:42.754,,942,474,157
17:31:42.790,,777,444,258
17:31:42.827,,844,481,210
17:31:42.864,,890,368,147
17:31:42.901,,799,336,169
17:31:42.990,,722,467,209
17:31:42.990,,722,467,209
17:31:43.011,,699,544,118
17:31:43.048,,646,520,139
17:31:43.085,,613,481,160
17:31:43.122,,685,483,175
17:31:43.158,,831,513,200
17:31:43.195,,968,548,212
17:31:43.232,,980,537,202
17:31:43.269,,1141,634,193
17:31:43.306,,1164,785,222
17:31:43.342,,963,672,93
17:31:43.379,,861,531,44
17:31:43.415,,971,530,57
17:31:43.452,,969,477,17
17:31:43.489,,890,396,17
17:31:43.526,,855,372,18
17:31:43.562,,857,391,-8
17:31:43.599,,859,391,-22
17:31:43.636,,826,386,-6
17:31:43.726,,789,345,25
17:31:43.727,,789,345,25
17:31:43.746,,823,357,28
17:31:43.783,,826,369,70
17:31:43.820,,894,410,115
17:31:43.857,,1065,478,114
17:31:43.894,,1049,471,121
17:31:43.930,,873,481,217
17:31:43.967,,845,524,236
17:31:44.004,,897,530,173
17:31:44.041,,932,492,124
17:31:44.078,,827,412,93
17:31:44.114,,733,417,107
17:31:44.151,,704,433,94
17:31:44.188,,700,459,56
17:31:44.225,,694,486,79
17:31:44.261,,741,513,121
17:31:44.298,,782,543,167
17:31:44.335,,891,601,216
17:31:44.371,,993,603,220
17:31:44.457,,1222,660,258
17:31:44.457,,1222,660,258
17:31:44.482,,1040,601,167
17:31:44.518,,836,486,115
17:31:44.555,,870,508,95
17:31:44.592,,955,469,50
17:31:44.629,,906,375,24
17:31:44.665,,847,364,5
17:31:44.702,,810,361,-19
17:31:44.739,,800,321,-50
17:31:44.776,,804,291,-64
17:31:44.813,,772,272,-59
17:31:44.849,,795,312,-43
17:31:44.886,,860,373,-35
17:31:44.923,,881,434,3
17:31:44.960,,936,453,80
17:31:44.996,,1260,531,63
17:31:45.033,,1125,502,82
17:31:45.070,,818,409,195
17:31:45.107,,866,504,209
17:31:45.195,,820,439,86
17:31:45.195,,820,439,86
17:31:45.217,,697,419,94
17:31:45.254,,664,453,105
17:31:45.290,,679,491,83
17:31:45.327,,669,506,73
17:31:45.363,,687,514,127
17:31:45.400,,784,573,177
17:31:45.436,,855,609,221
17:31:45.473,,1005,633,233
17:31:45.509,,1081,551,179
17:31:45.546,,1187,571,178
17:31:45.583,,1132,645,173
17:31:45.620,,989,598,104
17:31:45.656,,863,508,40
17:31:45.693,,887,499,13
17:31:45.730,,934,463,-8
17:31:45.767,,880,380,-28
17:31:45.804,,840,311,-35
17:31:45.840,,813,296,-50
17:31:45.929,,798,296,-34
17:31:45.930,,798,296,-34
17:31:45.951,,744,334,15
17:31:45.987,,761,374,48
17:31:46.024,,775,385,58
17:31:46.061,,796,420,101
17:31:46.098,,983,449,115
17:31:46.135,,1298,543,35
17:31:46.171,,1125,574,97
17:31:46.208,,868,523,208
17:31:46.245,,907,551,141
17:31:46.281,,936,503,38
17:31:46.318,,846,369,45
17:31:46.355,,763,378,57
17:31:46.391,,734,405,43
17:31:46.428,,719,438,31
17:31:46.465,,697,446,53
17:31:46.501,,682,473,120
17:31:46.538,,736,500,158
17:31:46.574,,856,587,210
17:31:46.661,,1136,652,230
17:31:46.661,,1136,652,230
17:31:46.684,,1292,657,216
17:31:46.721,,1145,613,164
17:31:46.758,,958,492,77
17:31:46.795,,929,444,44
17:31:46.832,,1002,367,16
17:31:46.868,,917,281,10
17:31:46.905,,825,351,-7
17:31:46.942,,771,380,-47
17:31:46.979,,758,351,-73
17:31:47.015,,752,318,-84
17:31:47.052,,730,293,-65
17:31:47.089,,782,320,-45
17:31:47.126,,841,358,-37
17:31:47.163,,862,383,-7
17:31:47.199,,976,435,56
17:31:47.236,,1198,536,73
17:31:47.273,,1056,515,135
17:31:47.366,,886,559,168
17:31:47.367,,886,559,168
17:31:47.383,,886,559,168
17:31:47.420,,895,542,171
17:31:47.457,,773,466,133
17:31:47.494,,727,433,117
17:31:47.530,,720,449,115
17:31:47.567,,696,462,103
17:31:47.603,,661,471,126
17:31:47.640,,715,496,159
17:31:47.677,,832,536,192
17:31:47.714,,967,575,211
17:31:47.750,,1037,554,205
17:31:47.787,,1098,484,157
17:31:47.824,,1195,605,192
17:31:47.861,,1086,631,139
17:31:47.897,,874,494,37
17:31:47.934,,865,503,35
17:31:47.971,,935,509,31
17:31:48.008,,898,447,-12
17:31:48.045,,836,356,-27
17:31:48.081,,798,314,-29
17:31:48.118,,808,301,-43
17:31:48.155,,811,291,-42
17:31:48.192,,772,301,-15
17:31:48.229,,817,360,25
17:31:48.265,,880,410,44
17:31:48.302,,852,403,74
17:31:48.339,,915,391,97
17:31:48.376,,1183,485,71
17:31:48.413,,1084,482,90
17:31:48.449,,845,433,182
17:31:48.486,,854,494,185
17:31:48.523,,896,525,110
17:31:48.560,,840,429,90
17:31:48.597,,692,380,93
17:31:48.633,,656,378,65
17:31:48.670,,702,425,49
17:31:48.707,,727,463,45
17:31:48.744,,739,513,88
17:31:48.780,,806,547,137
17:31:48.817,,856,575,181
17:31:48.854,,950,615,225
17:31:48.891,,1042,609,242
17:31:48.928,,1248,562,200
17:31:48.964,,1209,607,229
17:31:49.001,,993,548,136
17:31:49.038,,896,494,79
17:31:49.075,,950,526,76
17:31:49.111,,968,355,21
17:31:49.148,,840,229,19
17:31:49.185,,768,317,0
17:31:49.222,,777,374,-27
17:31:49.259,,790,337,-49
17:31:49.295,,768,322,-38
17:31:49.332,,763,325,-11
17:31:49.369,,801,357,5
17:31:49.406,,810,384,15
17:31:49.443,,818,397,69
17:31:49.479,,1061,437,82
17:31:49.516,,1287,545,51
17:31:49.553,,1013,492,99
17:31:49.590,,804,456,202
17:31:49.627,,877,565,164
17:31:49.663,,919,519,84
17:31:49.700,,810,373,66
17:31:49.737,,709,384,91
17:31:49.774,,695,437,71
17:31:49.810,,722,505,48
17:31:49.847,,701,492,78
17:31:49.883,,659,488,134
17:31:49.920,,731,532,174
17:31:49.956,,868,589,199
17:31:49.993,,986,619,211
17:31:50.030,,976,532,188
17:31:50.067,,1237,504,99
17:31:50.103,,1233,798,217
17:31:50.140,,1064,819,190
17:31:50.177,,914,544,8
17:31:50.214,,1021,431,2
17:31:50.251,,1016,274,-18
17:31:50.287,,879,100,-16
17:31:50.324,,798,186,-15
17:31:50.361,,742,307,-48
17:31:50.398,,730,346,-95
17:31:50.435,,693,339,-105
17:31:50.472,,749,380,-64
17:31:50.509,,785,402,-50
17:31:50.545,,815,409,-15
17:31:50.582,,904,456,72
17:31:50.619,,1003,471,139
17:31:50.656,,1209,348,50
17:31:50.693,,1035,257,102
17:31:50.730,,863,373,195
17:31:50.766,,967,727,184
17:31:50.803,,860,843,40
17:31:50.840,,674,617,34
17:31:50.877,,537,523,77
17:31:50.913,,464,828,24
17:31:50.950,,476,677,6
17:31:50.987,,513,639,23
17:31:51.024,,629,522,4
17:31:51.061,,850,464,26
17:31:51.097,,1021,458,87
17:31:51.134,,1113,430,112
17:31:51.171,,1303,500,93
17:31:51.208,,1198,562,128
17:31:51.245,,1027,572,106
17:31:51.281,,809,510,73
17:31:51.318,,748,506,35
17:31:51.355,,762,529,20
17:31:51.392,,711,478,12
17:31:51.428,,699,399,-1
17:31:51.465,,711,366,-6
17:31:51.502,,753,345,-11
17:31:51.539,,777,376,14
17:31:51.576,,797,418,26
17:31:51.612,,870,462,14
17:31:51.649,,948,468,6
17:31:51.686,,978,448,24
17:31:51.723,,1003,452,76
17:31:51.760,,1245,469,37
17:31:51.796,,1075,466,77
17:31:51.833,,775,397,119
17:31:51.870,,798,486,136
17:31:51.907,,887,454,104
17:31:51.943,,837,324,80
17:31:51.980,,709,312,93
17:31:52.017,,691,319,80
17:31:52.054,,700,329,57
17:31:52.091,,716,322,42
17:31:52.127,,693,344,70
17:31:52.164,,748,445,108
17:31:52.201,,858,534,153
17:31:52.238,,978,578,190
17:31:52.274,,1027,564,202
17:31:52.311,,1068,552,178
17:31:52.348,,1190,660,207
17:31:52.385,,1120,711,168
17:31:52.422,,903,570,87
17:31:52.458,,800,509,57
17:31:52.495,,917,505,-10
17:31:52.532,,819,402,-19
17:31:52.569,,771,350,-32
17:31:52.605,,779,335,-63
17:31:52.642,,833,340,-88
17:31:52.679,,818,337,-77
17:31:52.716,,815,335,-55
17:31:52.753,,864,372,-44
17:31:52.789,,901,389,-24
17:31:52.826,,939,414,61
17:31:52.863,,1144,454,108
17:31:52.900,,1215,489,100
17:31:52.937,,935,398,144
17:31:52.973,,767,388,201
17:31:53.010,,836,516,188
17:31:53.047,,855,514,165
17:31:53.084,,735,408,118
17:31:53.121,,680,389,105
17:31:53.157,,702,408,96
17:31:53.194,,712,440,70
17:31:53.230,,667,470,110
17:31:53.267,,663,509,165
17:31:53.303,,788,581,211
17:31:53.339,,940,654,244
17:31:53.375,,1022,654,231
17:31:53.412,,1112,608,189
17:31:53.448,,1154,662,194
17:31:53.484,,1031,639,114
17:31:53.520,,886,518,54
17:31:53.557,,917,535,34
17:31:53.593,,946,528,-6
17:31:53.630,,854,474,-14
17:31:53.666,,810,404,-25
17:31:53.703,,797,369,-45
17:31:53.740,,808,341,-61
17:31:53.777,,807,310,-47
17:31:53.814,,800,300,-36
17:31:53.850,,849,334,-7
17:31:53.887,,922,377,19
17:31:53.924,,918,392,63
17:31:53.961,,929,398,113
17:31:53.998,,1155,475,98
17:31:54.034,,1069,495,110
17:31:54.071,,761,428,162
17:31:54.108,,835,485,161
17:31:54.145,,957,583,112
17:31:54.182,,890,463,56
17:31:54.218,,739,395,59
17:31:54.255,,719,405,44
17:31:54.292,,739,435,15
17:31:54.328,,732,470,22
17:31:54.365,,704,493,93
17:31:54.401,,744,533,147
17:31:54.437,,842,603,187
17:31:54.474,,998,679,211
17:31:54.510,,1079,622,182
17:31:54.547,,1222,629,177
17:31:54.584,,1138,664,165
17:31:54.620,,1001,573,76
17:31:54.657,,921,500,33
17:31:54.694,,969,503,25
17:31:54.731,,946,466,-3
17:31:54.767,,864,394,-29
17:31:54.804,,827,350,-49
17:31:54.841,,801,323,-69
17:31:54.878,,788,292,-84
17:31:54.915,,759,269,-89
17:31:54.951,,782,287,-80
17:31:54.988,,862,343,-61
17:31:55.025,,900,366,-40
17:31:55.062,,901,376,14
17:31:55.099,,1158,463,30
17:31:55.135,,1088,507,70
17:31:55.172,,854,461,146
17:31:55.209,,844,462,160
17:31:55.246,,952,587,137
17:31:55.283,,934,526,121
17:31:55.319,,782,472,127
17:31:55.356,,739,418,117
17:31:55.393,,733,439,77
17:31:55.430,,696,453,78
17:31:55.466,,657,509,145
17:31:55.503,,721,570,172
17:31:55.540,,834,645,228
17:31:55.576,,982,681,254
17:31:55.613,,1064,625,257
17:31:55.650,,1212,613,265
17:31:55.687,,1248,881,357
17:31:55.724,,1102,745,206
17:31:55.760,,1073,824,224
17:31:55.797,,1117,1059,164
17:31:55.834,,1055,1087,78
17:31:55.871,,912,1064,36
17:31:55.908,,781,1040,0
17:31:55.944,,631,1058,-32
17:31:55.981,,495,1126,-15
17:31:56.018,,349,1114,62
17:31:56.055,,263,1120,139
17:31:56.092,,139,1060,215
17:31:56.128,,-83,582,261
17:31:56.164,,-323,456,383
17:31:56.200,,-475,210,501
17:31:56.237,,-527,14,458
17:31:56.273,,-625,-262,347
17:31:56.309,,-638,-405,305
17:31:56.344,,-525,-272,440
17:31:56.378,,-457,-327,394
17:31:56.413,,-532,-497,402
17:31:56.447,,-559,-519,325
17:31:56.481,,-478,-415,349
17:31:56.515,,-537,-306,591
17:31:56.549,,-727,-381,442
17:31:56.583,,-792,-527,591
17:31:56.617,,-862,-635,698
17:31:56.651,,-929,-498,624
17:31:56.685,,-974,-579,325
17:31:56.719,,-916,-442,377
17:31:56.753,,-1030,-466,557
17:31:56.788,,-1202,-594,289
17:31:56.822,,-1072,-563,298
17:31:56.857,,-957,-527,197
17:31:56.892,,-827,-330,158
17:31:56.928,,-474,-52,497
17:31:56.964,,-341,-553,407
17:31:57.001,,-355,-541,-15
17:31:57.038,,-380,-521,41
17:31:57.074,,-629,-623,-44
17:31:57.111,,-737,-339,65
17:31:57.148,,-651,-107,197
17:31:57.184,,-444,200,162
17:31:57.221,,-76,400,-5
17:31:57.258,,239,771,-128
17:31:57.295,,773,1065,-897
17:31:57.332,,974,1087,-1078
17:31:57.368,,1087,1193,-1152
17:31:57.405,,1226,1183,-711
17:31:57.442,,1283,990,-575
17:31:57.478,,1186,1065,-442
17:31:57.514,,1078,1110,-302
17:31:57.550,,1041,706,-171
17:31:57.587,,977,711,-26
17:31:57.623,,901,545,92
17:31:57.659,,844,803,202
17:31:57.696,,780,898,156
17:31:57.732,,826,1026,158
17:31:57.768,,847,933,104
17:31:57.804,,998,907,28
17:31:57.841,,1122,864,60
17:31:57.877,,1069,649,4
17:31:57.913,,1056,601,22
17:31:57.950,,1183,644,-21
17:31:57.986,,1212,643,-56
17:31:58.023,,1153,540,-76
17:31:58.059,,1120,440,-84
17:31:58.096,,1067,387,-103
17:31:58.133,,1005,358,-88
17:31:58.170,,859,379,-6
17:31:58.207,,771,438,103
17:31:58.244,,736,433,141
17:31:58.280,,628,319,79
17:31:58.317,,545,241,97
17:31:58.354,,599,246,99
17:31:58.391,,837,391,94
17:31:58.428,,953,481,92
17:31:58.465,,1016,508,111
17:31:58.501,,1282,635,136
17:31:58.538,,1439,791,114
17:31:58.575,,1173,712,60
17:31:58.612,,878,538,47
17:31:58.649,,848,477,44
17:31:58.685,,862,479,9
17:31:58.722,,805,528,70
17:31:58.758,,713,557,116
17:31:58.795,,743,659,143
17:31:58.831,,857,704,181
17:31:58.867,,945,749,211
17:31:58.904,,963,673,217
17:31:58.940,,1097,679,249
17:31:58.976,,1139,738,220
17:31:59.013,,1096,688,91
17:31:59.050,,1069,584,14
17:31:59.087,,1167,544,0
17:31:59.123,,1173,453,1
17:31:59.160,,1090,364,-6
17:31:59.197,,1028,321,-46
17:31:59.234,,951,290,-81
17:31:59.271,,868,283,-96
17:31:59.307,,746,312,-74
17:31:59.344,,656,347,-28
17:31:59.381,,650,348,-11
17:31:59.418,,620,319,-28
17:31:59.455,,584,329,21
17:31:59.492,,755,391,63
17:31:59.529,,1010,466,43
17:31:59.565,,1042,472,64
17:31:59.602,,1087,550,166
17:31:59.639,,1154,687,223
17:31:59.676,,1176,686,166
17:31:59.713,,1037,576,126
17:31:59.749,,871,451,112
17:31:59.786,,848,423,124
17:31:59.823,,823,447,138
17:31:59.860,,737,459,163
17:31:59.897,,690,532,164
17:31:59.933,,745,603,180
17:31:59.970,,829,722,216
17:32:00.007,,939,780,226
17:32:00.043,,975,678,203
17:32:00.080,,1104,647,189
17:32:00.117,,1175,732,197
17:32:00.154,,1122,655,64
17:32:00.190,,1096,510,-2
17:32:00.227,,1160,479,51
17:32:00.264,,1118,391,19
17:32:00.301,,1020,352,-8
17:32:00.337,,946,336,-28
17:32:00.374,,869,313,-56
17:32:00.411,,799,304,-77
17:32:00.448,,686,327,-47
17:32:00.485,,651,371,15
17:32:00.522,,666,371,24
17:32:00.559,,677,342,12
17:32:00.595,,728,384,97
17:32:00.632,,1024,460,140
17:32:00.669,,1091,452,66
17:32:00.706,,986,405,129
17:32:00.743,,1075,509,205
17:32:00.780,,1129,687,229
17:32:00.816,,982,701,166
17:32:00.853,,851,564,104
17:32:00.890,,811,526,122
17:32:00.927,,757,459,117
17:32:00.964,,724,443,123
17:32:01.000,,681,511,163
17:32:01.037,,715,548,197
17:32:01.074,,845,659,239
17:32:01.111,,955,724,260
17:32:01.147,,956,635,242
17:32:01.184,,1120,654,252
17:32:01.221,,1188,704,301
17:32:01.257,,1072,575,165
17:32:01.294,,954,508,120
17:32:01.330,,1006,542,83
17:32:01.367,,965,531,37
17:32:01.403,,852,398,0
17:32:01.440,,785,328,-7
17:32:01.477,,765,293,-39
17:32:01.514,,785,281,-66
17:32:01.551,,762,289,-64
17:32:01.587,,731,318,-52
17:32:01.624,,747,377,4
17:32:01.661,,749,380,20
17:32:01.698,,776,413,69
17:32:01.735,,874,461,129
17:32:01.772,,1142,546,122
17:32:01.808,,1034,532,147
17:32:01.845,,903,436,163
17:32:01.882,,1061,597,222
17:32:01.919,,1057,638,188
17:32:01.956,,850,497,130
17:32:01.992,,695,419,119
17:32:02.029,,685,441,124
17:32:02.066,,658,476,116
17:32:02.103,,662,494,123
17:32:02.140,,729,566,190
17:32:02.176,,825,608,240
17:32:02.213,,979,652,268
17:32:02.250,,1088,608,254
17:32:02.287,,1107,460,184
17:32:02.324,,1303,618,274
17:32:02.361,,1193,575,185
17:32:02.397,,971,429,49
17:32:02.434,,868,461,15
17:32:02.471,,804,522,-10
17:32:02.508,,705,471,-31
17:32:02.545,,655,421,-44
17:32:02.581,,658,410,-60
17:32:02.618,,713,373,-88
17:32:02.655,,801,287,-125
17:32:02.692,,958,321,-86
17:32:02.729,,980,392,13
17:32:02.766,,896,395,56
17:32:02.802,,891,487,150
17:32:02.839,,957,526,203
17:32:02.876,,1299,538,83
17:32:02.913,,1146,477,155
17:32:02.950,,723,296,282
17:32:02.987,,724,401,293
17:32:03.023,,730,447,160
17:32:03.060,,779,433,125
17:32:03.097,,660,525,207
17:32:03.134,,637,433,181
17:32:03.170,,750,421,130
17:32:03.207,,710,412,146
17:32:03.244,,673,296,43
17:32:03.280,,623,507,153
17:32:03.317,,706,775,297
17:32:03.354,,944,993,364
17:32:03.391,,1096,838,228
17:32:03.427,,1430,640,201
17:32:03.464,,1363,481,298
17:32:03.501,,1116,341,222
17:32:03.538,,1101,546,180
17:32:03.575,,1078,603,100
17:32:03.612,,883,513,43
17:32:03.648,,706,375,30
17:32:03.685,,671,322,0
17:32:03.722,,690,264,-38
17:32:03.759,,661,199,-45
17:32:03.796,,663,192,-60
17:32:03.832,,697,246,-78
17:32:03.869,,764,322,-100
17:32:03.906,,754,473,8
17:32:03.943,,1115,664,177
17:32:03.980,,1437,765,189
17:32:04.017,,1108,452,125
17:32:04.053,,992,365,183
17:32:04.090,,1082,604,296
17:32:04.127,,966,641,298
17:32:04.164,,820,556,237
17:32:04.200,,741,525,274
17:32:04.237,,723,577,319
17:32:04.274,,677,597,330
17:32:04.311,,645,591,357
17:32:04.348,,739,627,375
17:32:04.384,,875,648,372
17:32:04.421,,1125,644,330
17:32:04.458,,1193,499,233
17:32:04.495,,1422,503,181
17:32:04.532,,1432,615,188
17:32:04.569,,1250,504,50
17:32:04.605,,1042,401,-20
17:32:04.642,,950,467,-48
17:32:04.679,,857,496,-68
17:32:04.716,,826,450,-84
17:32:04.753,,826,368,-111
17:32:04.789,,786,314,-119
17:32:04.826,,759,223,-115
17:32:04.863,,687,205,-79
17:32:04.900,,700,280,13
17:32:04.937,,751,366,90
17:32:04.974,,785,400,134
17:32:05.011,,951,436,199
17:32:05.047,,1180,491,159
17:32:05.084,,1123,511,226
17:32:05.121,,1113,529,354
17:32:05.158,,1275,615,329
17:32:05.195,,1107,630,226
17:32:05.231,,833,472,116
17:32:05.268,,677,424,69
17:32:05.305,,759,487,79
17:32:05.342,,757,479,40
17:32:05.378,,708,497,34
17:32:05.414,,720,545,106
17:32:05.451,,799,605,164
17:32:05.487,,867,687,220
17:32:05.523,,926,752,277
17:32:05.560,,868,653,266
17:32:05.596,,947,619,228
17:32:05.632,,1046,824,281
17:32:05.668,,1064,751,120
17:32:05.705,,1133,698,36
17:32:05.742,,1142,569,66
17:32:05.778,,1081,310,72
17:32:05.815,,1012,234,47
17:32:05.852,,941,252,5
17:32:05.889,,892,338,-31
17:32:05.926,,834,392,-49
17:32:05.962,,765,381,-59
17:32:05.999,,744,342,-51
17:32:06.036,,739,325,-46
17:32:06.073,,709,304,-14
17:32:06.110,,705,380,97
17:32:06.147,,895,513,182
17:32:06.183,,1009,577,226
17:32:06.220,,944,486,282
17:32:06.257,,1088,523,343
17:32:06.294,,1149,600,302
17:32:06.331,,939,481,158
17:32:06.367,,729,379,68
17:32:06.404,,718,436,101
17:32:06.440,,699,471,64
17:32:06.477,,726,547,60
17:32:06.513,,808,612,137
17:32:06.549,,787,658,225
17:32:06.586,,811,730,276
17:32:06.622,,1050,887,238
17:32:06.658,,1172,866,143
17:32:06.694,,742,728,169
17:32:06.731,,1075,644,14
17:32:06.767,,1272,607,-8
17:32:06.804,,1045,286,-55
17:32:06.841,,1157,178,-20
17:32:06.878,,1022,185,-65
17:32:06.915,,956,314,23
17:32:06.951,,923,385,46
17:32:06.988,,802,372,-61
17:32:07.025,,680,282,2
17:32:07.062,,628,294,86
17:32:07.099,,659,352,68
17:32:07.135,,677,330,21
17:32:07.172,,689,372,30
17:32:07.209,,786,445,81
17:32:07.245,,1206,507,-56
17:32:07.282,,1462,732,-19
17:32:07.318,,1126,610,37
17:32:07.354,,935,550,205
17:32:07.391,,815,546,147
17:32:07.427,,710,407,-6
17:32:07.464,,724,436,-12
17:32:07.501,,761,472,116
17:32:07.537,,761,603,172
17:32:07.574,,849,663,149
17:32:07.611,,1018,815,191
17:32:07.648,,1099,840,216
17:32:07.685,,1318,925,269
17:32:07.721,,1393,734,49
17:32:07.758,,1280,448,-54
17:32:07.795,,1034,181,-51
17:32:07.832,,956,171,-17
17:32:07.869,,899,303,-57
17:32:07.905,,825,412,-88
17:32:07.942,,739,388,-141
17:32:07.979,,735,357,-172
17:32:08.016,,797,358,-205
17:32:08.052,,866,335,-211
17:32:08.088,,893,315,-179
17:32:08.125,,845,319,-124
17:32:08.162,,762,335,-50
17:32:08.199,,725,382,-24
17:32:08.235,,698,408,24
17:32:08.272,,716,451,77
17:32:08.309,,1106,459,32
17:32:08.346,,1519,735,14
17:32:08.383,,1217,538,121
17:32:08.419,,1214,283,317
17:32:08.456,,1124,704,328
17:32:08.492,,875,667,178
17:32:08.529,,838,631,206
17:32:08.566,,785,678,205
17:32:08.602,,715,560,289
17:32:08.639,,709,655,273
17:32:08.676,,763,782,265
17:32:08.713,,828,884,290
17:32:08.750,,924,786,221
17:32:08.786,,1186,691,132
17:32:08.823,,1428,776,184
17:32:08.860,,1438,606,47
17:32:08.897,,1536,536,47
17:32:08.934,,1479,528,66
17:32:08.970,,1319,451,2
17:32:09.007,,1214,406,-54
17:32:09.044,,1099,396,-108
17:32:09.081,,1008,335,-142
17:32:09.118,,855,266,-146
17:32:09.154,,699,219,-141
17:32:09.191,,603,216,-141
17:32:09.228,,509,231,-135
17:32:09.265,,471,245,-97
17:32:09.302,,507,361,26
17:32:09.339,,752,567,202
17:32:09.376,,915,602,218
17:32:09.412,,1026,486,203
17:32:09.449,,1422,547,334
17:32:09.486,,1617,709,362
17:32:09.523,,1242,570,263
17:32:09.560,,932,404,193
17:32:09.596,,897,420,207
17:32:09.633,,903,472,170
17:32:09.670,,848,547,161
17:32:09.707,,759,695,185
17:32:09.743,,722,749,226
17:32:09.780,,811,854,252
17:32:09.817,,922,848,236
17:32:09.854,,1088,721,180
17:32:09.890,,1308,837,295
17:32:09.927,,1230,595,120
17:32:09.964,,1326,499,70
17:32:10.001,,1366,515,117
17:32:10.038,,1214,443,73
17:32:10.074,,1098,356,11
17:32:10.111,,982,385,-25
17:32:10.148,,902,359,-72
17:32:10.185,,805,335,-100
17:32:10.222,,705,272,-121
17:32:10.259,,654,260,-120
17:32:10.295,,661,302,-94
17:32:10.332,,660,312,-48
17:32:10.369,,669,372,62
17:32:10.406,,860,454,128
17:32:10.443,,1053,535,115
17:32:10.480,,1015,438,146
17:32:10.516,,1302,525,226
17:32:10.553,,1487,767,249
17:32:10.590,,1117,664,181
17:32:10.627,,789,465,109
17:32:10.663,,771,463,106
17:32:10.700,,836,507,63
17:32:10.736,,813,566,51
17:32:10.772,,763,676,90
17:32:10.809,,736,755,172
17:32:10.845,,794,858,183
17:32:10.881,,878,833,151
17:32:10.918,,1005,706,71
17:32:10.954,,1209,873,187
17:32:10.990,,1257,618,13
17:32:11.027,,1470,625,43
17:32:11.063,,1281,462,23
17:32:11.100,,1118,381,10
17:32:11.136,,1025,414,0
17:32:11.173,,962,414,-41
17:32:11.210,,931,383,-68
17:32:11.247,,948,367,-72
17:32:11.283,,921,415,-18
17:32:11.320,,776,349,28
17:32:11.357,,615,265,104
17:32:11.394,,491,263,207
17:32:11.431,,430,251,208
17:32:11.468,,492,246,153
17:32:11.505,,821,396,54
17:32:11.541,,1085,614,91
17:32:11.578,,1369,723,150
17:32:11.614,,1794,892,221
17:32:11.651,,1468,767,94
17:32:11.688,,900,423,102
17:32:11.725,,855,384,94
17:32:11.762,,904,418,-66
17:32:11.798,,767,498,-54
17:32:11.835,,559,551,8
17:32:11.872,,511,699,46
17:32:11.909,,530,776,49
17:32:11.945,,728,953,86
17:32:11.982,,948,992,67
17:32:12.019,,1011,707,-14
17:32:12.056,,1486,695,64
17:32:12.093,,1412,428,71
17:32:12.129,,1159,342,95
17:32:12.166,,1056,387,44
17:32:12.203,,1085,637,28
17:32:12.239,,1111,659,0
17:32:12.276,,985,530,-85
17:32:12.313,,887,339,-152
17:32:12.350,,834,244,-165
17:32:12.387,,734,191,-136
17:32:12.424,,650,190,-101
17:32:12.461,,694,267,-95
17:32:12.497,,783,334,-79
17:32:12.534,,829,343,20
17:32:12.571,,1242,470,59
17:32:12.608,,1277,577,154
17:32:12.645,,958,455,311
17:32:12.681,,1084,459,361
17:32:12.718,,1045,637,308
17:32:12.755,,885,495,224
17:32:12.791,,806,472,119
17:32:12.828,,835,521,23
17:32:12.864,,912,605,34
17:32:12.901,,837,684,52
17:32:12.938,,734,712,97
17:32:12.974,,722,713,139
17:32:13.011,,794,731,153
17:32:13.048,,874,643,122
17:32:13.085,,828,496,113
17:32:13.122,,1048,662,194
17:32:13.158,,1118,818,312
17:32:13.195,,1062,762,409
17:32:13.232,,1251,966,666
17:32:13.268,,1255,1020,709
17:32:13.304,,1294,961,525
17:32:13.341,,1277,869,273
17:32:13.378,,1128,441,11
17:32:13.414,,996,405,-93
17:32:13.450,,870,284,-183
17:32:13.486,,709,39,-259
17:32:13.521,,596,-29,-313
17:32:13.558,,537,13,-283
17:32:13.594,,495,133,-173
17:32:13.630,,624,336,-57
17:32:13.666,,715,556,130
17:32:13.703,,588,801,444
17:32:13.739,,929,765,570
17:32:13.776,,1290,426,456
17:32:13.813,,1532,15,457
17:32:13.850,,1520,-149,458
17:32:13.886,,1351,0,321
17:32:13.923,,1251,415,213
17:32:13.960,,1097,899,283
17:32:13.997,,809,1231,307
17:32:14.034,,669,1201,266
17:32:14.070,,740,1215,293
17:32:14.107,,880,994,282
17:32:14.144,,1076,701,247
17:32:14.181,,1207,616,312
17:32:14.217,,1344,469,244
17:32:14.254,,1363,447,212
17:32:14.291,,1433,453,142
17:32:14.327,,1412,606,82
17:32:14.363,,1269,573,-14
17:32:14.399,,1108,462,-78
17:32:14.436,,959,409,-102
17:32:14.472,,889,368,-135
17:32:14.509,,819,302,-136
17:32:14.546,,749,257,-117
17:32:14.582,,673,239,-72
17:32:14.619,,498,301,185
17:32:14.656,,542,375,278
17:32:14.693,,828,374,199
17:32:14.730,,1127,402,173
17:32:14.767,,1204,448,354
17:32:14.803,,1439,503,396
17:32:14.840,,1678,654,203
17:32:14.877,,1427,557,-4
17:32:14.913,,1082,595,80
17:32:14.950,,943,596,56
17:32:14.986,,851,595,-90
17:32:15.022,,741,645,-14
17:32:15.058,,641,689,68
17:32:15.095,,615,718,78
17:32:15.131,,686,726,119
17:32:15.167,,835,749,148
17:32:15.204,,1015,642,107
17:32:15.240,,1399,717,225
17:32:15.276,,1374,652,240
17:32:15.312,,1260,453,99
17:32:15.349,,1136,399,58
17:32:15.385,,1190,505,16
17:32:15.421,,1081,564,0
17:32:15.458,,985,447,-55
17:32:15.494,,932,313,-88
17:32:15.531,,887,288,-113
17:32:15.568,,866,270,-122
17:32:15.604,,775,256,-116
17:32:15.641,,594,297,-45
17:32:15.678,,576,387,53
17:32:15.715,,607,406,76
17:32:15.752,,637,400,62
17:32:15.789,,846,352,28
17:32:15.825,,1247,466,24
17:32:15.862,,1147,451,69
17:32:15.899,,1152,473,124
17:32:15.936,,1310,661,162
17:32:15.972,,1224,720,85
17:32:16.009,,945,564,84
17:32:16.046,,785,481,111
17:32:16.083,,777,461,67
17:32:16.119,,784,438,89
17:32:16.156,,726,464,161
17:32:16.193,,665,574,204
17:32:16.230,,729,570,210
17:32:16.266,,856,645,253
17:32:16.303,,1022,720,277
17:32:16.340,,1029,648,235
17:32:16.376,,1076,585,186
17:32:16.413,,1192,755,220
17:32:16.450,,1233,686,51
17:32:16.487,,1324,549,-73
17:32:16.524,,1294,525,-47
17:32:16.560,,1110,355,-32
17:32:16.597,,964,262,-47
17:32:16.634,,880,270,-98
17:32:16.671,,855,314,-146
17:32:16.707,,755,339,-160
17:32:16.744,,484,392,-51
17:32:16.781,,530,574,115
17:32:16.818,,545,543,156
17:32:16.855,,565,451,73
17:32:16.892,,687,356,25
17:32:16.928,,818,349,99
17:32:16.965,,981,267,60
17:32:17.002,,1062,332,-17
17:32:17.039,,1230,461,20
17:32:17.076,,1604,696,86
17:32:17.112,,1327,652,2
17:32:17.149,,817,496,40
17:32:17.186,,631,519,157
17:32:17.223,,654,554,125
17:32:17.259,,704,525,78
17:32:17.296,,590,465,100
17:32:17.333,,607,509,165
17:32:17.370,,693,579,198
17:32:17.406,,776,627,214
17:32:17.443,,1029,668,116
17:32:17.480,,1923,894,119
17:32:17.517,,1902,-94,-185
17:32:17.554,,1730,-83,142
17:32:17.590,,1585,247,57
17:32:17.627,,1244,44,-14
17:32:17.664,,899,-29,-27
17:32:17.700,,712,21,-61
17:32:17.737,,632,39,-58
17:32:17.774,,617,75,-97
17:32:17.810,,785,162,-153
17:32:17.847,,881,187,-212
17:32:17.884,,872,262,-199
17:32:17.920,,754,319,-151
17:32:17.956,,610,502,-180
17:32:17.992,,370,857,-186
17:32:18.029,,-31,1039,-160
17:32:18.065,,-22,891,-254
17:32:18.101,,231,790,-270
17:32:18.138,,411,581,-215
17:32:18.175,,434,397,-235
17:32:18.212,,502,133,-320
17:32:18.248,,567,109,-279
17:32:18.285,,686,81,-285
17:32:18.322,,1018,75,-363
17:32:18.359,,1387,257,-377
17:32:18.396,,1350,243,-448
17:32:18.432,,1284,131,-372
17:32:18.469,,1401,157,-353
17:32:18.506,,1517,64,-295
17:32:18.543,,1597,111,-404
17:32:18.580,,1705,167,-444
17:32:18.617,,1736,532,-901
17:32:18.653,,1684,433,-107
17:32:18.690,,1653,488,-121
17:32:18.727,,1407,925,-250
17:32:18.764,,1281,715,-350
17:32:18.801,,1271,606,-411
17:32:18.838,,1144,580,-351
17:32:18.875,,1025,466,-237
17:32:18.911,,858,183,-236
17:32:18.948,,787,363,-395
17:32:18.985,,782,332,-578
17:32:19.022,,746,322,-433
17:32:19.059,,653,107,-356
17:32:19.095,,603,-109,-302
17:32:19.132,,540,-13,-402
17:32:19.169,,365,-23,-426
17:32:19.206,,220,-1,-344
17:32:19.243,,199,133,-227
17:32:19.279,,411,153,-300
17:32:19.316,,932,65,-363
17:32:19.353,,1229,230,-353
17:32:19.390,,1374,442,-280
17:32:19.426,,930,482,-170
17:32:19.463,,559,397,-147
17:32:19.500,,348,478,-61
17:32:19.536,,272,374,-121
17:32:19.573,,248,402,-170
17:32:19.609,,317,557,-422
17:32:19.645,,464,668,-727
17:32:19.682,,693,673,-849
17:32:19.718,,801,664,-908
17:32:19.755,,966,645,-1122
17:32:19.791,,1066,577,-1086
17:32:19.828,,1017,510,-847
17:32:19.864,,861,422,-778
17:32:19.901,,753,368,-809
17:32:19.938,,647,552,-472
17:32:19.975,,507,130,-262
17:32:20.012,,233,345,-248
17:32:20.049,,-26,521,-503
17:32:20.085,,29,364,-432
17:32:20.122,,109,371,-279
17:32:20.159,,296,352,-289
17:32:20.196,,520,393,-349
17:32:20.233,,798,590,-393
17:32:20.269,,938,714,-381
17:32:20.306,,1092,640,-330
17:32:20.343,,1449,621,-398
17:32:20.380,,1403,543,-337
17:32:20.417,,1166,713,-156
17:32:20.454,,1135,766,-31
17:32:20.490,,1013,558,-146
17:32:20.527,,804,338,-228
17:32:20.564,,721,380,-236
17:32:20.601,,692,386,-240
17:32:20.638,,636,358,-234
17:32:20.674,,584,378,-196
17:32:20.711,,576,463,-121
17:32:20.748,,631,566,-46
17:32:20.785,,755,697,45
17:32:20.822,,842,711,110
17:32:20.859,,859,717,125
17:32:20.895,,1080,882,151
17:32:20.932,,1151,973,177
17:32:20.969,,1072,726,148
17:32:21.006,,1130,621,158
17:32:21.043,,1177,541,164
17:32:21.079,,1097,382,160
17:32:21.116,,925,314,136
17:32:21.153,,799,316,98
17:32:21.190,,752,334,47
17:32:21.227,,731,343,0
17:32:21.264,,730,329,-34
17:32:21.300,,772,309,-41
17:32:21.337,,825,311,-52
17:32:21.374,,782,295,-65
17:32:21.411,,947,380,-50
17:32:21.448,,1114,551,-12
17:32:21.485,,1046,602,106
17:32:21.521,,881,615,298
17:32:21.558,,848,593,328
17:32:21.594,,898,509,231
17:32:21.631,,877,386,197
17:32:21.668,,806,377,263
17:32:21.704,,762,429,302
17:32:21.741,,736,481,253
17:32:21.777,,682,555,231
17:32:21.813,,638,662,278
17:32:21.850,,697,786,330
17:32:21.887,,829,846,352
17:32:21.924,,1019,744,308
17:32:21.960,,1119,496,239
17:32:21.997,,1396,400,272
17:32:22.034,,1396,421,362
17:32:22.071,,1201,412,224
17:32:22.108,,1046,422,123
17:32:22.145,,968,557,90
17:32:22.181,,793,553,32
17:32:22.218,,668,545,-167
17:32:22.255,,688,824,-423
17:32:22.292,,609,915,-616
17:32:22.329,,441,1320,-777
17:32:22.366,,140,1233,-578
17:32:22.402,,21,1253,-485
17:32:22.439,,1,1054,-449
17:32:22.476,,56,871,-411
17:32:22.513,,252,742,-185
17:32:22.550,,432,648,-19
17:32:22.587,,598,515,13
17:32:22.624,,626,532,98
17:32:22.660,,527,615,145
17:32:22.697,,476,694,86
17:32:22.734,,481,686,-48
17:32:22.771,,529,693,-149
17:32:22.808,,573,779,-250
17:32:22.844,,574,1084,-232
17:32:22.881,,739,619,543
17:32:22.918,,776,1259,-617
17:32:22.955,,754,1358,-934
17:32:22.992,,625,849,-1103
17:32:23.028,,404,911,-1131
17:32:23.065,,370,664,-909
17:32:23.102,,438,608,-810
17:32:23.139,,705,729,-829
17:32:23.176,,850,780,-823
17:32:23.212,,770,711,-606
17:32:23.249,,669,457,-128
17:32:23.286,,794,605,-468
17:32:23.323,,779,564,-314
17:32:23.359,,615,453,-238
17:32:23.396,,623,400,-231
17:32:23.433,,714,472,-224
17:32:23.470,,862,487,-181
17:32:23.507,,957,517,-86
17:32:23.544,,993,529,55
17:32:23.580,,1081,526,42
17:32:23.617,,1155,592,-184
17:32:23.654,,813,485,-103
17:32:23.691,,678,371,-29
17:32:23.728,,679,413,-314
17:32:23.764,,563,500,-420
17:32:23.801,,450,701,-227
17:32:23.838,,428,719,-170
17:32:23.875,,451,671,-150
17:32:23.911,,514,689,-55
17:32:23.948,,627,744,-8
17:32:23.985,,711,859,-79
17:32:24.022,,767,935,-146
17:32:24.058,,771,920,-76
17:32:24.095,,767,821,13
17:32:24.132,,731,816,-54
17:32:24.169,,793,694,-339
17:32:24.206,,716,583,-384
17:32:24.242,,573,529,-284
17:32:24.279,,542,455,-208
17:32:24.316,,659,426,-285
17:32:24.353,,768,469,-310
17:32:24.389,,743,448,-243
17:32:24.426,,784,461,-101
17:32:24.463,,850,483,-26
17:32:24.500,,895,561,-46
17:32:24.537,,812,617,-105
17:32:24.574,,736,666,-179
17:32:24.610,,717,682,-296
17:32:24.647,,727,745,-385
17:32:24.684,,794,839,-424
17:32:24.721,,825,818,-325
17:32:24.758,,895,793,-259
17:32:24.794,,981,593,-472
17:32:24.830,,689,377,-508
17:32:24.867,,638,386,-448
17:32:24.903,,699,511,-469
17:32:24.940,,615,537,-300
17:32:24.976,,543,547,-350
17:32:25.013,,443,547,-269
17:32:25.049,,470,516,-310
17:32:25.086,,474,545,-327
17:32:25.122,,371,553,-388
17:32:25.159,,348,717,-436
17:32:25.195,,474,830,-486
17:32:25.232,,622,695,-551
17:32:25.268,,633,603,-617
17:32:25.305,,786,778,-607
17:32:25.341,,915,579,-720
17:32:25.378,,799,522,-635
17:32:25.414,,798,506,-595
17:32:25.451,,783,432,-586
17:32:25.487,,706,346,-493
17:32:25.524,,691,274,-478
17:32:25.560,,668,189,-392
17:32:25.597,,690,180,-405
17:32:25.633,,775,171,-423
17:32:25.670,,774,195,-523
17:32:25.707,,767,345,-567
17:32:25.743,,728,399,-632
17:32:25.780,,726,478,-707
17:32:25.817,,939,546,-899
17:32:25.854,,839,576,-931
17:32:25.891,,646,594,-862
17:32:25.928,,635,754,-777
17:32:25.964,,694,553,-511
17:32:26.001,,555,489,-379
17:32:26.038,,310,305,-232
17:32:26.075,,253,274,76
17:32:26.112,,386,152,23
17:32:26.148,,465,223,-216
17:32:26.185,,513,347,-359
17:32:26.222,,607,680,-489
17:32:26.258,,726,887,-519
17:32:26.294,,866,631,-533
17:32:26.331,,882,731,-621
17:32:26.367,,1067,1090,-463
17:32:26.403,,939,1171,-287
17:32:26.440,,895,541,178
17:32:26.477,,722,1024,128
17:32:26.513,,703,865,-26
17:32:26.550,,700,663,-44
17:32:26.587,,732,530,-109
17:32:26.624,,757,509,-86
17:32:26.661,,813,403,-52
17:32:26.697,,872,218,-7
17:32:26.734,,908,158,43
17:32:26.771,,953,210,35
17:32:26.808,,985,337,-22
17:32:26.845,,953,447,-60
17:32:26.881,,894,563,9
17:32:26.918,,1046,637,53
17:32:26.955,,1112,650,80
17:32:26.992,,743,509,144
17:32:27.028,,646,343,197
17:32:27.065,,808,448,204
17:32:27.102,,834,313,125
17:32:27.138,,721,-2,-10
17:32:27.174,,664,366,-49
17:32:27.211,,673,569,-191
17:32:27.247,,644,787,-297
17:32:27.284,,620,872,-265
17:32:27.320,,663,800,-127
17:32:27.357,,796,600,30
17:32:27.393,,933,607,146
17:32:27.429,,1016,466,171
17:32:27.466,,1252,431,150
17:32:27.502,,1206,653,244
17:32:27.538,,1008,610,188
17:32:27.574,,903,564,174
17:32:27.611,,941,591,171
17:32:27.647,,927,545,143
17:32:27.684,,847,439,99
17:32:27.721,,800,389,55
17:32:27.757,,770,383,13
17:32:27.794,,780,357,-28
17:32:27.831,,776,322,-41
17:32:27.868,,827,310,-41
17:32:27.904,,889,334,-26
17:32:27.941,,919,331,-37
17:32:27.978,,931,368,-4
17:32:28.015,,1180,494,0
17:32:28.051,,1026,505,91
17:32:28.088,,817,445,186
17:32:28.125,,833,506,238
17:32:28.161,,924,591,226
17:32:28.198,,849,443,168
17:32:28.235,,704,375,191
17:32:28.272,,652,394,231
17:32:28.308,,700,414,185
17:32:28.345,,735,481,177
17:32:28.381,,686,537,226
17:32:28.417,,731,573,261
17:32:28.453,,878,629,284
17:32:28.490,,972,663,293
17:32:28.526,,972,601,256
17:32:28.562,,1152,723,251
17:32:28.599,,1209,746,230
17:32:28.635,,984,603,148
17:32:28.671,,915,542,121
17:32:28.708,,941,516,104
17:32:28.744,,883,447,52
17:32:28.781,,801,375,15
17:32:28.818,,759,357,-9
17:32:28.854,,783,347,-28
17:32:28.891,,790,360,-14
17:32:28.928,,821,367,-10
17:32:28.965,,872,369,0
17:32:29.002,,940,364,11
17:32:29.038,,936,352,42
17:32:29.075,,1051,397,82
17:32:29.112,,1205,512,127
17:32:29.149,,965,464,222
17:32:29.185,,817,439,307
17:32:29.222,,858,416,249
17:32:29.259,,843,369,129
17:32:29.296,,781,435,147
17:32:29.332,,723,506,193
17:32:29.369,,736,528,166
17:32:29.405,,749,546,150
17:32:29.441,,745,593,215
17:32:29.477,,788,651,293
17:32:29.514,,811,662,279
17:32:29.550,,913,627,224
17:32:29.587,,945,542,160
17:32:29.623,,1028,580,132
17:32:29.660,,1197,724,211
17:32:29.697,,1323,707,203
17:32:29.733,,1328,551,203
17:32:29.770,,1303,485,183
17:32:29.807,,1285,455,143
17:32:29.843,,1102,406,90
17:32:29.880,,858,367,53
17:32:29.917,,641,326,11
17:32:29.954,,482,271,-44
17:32:29.991,,405,233,-87
17:32:30.027,,399,236,-112
17:32:30.064,,490,269,-107
17:32:30.101,,676,359,-79
17:32:30.138,,831,451,0
17:32:30.174,,1160,559,70
17:32:30.211,,1483,743,140
17:32:30.248,,1179,602,220
17:32:30.285,,1108,343,249
17:32:30.322,,1091,326,203
17:32:30.358,,930,268,149
17:32:30.395,,770,326,187
17:32:30.432,,696,464,198
17:32:30.468,,610,538,152
17:32:30.505,,574,540,141
17:32:30.542,,590,585,167
17:32:30.579,,703,601,196
17:32:30.615,,905,691,284
17:32:30.652,,1130,756,356
17:32:30.689,,1383,627,327
17:32:30.726,,1618,596,369
17:32:30.762,,1339,355,210
17:32:30.799,,1115,343,128
17:32:30.835,,965,538,110
17:32:30.872,,787,622,36
17:32:30.908,,590,651,-65
17:32:30.944,,492,604,-237
17:32:30.981,,519,669,-391
17:32:31.018,,496,659,-479
17:32:31.054,,442,707,-654
17:32:31.091,,476,818,-648
17:32:31.128,,532,743,-532
17:32:31.165,,589,558,-132
17:32:31.202,,617,445,109
17:32:31.239,,840,566,46
17:32:31.275,,975,1130,60
17:32:31.312,,793,1187,246
17:32:31.349,,618,1278,170
17:32:31.386,,521,1207,58
17:32:31.423,,281,985,-5
17:32:31.460,,60,816,-41
17:32:31.496,,-68,823,-12
17:32:31.533,,-176,798,-27
17:32:31.570,,-301,857,-59
17:32:31.607,,-518,878,56
17:32:31.644,,-708,1017,142
17:32:31.680,,-799,1129,88
17:32:31.717,,-768,1287,61
17:32:31.754,,-785,1159,28
17:32:31.791,,-911,1245,-16
17:32:31.828,,-804,1037,-5
17:32:31.864,,-684,842,29
17:32:31.901,,-681,457,23
17:32:31.937,,-582,424,45
17:32:31.974,,-417,282,87
17:32:32.010,,-345,187,113
17:32:32.046,,-184,-55,293
17:32:32.083,,-549,239,93
17:32:32.120,,-787,508,220
17:32:32.156,,-825,275,416
17:32:32.193,,-904,270,253
17:32:32.230,,-874,410,327
17:32:32.267,,-947,440,282
17:32:32.303,,-1017,427,198
17:32:32.340,,-962,692,221
17:32:32.377,,-970,724,220
17:32:32.414,,-596,536,332
17:32:32.450,,-486,844,285
17:32:32.487,,-543,832,246
17:32:32.523,,-686,415,303
17:32:32.559,,-797,410,237
17:32:32.595,,-906,258,203
17:32:32.631,,-990,300,257
17:32:32.668,,-1021,227,323
17:32:32.705,,-1038,232,407
17:32:32.741,,-1090,201,400
17:32:32.778,,-1072,233,360
17:32:32.814,,-957,-103,482
17:32:32.851,,-1137,108,463
17:32:32.887,,-1211,237,333
17:32:32.924,,-1014,148,273
17:32:32.960,,-1011,35,170
17:32:32.997,,-952,50,96
17:32:33.033,,-801,281,160
17:32:33.069,,-680,197,352
17:32:33.106,,-683,302,446
17:32:33.142,,-749,203,444
17:32:33.179,,-815,213,418
17:32:33.215,,-885,183,388
17:32:33.252,,-921,124,489
17:32:33.288,,-967,93,417
17:32:33.325,,-979,93,459
17:32:33.362,,-1114,296,521
17:32:33.398,,-1147,237,548
17:32:33.435,,-1006,219,676
17:32:33.472,,-891,206,694
17:32:33.508,,-751,223,637
17:32:33.545,,-645,209,481
17:32:33.581,,-586,132,322
17:32:33.618,,-556,-140,292
17:32:33.654,,-559,-159,330
17:32:33.691,,-605,-74,443
17:32:33.727,,-708,61,483
17:32:33.763,,-841,77,436
17:32:33.800,,-908,207,318
17:32:33.837,,-914,394,72
17:32:33.873,,-1065,723,-197
17:32:33.910,,-1156,789,-150
17:32:33.947,,-1299,828,-170
17:32:33.984,,-1131,590,-329
17:32:34.020,,-1054,879,-605
17:32:34.057,,-851,557,-709
17:32:34.094,,-611,469,-518
17:32:34.131,,-380,319,-317
17:32:34.168,,-253,190,-233
17:32:34.204,,-206,231,-189
17:32:34.241,,-168,220,-160
17:32:34.278,,-139,360,-160
17:32:34.315,,-55,417,-177
17:32:34.351,,139,402,-330
17:32:34.388,,375,643,-409
17:32:34.425,,628,751,-609
17:32:34.462,,953,1013,-693
17:32:34.498,,1287,1120,-688
17:32:34.535,,1391,1109,-305
17:32:34.572,,1604,940,25
17:32:34.608,,1575,797,122
17:32:34.645,,1225,696,78
17:32:34.681,,875,541,-13
17:32:34.718,,761,673,-27
17:32:34.754,,711,637,19
17:32:34.790,,654,715,49
17:32:34.826,,607,631,144
17:32:34.863,,689,663,178
17:32:34.899,,775,767,185
17:32:34.935,,876,809,179
17:32:34.972,,1009,753,170
17:32:35.008,,1176,850,211
17:32:35.044,,1165,739,114
17:32:35.081,,1181,607,23
17:32:35.118,,1226,634,22
17:32:35.155,,1252,610,30
17:32:35.191,,1203,403,-25
17:32:35.228,,1106,282,-31
17:32:35.265,,1019,296,-46
17:32:35.302,,947,307,-84
17:32:35.339,,821,342,-84
17:32:35.375,,713,329,-79
17:32:35.412,,648,328,-66
17:32:35.449,,617,309,-46
17:32:35.486,,578,301,21
17:32:35.523,,815,429,94
17:32:35.560,,947,552,165
17:32:35.596,,920,502,211
17:32:35.633,,1085,480,268
17:32:35.670,,1354,677,257
17:32:35.706,,1336,659,165
17:32:35.743,,1017,574,96
17:32:35.779,,812,542,87
17:32:35.816,,800,494,59
17:32:35.852,,819,484,14
17:32:35.888,,722,573,43
17:32:35.924,,754,651,85
17:32:35.961,,840,827,154
17:32:35.997,,829,891,220
17:32:36.033,,911,817,224
17:32:36.069,,1214,922,276
17:32:36.106,,1192,701,235
17:32:36.142,,1010,538,208
17:32:36.178,,1004,535,142
17:32:36.215,,1053,538,96
17:32:36.252,,994,481,46
17:32:36.288,,948,406,9
17:32:36.325,,915,362,-19
17:32:36.362,,908,344,-51
17:32:36.399,,865,319,-61
17:32:36.435,,832,339,-41
17:32:36.472,,840,365,2
17:32:36.509,,811,357,20
17:32:36.546,,773,353,56
17:32:36.583,,865,393,106
17:32:36.619,,943,468,135
17:32:36.656,,836,402,187
17:32:36.693,,764,388,256
17:32:36.730,,844,449,230
17:32:36.767,,961,557,196
17:32:36.803,,890,577,212
17:32:36.840,,854,573,224
17:32:36.877,,864,532,163
17:32:36.913,,847,511,145
17:32:36.950,,783,566,219
17:32:36.986,,847,655,278
17:32:37.022,,923,774,296
17:32:37.058,,959,764,265
17:32:37.094,,1104,718,198
17:32:37.131,,1222,819,241
17:32:37.167,,1103,660,152
17:32:37.203,,942,551,109
17:32:37.239,,986,583,75
17:32:37.276,,1042,563,14
17:32:37.313,,1023,455,-22
17:32:37.350,,969,358,-38
17:32:37.386,,927,309,-63
17:32:37.423,,905,287,-91
17:32:37.460,,841,295,-92
17:32:37.497,,780,336,-54
17:32:37.534,,768,385,-8
17:32:37.571,,710,361,0
17:32:37.607,,711,371,66
17:32:37.644,,906,463,158
17:32:37.681,,981,507,173
17:32:37.718,,871,388,167
17:32:37.755,,884,381,248
17:32:37.791,,1019,536,244
17:32:37.828,,1075,589,180
17:32:37.865,,943,575,155
17:32:37.902,,808,523,140
17:32:37.938,,780,464,71
17:32:37.975,,788,472,41
17:32:38.011,,739,499,94
17:32:38.047,,719,581,126
17:32:38.084,,841,748,198
17:32:38.120,,945,891,238
17:32:38.156,,974,814,241
17:32:38.192,,1210,764,261
17:32:38.229,,1212,702,306
17:32:38.265,,1093,497,240
17:32:38.301,,956,496,223
17:32:38.337,,991,532,136
17:32:38.374,,984,603,91
17:32:38.410,,911,519,36
17:32:38.447,,878,437,1
17:32:38.484,,836,354,-42
17:32:38.521,,832,276,-87
17:32:38.557,,805,260,-82
17:32:38.594,,771,279,-62
17:32:38.631,,731,329,-26
17:32:38.668,,746,358,-2
17:32:38.705,,748,405,54
17:32:38.741,,934,481,101
17:32:38.778,,1016,518,103
17:32:38.815,,898,458,135
17:32:38.852,,897,450,221
17:32:38.888,,976,574,229
17:32:38.925,,1023,579,186
17:32:38.962,,925,525,172
17:32:38.999,,829,521,172
17:32:39.035,,785,527,183
17:32:39.072,,737,562,170
17:32:39.109,,733,579,169
17:32:39.145,,791,630,215
17:32:39.182,,873,655,266
17:32:39.219,,1007,698,289
17:32:39.256,,1083,617,261
17:32:39.292,,1213,567,251
17:32:39.329,,1276,648,312
17:32:39.366,,1141,546,220
17:32:39.402,,1082,491,173
17:32:39.439,,1046,524,133
17:32:39.475,,887,465,55
17:32:39.512,,696,371,5
17:32:39.549,,598,389,-18
17:32:39.585,,606,400,-55
17:32:39.622,,723,425,-99
17:32:39.659,,796,444,-79
17:32:39.696,,846,411,-26
17:32:39.733,,876,366,24
17:32:39.769,,849,327,52
17:32:39.806,,871,344,86
17:32:39.843,,1068,418,95
17:32:39.880,,1146,522,123
17:32:39.916,,864,421,177
17:32:39.953,,818,409,187
17:32:39.990,,825,543,177
17:32:40.027,,807,502,174
17:32:40.063,,737,468,209
17:32:40.100,,751,513,211
17:32:40.137,,786,551,262
17:32:40.174,,833,549,267
17:32:40.210,,838,473,228
17:32:40.247,,800,479,249
17:32:40.283,,780,556,285
17:32:40.319,,934,739,333
17:32:40.355,,991,708,275
17:32:40.392,,1220,749,263
17:32:40.428,,1196,775,293
17:32:40.465,,1021,521,88
17:32:40.502,,1026,502,61
17:32:40.538,,1036,528,112
17:32:40.575,,926,437,32
17:32:40.612,,850,329,-9
17:32:40.649,,825,323,-42
17:32:40.686,,797,336,-79
17:32:40.722,,789,350,-96
17:32:40.759,,835,348,-101
17:32:40.796,,872,355,-64
17:32:40.833,,874,364,-13
17:32:40.870,,888,405,42
17:32:40.907,,900,437,85
17:32:40.943,,1140,494,115
17:32:40.980,,1032,466,156
17:32:41.017,,791,344,201
17:32:41.054,,782,394,261
17:32:41.090,,866,498,226
17:32:41.127,,867,466,176
17:32:41.164,,768,436,154
17:32:41.201,,701,430,169
17:32:41.237,,746,476,191
17:32:41.274,,797,488,141
17:32:41.311,,810,530,186
17:32:41.348,,837,576,258
17:32:41.384,,892,671,306
17:32:41.421,,1030,771,326
17:32:41.458,,1039,678,264
17:32:41.495,,1104,582,185
17:32:41.531,,1076,694,257
17:32:41.568,,954,601,160
17:32:41.605,,1011,557,81
17:32:41.642,,1039,593,62
17:32:41.678,,1000,547,36
17:32:41.715,,926,433,6
17:32:41.752,,865,367,-25
17:32:41.789,,867,330,-50
17:32:41.825,,887,322,-62
17:32:41.862,,829,328,-28
17:32:41.899,,803,343,8
17:32:41.936,,831,375,28
17:32:41.973,,834,379,36
17:32:42.009,,830,376,92
17:32:42.046,,1035,467,129
17:32:42.083,,978,461,143
17:32:42.120,,845,430,206
17:32:42.157,,820,443,247
17:32:42.193,,928,521,198
17:32:42.230,,962,514,174
17:32:42.267,,857,456,158
17:32:42.304,,772,415,139
17:32:42.340,,783,409,117
17:32:42.377,,808,461,101
17:32:42.414,,755,535,148
17:32:42.451,,750,617,236
17:32:42.488,,803,724,342
17:32:42.524,,913,768,365
17:32:42.561,,970,678,296
17:32:42.598,,1122,604,195
17:32:42.635,,1115,710,227
17:32:42.671,,1076,632,111
17:32:42.708,,1082,572,53
17:32:42.745,,1047,524,37
17:32:42.782,,1084,437,-3
17:32:42.818,,1069,409,-32
17:32:42.855,,989,364,-50
17:32:42.892,,952,321,-66
17:32:42.929,,883,325,-74
17:32:42.966,,679,416,21
17:32:43.003,,663,528,175
17:32:43.039,,674,492,164
17:32:43.076,,616,388,90
17:32:43.113,,633,290,106
17:32:43.150,,858,278,129
17:32:43.187,,1101,359,120
17:32:43.224,,1018,315,82
17:32:43.261,,1079,325,36
17:32:43.297,,1217,532,31
17:32:43.334,,1119,676,15
17:32:43.371,,877,658,42
17:32:43.408,,776,629,7
17:32:43.444,,764,570,-15
17:32:43.481,,790,451,17
17:32:43.518,,802,408,88
17:32:43.555,,834,424,160
17:32:43.591,,827,571,212
17:32:43.628,,884,706,228
17:32:43.665,,991,781,221
17:32:43.702,,1235,741,173
17:32:43.738,,1234,751,235
17:32:43.775,,1034,547,122
17:32:43.812,,1038,455,62
17:32:43.849,,1104,525,99
17:32:43.885,,1085,546,52
17:32:43.922,,1025,415,-9
17:32:43.959,,917,264,-19
17:32:43.996,,871,312,-32
17:32:44.033,,846,325,-85
17:32:44.069,,802,319,-85
17:32:44.106,,769,307,-71
17:32:44.143,,796,320,-61
17:32:44.180,,779,317,-43
17:32:44.217,,740,336,30
17:32:44.254,,988,457,71
17:32:44.290,,976,513,69
17:32:44.327,,891,449,113
17:32:44.364,,1072,491,194
17:32:44.401,,1167,627,186
17:32:44.437,,1000,503,151
17:32:44.474,,784,392,125
17:32:44.511,,731,401,93
17:32:44.548,,786,469,83
17:32:44.584,,815,553,138
17:32:44.621,,802,591,190
17:32:44.658,,834,700,236
17:32:44.694,,875,698,277
17:32:44.731,,931,716,268
17:32:44.767,,1052,598,153
17:32:44.804,,1278,753,212
17:32:44.841,,1130,688,115
17:32:44.878,,1062,526,18
17:32:44.914,,1061,569,77
17:32:44.951,,1052,507,31
17:32:44.988,,983,398,-13
17:32:45.025,,931,344,-33
17:32:45.061,,898,331,-49
17:32:45.098,,868,321,-65
17:32:45.135,,801,309,-55
17:32:45.172,,761,320,-14
17:32:45.209,,797,365,10
17:32:45.245,,773,368,28
17:32:45.282,,717,338,69
17:32:45.319,,927,383,79
17:32:45.356,,1018,499,90
17:32:45.393,,861,431,119
17:32:45.429,,985,442,162
17:32:45.466,,1123,582,151
17:32:45.503,,1077,571,115
17:32:45.539,,916,473,130
17:32:45.576,,807,445,127
17:32:45.613,,794,465,119
17:32:45.650,,815,519,136
17:32:45.686,,767,561,185
17:32:45.723,,813,668,252
17:32:45.759,,850,763,305
17:32:45.796,,971,738,302
17:32:45.833,,1031,593,208
17:32:45.869,,1252,638,213
17:32:45.906,,1171,665,191
17:32:45.943,,997,546,57
17:32:45.980,,1055,606,15
17:32:46.016,,1054,625,-33
17:32:46.053,,969,506,-87
17:32:46.090,,894,372,-109
17:32:46.127,,855,301,-101
17:32:46.163,,846,271,-98
17:32:46.200,,816,274,-86
17:32:46.237,,771,310,-46
17:32:46.274,,827,342,-15
17:32:46.310,,817,336,-12
17:32:46.347,,793,353,40
17:32:46.384,,942,375,97
17:32:46.421,,1085,451,123
17:32:46.458,,935,443,162
17:32:46.494,,949,447,206
17:32:46.531,,1061,582,238
17:32:46.568,,1024,620,226
17:32:46.604,,853,473,192
17:32:46.641,,715,471,184
17:32:46.678,,719,493,130
17:32:46.715,,746,483,126
17:32:46.751,,702,520,158
17:32:46.788,,733,560,207
17:32:46.825,,852,623,250
17:32:46.862,,966,671,255
17:32:46.898,,986,577,223
17:32:46.935,,1116,593,148
17:32:46.972,,1159,732,205
17:32:47.008,,1013,645,61
17:32:47.045,,978,550,2
17:32:47.082,,1017,593,-9
17:32:47.119,,1007,552,-33
17:32:47.155,,936,389,-56
17:32:47.192,,890,301,-52
17:32:47.229,,858,278,-29
17:32:47.266,,829,268,-3
17:32:47.302,,768,334,46
17:32:47.339,,741,348,47
17:32:47.376,,776,372,47
17:32:47.413,,784,381,39
17:32:47.449,,775,329,47
17:32:47.486,,927,387,95
17:32:47.523,,1209,497,81
17:32:47.560,,1036,459,56
17:32:47.596,,994,456,75
17:32:47.633,,1196,725,153
17:32:47.670,,1079,740,74
17:32:47.706,,782,439,-10
17:32:47.743,,708,435,47
17:32:47.780,,691,447,32
17:32:47.817,,709,421,-9
17:32:47.853,,693,472,43
17:32:47.890,,803,537,110
17:32:47.927,,887,629,141
17:32:47.963,,994,656,144
17:32:48.000,,1111,652,148
17:32:48.036,,1230,722,200
17:32:48.073,,1085,646,117
17:32:48.109,,1012,555,31
17:32:48.146,,993,573,22
17:32:48.183,,944,559,-13
17:32:48.220,,885,418,-48
17:32:48.256,,867,297,-45
17:32:48.293,,868,341,-59
17:32:48.330,,890,337,-65
17:32:48.367,,863,299,-53
17:32:48.403,,780,314,-22
17:32:48.440,,784,322,-16
17:32:48.477,,794,330,-20
17:32:48.514,,795,351,14
17:32:48.550,,942,394,50
17:32:48.587,,1117,449,14
17:32:48.624,,964,468,47
17:32:48.660,,954,464,88
17:32:48.697,,1110,552,92
17:32:48.734,,1055,566,75
17:32:48.771,,802,424,61
17:32:48.807,,698,405,70
17:32:48.844,,712,419,81
17:32:48.881,,747,432,82
17:32:48.917,,738,468,107
17:32:48.954,,744,534,181
17:32:48.991,,810,645,255
17:32:49.027,,917,741,284
17:32:49.064,,1010,703,268
17:32:49.101,,1103,577,184
17:32:49.138,,1184,629,203
17:32:49.174,,1075,651,113
17:32:49.211,,1050,520,-31
17:32:49.248,,1052,547,2
17:32:49.284,,1012,484,-4
17:32:49.321,,911,397,-25
17:32:49.358,,854,345,-54
17:32:49.395,,856,332,-78
17:32:49.431,,853,321,-97
17:32:49.468,,810,312,-88
17:32:49.505,,810,320,-58
17:32:49.541,,865,353,-33
17:32:49.578,,856,367,-12
17:32:49.615,,843,349,72
17:32:49.652,,1084,447,109
17:32:49.688,,1020,452,101
17:32:49.725,,902,422,176
17:32:49.762,,994,507,256
17:32:49.798,,1000,626,254
17:32:49.835,,856,507,185
17:32:49.872,,716,383,123
17:32:49.908,,693,400,111
17:32:49.945,,765,461,126
17:32:49.982,,747,534,169
17:32:50.019,,724,618,207
17:32:50.055,,824,645,251
17:32:50.092,,946,676,265
17:32:50.129,,982,644,217
17:32:50.165,,1070,551,135
17:32:50.202,,1206,649,167
17:32:50.239,,1133,669,112
17:32:50.276,,1047,555,27
17:32:50.312,,1047,545,34
17:32:50.349,,1032,497,5
17:32:50.386,,971,434,-9
17:32:50.422,,925,357,-15
17:32:50.459,,889,321,-30
17:32:50.496,,865,315,-25
17:32:50.532,,766,312,7
17:32:50.569,,670,333,55
17:32:50.606,,644,359,89
17:32:50.643,,635,351,81
17:32:50.679,,639,363,104
17:32:50.716,,793,421,159
17:32:50.753,,1152,525,93
17:32:50.789,,1224,597,136
17:32:50.826,,1153,609,209
17:32:50.863,,1236,729,212
17:32:50.899,,1086,633,97
17:32:50.936,,858,352,24
17:32:50.973,,763,365,49
17:32:51.010,,698,368,41
17:32:51.046,,683,439,6
17:32:51.083,,660,536,47
17:32:51.119,,610,561,127
17:32:51.155,,679,590,198
17:32:51.192,,806,636,220
17:32:51.228,,952,660,222
17:32:51.264,,983,600,233
17:32:51.301,,1185,623,209
17:32:51.337,,1171,699,250
17:32:51.373,,1006,559,150
17:32:51.410,,996,507,116
17:32:51.447,,1017,527,114
17:32:51.484,,937,460,67
17:32:51.520,,819,367,23
17:32:51.557,,756,325,2
17:32:51.594,,772,320,-15
17:32:51.631,,785,320,-16
17:32:51.667,,761,304,-1
17:32:51.704,,796,331,20
17:32:51.741,,809,361,28
17:32:51.778,,805,361,56
17:32:51.814,,883,393,97
17:32:51.851,,1202,515,84
17:32:51.888,,1139,526,141
17:32:51.924,,900,451,237
17:32:51.961,,923,436,239
17:32:51.998,,1002,488,164
17:32:52.035,,904,421,123
17:32:52.071,,742,394,123
17:32:52.108,,677,409,109
17:32:52.145,,703,437,92
17:32:52.181,,699,476,81
17:32:52.218,,661,474,104
17:32:52.254,,748,527,150
17:32:52.290,,877,620,190
17:32:52.327,,991,698,221
17:32:52.363,,1044,690,233
17:32:52.399,,1279,731,252
17:32:52.435,,1177,718,302
17:32:52.472,,985,528,217
17:32:52.508,,977,517,214
17:32:52.545,,1072,559,208
17:32:52.582,,1003,491,136
17:32:52.618,,814,360,52
17:32:52.655,,694,313,15
17:32:52.692,,673,333,-21
17:32:52.729,,696,360,-59
17:32:52.765,,730,330,-74
17:32:52.802,,846,345,-70
17:32:52.839,,962,376,-37
17:32:52.876,,909,342,-19
17:32:52.913,,934,410,22
17:32:52.949,,1200,498,23
17:32:52.986,,1111,559,133
17:32:53.023,,740,366,242
17:32:53.060,,859,372,253
17:32:53.096,,958,488,233
17:32:53.133,,888,353,193
17:32:53.170,,701,357,231
17:32:53.207,,608,357,224
17:32:53.243,,618,420,169
17:32:53.280,,571,681,121
17:32:53.316,,572,749,166
17:32:53.352,,676,717,252
17:32:53.388,,886,662,248
17:32:53.425,,1129,656,269
17:32:53.461,,1041,551,279
17:32:53.497,,1277,579,217
17:32:53.534,,1185,677,245
17:32:53.570,,1047,566,91
17:32:53.607,,1091,592,50
17:32:53.644,,991,586,35
17:32:53.681,,871,411,1
17:32:53.717,,813,352,-23
17:32:53.754,,804,333,-62
17:32:53.791,,832,342,-88
17:32:53.828,,821,344,-89
17:32:53.865,,805,339,-75
17:32:53.901,,780,328,-49
17:32:53.938,,752,287,-48
17:32:53.975,,760,298,-20
17:32:54.012,,801,401,85
17:32:54.049,,1094,552,133
17:32:54.086,,1156,621,125
17:32:54.122,,926,556,244
17:32:54.159,,1086,599,333
17:32:54.196,,1085,599,211
17:32:54.233,,873,362,116
17:32:54.270,,661,318,118
17:32:54.306,,616,353,116
17:32:54.343,,639,441,91
17:32:54.380,,612,517,109
17:32:54.417,,665,632,156
17:32:54.453,,891,764,254
17:32:54.490,,1078,847,368
17:32:54.527,,1014,522,290
17:32:54.564,,1181,429,185
17:32:54.601,,1241,586,262
17:32:54.637,,1133,648,201
17:32:54.674,,1006,604,101
17:32:54.711,,986,596,7
17:32:54.748,,896,463,-26
17:32:54.785,,781,334,-48
17:32:54.821,,696,285,-54
17:32:54.858,,736,292,-76
17:32:54.895,,782,318,-90
17:32:54.932,,789,317,-78
17:32:54.969,,810,325,-46
17:32:55.006,,852,350,-13
17:32:55.042,,855,398,58
17:32:55.079,,786,401,140
17:32:55.116,,889,403,146
17:32:55.153,,1103,516,104
17:32:55.190,,890,464,133
17:32:55.227,,930,551,284
17:32:55.263,,1003,707,350
17:32:55.300,,891,558,177
17:32:55.337,,774,352,132
17:32:55.374,,727,403,142
17:32:55.411,,738,403,157
17:32:55.447,,683,497,139
17:32:55.484,,652,521,153
17:32:55.521,,821,607,194
17:32:55.558,,1019,744,335
17:32:55.594,,1097,635,318
17:32:55.631,,1062,434,251
17:32:55.668,,1219,534,268
17:32:55.705,,1132,616,273
17:32:55.741,,1060,597,172
17:32:55.778,,914,520,84
17:32:55.815,,866,498,37
17:32:55.852,,802,411,2
17:32:55.889,,745,339,-54
17:32:55.925,,714,308,-62
17:32:55.962,,734,320,-53
17:32:55.999,,750,334,-54
17:32:56.036,,760,313,-65
17:32:56.073,,803,309,-53
17:32:56.109,,877,333,-14
17:32:56.146,,926,347,42
17:32:56.183,,958,429,152
17:32:56.220,,1221,498,196
17:32:56.256,,1227,566,183
17:32:56.293,,855,425,208
17:32:56.330,,841,516,312
17:32:56.367,,905,638,270
17:32:56.403,,818,508,152
17:32:56.440,,666,419,161
17:32:56.477,,645,406,131
17:32:56.514,,723,424,97
17:32:56.550,,766,483,134
17:32:56.586,,763,503,155
17:32:56.623,,786,551,185
17:32:56.659,,845,639,238
17:32:56.695,,923,700,237
17:32:56.731,,899,605,179
17:32:56.768,,1172,676,153
17:32:56.805,,1242,861,218
17:32:56.842,,1189,692,20
17:32:56.878,,1191,561,-15
17:32:56.915,,1150,449,32
17:32:56.952,,1074,353,24
17:32:56.989,,995,338,-8
17:32:57.025,,948,343,-29
17:32:57.062,,944,341,-56
17:32:57.099,,900,327,-75
17:32:57.136,,781,283,-59
17:32:57.173,,708,291,-13
17:32:57.209,,699,308,13
17:32:57.246,,679,329,61
17:32:57.283,,769,390,160
17:32:57.320,,940,479,173
17:32:57.357,,909,449,195
17:32:57.394,,1027,422,279
17:32:57.430,,1275,566,270
17:32:57.467,,1302,615,186
17:32:57.504,,1040,536,146
17:32:57.540,,816,452,65
17:32:57.577,,791,442,23
17:32:57.613,,826,484,28
17:32:57.649,,767,556,79
17:32:57.686,,761,613,163
17:32:57.722,,825,736,194
17:32:57.758,,883,788,208
17:32:57.795,,889,713,224
17:32:57.831,,1031,657,194
17:32:57.867,,1131,779,281
17:32:57.903,,1023,637,154
17:32:57.940,,1122,574,83
17:32:57.976,,1167,571,80
17:32:58.013,,1077,496,51
17:32:58.050,,970,419,30
17:32:58.086,,926,372,2
17:32:58.123,,925,340,-46
17:32:58.160,,903,305,-69
17:32:58.197,,831,279,-57
17:32:58.234,,792,291,-33
17:32:58.271,,800,320,-8
17:32:58.307,,792,333,16
17:32:58.344,,805,384,109
17:32:58.381,,1030,467,144
17:32:58.418,,1054,493,139
17:32:58.455,,905,376,199
17:32:58.491,,1029,447,278
17:32:58.528,,1110,532,198
17:32:58.565,,982,455,100
17:32:58.602,,821,405,96
17:32:58.638,,770,457,97
17:32:58.675,,789,495,66
17:32:58.711,,778,575,66
17:32:58.747,,723,607,145
17:32:58.784,,798,662,219
17:32:58.820,,915,752,279
17:32:58.856,,950,761,286
17:32:58.893,,1020,653,219
17:32:58.929,,1193,701,210
17:32:58.966,,1180,704,188
17:32:59.003,,1079,567,53
17:32:59.039,,1117,564,8
17:32:59.076,,1053,429,-54
17:32:59.113,,958,341,-59
17:32:59.150,,914,314,-68
17:32:59.186,,900,316,-95
17:32:59.223,,836,314,-86
17:32:59.260,,769,339,-35
17:32:59.297,,768,367,6
17:32:59.334,,743,353,16
17:32:59.371,,721,374,95
17:32:59.407,,907,429,175
17:32:59.444,,1044,491,145
17:32:59.481,,944,417,177
17:32:59.518,,1022,421,256
17:32:59.555,,1153,521,193
17:32:59.591,,1062,499,94
17:32:59.628,,908,446,71
17:32:59.665,,838,506,100
17:32:59.702,,843,538,81
17:32:59.738,,819,518,84
17:32:59.775,,732,581,159
17:32:59.812,,781,656,236
17:32:59.848,,818,773,270
17:32:59.884,,908,773,226
17:32:59.920,,956,651,160
17:32:59.957,,1164,673,129
17:32:59.993,,1143,718,152
17:33:00.030,,1059,603,42
17:33:00.066,,1104,566,8
17:33:00.103,,1119,565,-13
17:33:00.140,,1039,485,-28
17:33:00.177,,990,399,-46
17:33:00.213,,970,362,-66
17:33:00.250,,952,346,-75
17:33:00.287,,901,323,-46
17:33:00.324,,791,320,-13
17:33:00.361,,761,345,26
17:33:00.397,,746,345,45
17:33:00.434,,703,315,47
17:33:00.471,,724,344,124
17:33:00.508,,991,432,92
17:33:00.544,,994,453,59
17:33:00.581,,990,452,122
17:33:00.618,,1176,570,186
17:33:00.655,,1231,701,115
17:33:00.691,,1040,579,50
17:33:00.728,,867,501,63
17:33:00.765,,826,466,62
17:33:00.802,,832,460,32
17:33:00.838,,789,481,83
17:33:00.875,,742,593,140
17:33:00.912,,750,706,206
17:33:00.948,,824,800,226
17:33:00.984,,931,784,210
17:33:01.021,,1036,641,173
17:33:01.058,,1234,710,236
17:33:01.094,,1165,651,200
17:33:01.131,,1092,502,117
17:33:01.168,,1134,503,83
17:33:01.205,,1100,507,46
17:33:01.241,,995,447,11
17:33:01.278,,889,393,-21
17:33:01.315,,840,359,-55
17:33:01.352,,845,323,-87
17:33:01.388,,828,285,-93
17:33:01.425,,754,279,-47
17:33:01.462,,788,344,3
17:33:01.499,,819,375,23
17:33:01.535,,779,385,75
17:33:01.572,,896,407,132
17:33:01.609,,1088,484,124
17:33:01.645,,986,441,135
17:33:01.682,,953,405,226
17:33:01.719,,1071,471,221
17:33:01.756,,1032,511,125
17:33:01.792,,884,440,76
17:33:01.829,,788,443,76
17:33:01.866,,797,515,103
17:33:01.902,,833,527,70
17:33:01.939,,774,560,104
17:33:01.976,,882,610,183
17:33:02.012,,919,640,179
17:33:02.048,,876,784,228
17:33:02.084,,831,796,222
17:33:02.121,,1105,874,177
17:33:02.157,,1211,932,225
17:33:02.194,,1089,640,47
17:33:02.230,,1140,524,54
17:33:02.267,,1192,499,56
17:33:02.304,,1117,430,4
17:33:02.340,,1043,379,-8
17:33:02.377,,1011,360,-29
17:33:02.414,,969,346,-72
17:33:02.451,,901,310,-92
17:33:02.487,,780,293,-70
17:33:02.524,,706,362,21
17:33:02.561,,671,447,165
17:33:02.598,,612,390,179
17:33:02.634,,590,329,181
17:33:02.671,,773,304,165
17:33:02.708,,1073,391,94
17:33:02.745,,1018,437,128
17:33:02.781,,1090,424,131
17:33:02.818,,1282,563,78
17:33:02.855,,1168,610,-11
17:33:02.891,,925,536,20
17:33:02.928,,820,530,22
17:33:02.964,,827,537,29
17:33:03.000,,821,516,43
17:33:03.036,,748,582,134
17:33:03.073,,768,668,217
17:33:03.109,,833,761,282
17:33:03.145,,914,807,255
17:33:03.182,,927,731,218
17:33:03.218,,1140,663,148
17:33:03.254,,1275,770,189
17:33:03.290,,1108,617,64
17:33:03.327,,1174,538,31
17:33:03.363,,1184,583,26
17:33:03.399,,1108,509,0
17:33:03.436,,1062,429,-7
17:33:03.473,,1026,383,-38
17:33:03.510,,963,340,-58
17:33:03.546,,870,287,-59
17:33:03.583,,731,256,-48
17:33:03.620,,663,277,-25
17:33:03.657,,648,322,-3
17:33:03.694,,603,338,10
17:33:03.730,,597,367,91
17:33:03.767,,834,486,100
17:33:03.804,,972,576,116
17:33:03.841,,1003,580,211
17:33:03.878,,1162,619,305
17:33:03.914,,1234,700,276
17:33:03.951,,1046,544,186
17:33:03.988,,801,369,136
17:33:04.024,,726,356,140
17:33:04.061,,746,423,119
17:33:04.098,,734,523,122
17:33:04.134,,687,620,147
17:33:04.171,,733,648,198
17:33:04.207,,813,670,253
17:33:04.243,,950,679,267
17:33:04.279,,984,572,231
17:33:04.316,,1163,571,204
17:33:04.352,,1174,719,274
17:33:04.389,,1015,592,144
17:33:04.425,,995,553,97
17:33:04.462,,1005,580,102
17:33:04.499,,935,479,62
17:33:04.536,,810,351,-3
17:33:04.572,,760,305,-27
17:33:04.609,,774,302,-31
17:33:04.646,,813,317,-50
17:33:04.683,,825,307,-53
17:33:04.719,,870,326,-22
17:33:04.756,,872,344,5
17:33:04.793,,859,345,26
17:33:04.830,,916,389,88
17:33:04.867,,1133,525,111
17:33:04.903,,982,480,141
17:33:04.940,,834,421,212
17:33:04.977,,919,530,261
17:33:05.013,,968,569,209
17:33:05.050,,858,466,157
17:33:05.087,,722,397,141
17:33:05.124,,699,398,153
17:33:05.160,,754,431,109
17:33:05.197,,723,470,109
17:33:05.233,,710,532,153
17:33:05.269,,818,655,217
17:33:05.305,,901,751,243
17:33:05.342,,945,752,252
17:33:05.378,,1073,681,191
17:33:05.414,,1271,804,260
17:33:05.451,,1118,657,186
17:33:05.487,,1057,508,138
17:33:05.524,,1048,540,117
17:33:05.561,,969,486,54
17:33:05.597,,892,408,20
17:33:05.634,,847,371,-4
17:33:05.671,,836,354,-43
17:33:05.708,,855,335,-70
17:33:05.744,,816,304,-76
17:33:05.781,,822,305,-57
17:33:05.818,,854,331,-39
17:33:05.855,,862,338,-24
17:33:05.892,,865,384,50
17:33:05.928,,981,451,139
17:33:05.965,,1021,491,157
17:33:06.002,,859,371,171
17:33:06.038,,917,390,231
17:33:06.075,,1037,559,256
17:33:06.112,,945,533,188
17:33:06.149,,778,431,121
17:33:06.185,,704,446,112
17:33:06.222,,753,474,126
17:33:06.258,,804,536,78
17:33:06.295,,780,580,131
17:33:06.331,,834,660,220
17:33:06.367,,923,769,263
17:33:06.403,,983,770,252
17:33:06.440,,1113,666,188
17:33:06.476,,1271,739,251
17:33:06.512,,1153,634,218
17:33:06.548,,1038,555,151
17:33:06.585,,988,548,79
17:33:06.622,,920,517,27
17:33:06.658,,850,440,7
17:33:06.695,,834,384,-24
17:33:06.732,,875,344,-70
17:33:06.769,,909,311,-101
17:33:06.805,,870,271,-94
17:33:06.842,,868,271,-71
17:33:06.879,,920,329,-39
17:33:06.916,,908,339,-9
17:33:06.952,,938,383,58
17:33:06.989,,1107,477,88
17:33:07.026,,928,499,159
17:33:07.063,,807,445,254
17:33:07.099,,857,427,267
17:33:07.136,,938,461,202
17:33:07.173,,871,405,183
17:33:07.209,,748,415,194
17:33:07.246,,729,413,155
17:33:07.283,,788,470,114
17:33:07.320,,780,558,133
17:33:07.356,,816,640,197
17:33:07.392,,922,781,294
17:33:07.429,,966,856,341
17:33:07.466,,998,790,307
17:33:07.502,,1031,630,211
17:33:07.539,,1227,746,274
17:33:07.576,,1157,662,233
17:33:07.613,,1139,486,147
17:33:07.649,,1153,496,123
17:33:07.686,,1063,482,52
17:33:07.723,,967,458,18
17:33:07.760,,890,439,-4
17:33:07.796,,876,414,-63
17:33:07.833,,960,418,-134
17:33:07.870,,859,407,-60
17:33:07.907,,750,428,24
17:33:07.943,,701,390,6
17:33:07.980,,651,391,-59
17:33:08.017,,495,477,18
17:33:08.054,,470,708,-71
17:33:08.090,,420,1232,-267
17:33:08.127,,261,1248,-193
17:33:08.164,,398,1311,-191
17:33:08.201,,450,1205,-266
17:33:08.237,,261,1107,-109
17:33:08.274,,25,1000,-156
17:33:08.311,,-28,803,-173
17:33:08.348,,31,656,-234
17:33:08.384,,76,559,-218
17:33:08.421,,-32,580,-265
17:33:08.458,,-58,575,-327
17:33:08.495,,90,835,-301
17:33:08.531,,205,891,-401
17:33:08.568,,558,1089,-459
17:33:08.605,,878,133,201
17:33:08.641,,657,1161,-529
17:33:08.678,,368,1096,-610
17:33:08.715,,204,1104,-313
17:33:08.752,,41,1028,-355
17:33:08.788,,-28,953,-295
17:33:08.825,,-30,877,-332
17:33:08.862,,20,763,-404
17:33:08.898,,120,715,-416
17:33:08.935,,197,734,-366
17:33:08.972,,256,730,-413
17:33:09.008,,367,725,-517
17:33:09.045,,438,821,-586
17:33:09.082,,532,877,-601
17:33:09.119,,765,927,-727
17:33:09.155,,718,916,-727
17:33:09.192,,629,777,-457
17:33:09.229,,660,723,-463
17:33:09.266,,616,569,-500
17:33:09.303,,457,430,-362
17:33:09.339,,335,396,-311
17:33:09.376,,301,413,-378
17:33:09.413,,336,399,-462
17:33:09.450,,264,380,-549
17:33:09.486,,188,575,-714
17:33:09.523,,182,616,-940
17:33:09.559,,143,701,-1066
17:33:09.596,,194,676,-1034
17:33:09.632,,217,685,-1019
17:33:09.669,,275,729,-1150
17:33:09.705,,354,678,-1089
17:33:09.742,,402,586,-981
17:33:09.779,,399,552,-915
17:33:09.816,,379,464,-723
17:33:09.853,,358,346,-562
17:33:09.889,,300,354,-556
17:33:09.926,,212,444,-486
17:33:09.963,,231,462,-470
17:33:10.000,,252,510,-446
17:33:10.036,,291,641,-410
17:33:10.073,,367,732,-434
17:33:10.110,,387,882,-498
17:33:10.146,,420,1160,-816
17:33:10.183,,371,1153,-849
17:33:10.220,,288,895,-491
17:33:10.257,,300,774,-371
17:33:10.293,,339,698,-374
17:33:10.330,,281,534,-309
17:33:10.367,,194,455,-270
17:33:10.404,,188,482,-333
17:33:10.440,,260,467,-424
17:33:10.477,,196,559,-610
17:33:10.514,,100,493,-849
17:33:10.551,,79,515,-985
17:33:10.587,,79,610,-1050
17:33:10.624,,155,643,-1082
17:33:10.661,,216,574,-1196
17:33:10.698,,259,570,-1321
17:33:10.735,,293,538,-1102
17:33:10.771,,297,462,-925
17:33:10.808,,267,358,-883
17:33:10.845,,256,292,-804
17:33:10.882,,195,214,-720
17:33:10.918,,192,123,-714
17:33:10.955,,202,96,-726
17:33:10.992,,165,149,-718
17:33:11.029,,106,238,-762
17:33:11.065,,89,431,-891
17:33:11.102,,191,468,-1015
17:33:11.139,,252,517,-967
17:33:11.176,,289,518,-949
17:33:11.212,,389,496,-1155
17:33:11.249,,353,528,-1084
17:33:11.286,,266,488,-758
17:33:11.323,,264,457,-824
17:33:11.359,,308,303,-806
17:33:11.396,,265,246,-673
17:33:11.433,,198,239,-607
17:33:11.470,,159,250,-594
17:33:11.507,,137,247,-674
17:33:11.543,,120,266,-735
17:33:11.580,,91,283,-804
17:33:11.617,,98,341,-979
17:33:11.654,,119,400,-1139
17:33:11.690,,119,370,-1243
17:33:11.727,,136,367,-1233
17:33:11.764,,166,347,-1328
17:33:11.801,,220,355,-1168
17:33:11.837,,222,294,-1095
17:33:11.874,,189,213,-1000
17:33:11.911,,203,199,-842
17:33:11.948,,223,164,-717
17:33:11.985,,189,129,-714
17:33:12.021,,140,116,-708
17:33:12.058,,116,109,-752
17:33:12.095,,88,127,-792
17:33:12.132,,153,140,-867
17:33:12.168,,243,108,-950
17:33:12.205,,296,134,-989
17:33:12.242,,357,274,-1031
17:33:12.279,,463,299,-1199
17:33:12.316,,509,425,-1119
17:33:12.352,,452,523,-1025
17:33:12.389,,485,381,-936
17:33:12.426,,413,251,-776
17:33:12.463,,249,212,-655
17:33:12.500,,187,183,-588
17:33:12.536,,182,173,-602
17:33:12.573,,197,149,-674
17:33:12.610,,202,223,-744
17:33:12.647,,183,315,-851
17:33:12.683,,163,378,-998
17:33:12.720,,194,413,-1125
17:33:12.757,,265,389,-1148
17:33:12.794,,280,344,-1266
17:33:12.831,,299,348,-1238
17:33:12.867,,303,336,-1117
17:33:12.904,,270,259,-1067
17:33:12.941,,261,230,-977
17:33:12.978,,252,232,-823
17:33:13.014,,226,208,-690
17:33:13.051,,223,154,-624
17:33:13.088,,231,135,-645
17:33:13.125,,246,113,-712
17:33:13.162,,244,117,-750
17:33:13.198,,246,180,-879
17:33:13.235,,282,230,-928
17:33:13.272,,267,358,-965
17:33:13.309,,284,421,-1085
17:33:13.345,,348,384,-1293
17:33:13.382,,349,478,-1034
17:33:13.419,,255,539,-912
17:33:13.456,,263,429,-859
17:33:13.492,,254,343,-741
17:33:13.529,,190,279,-658
17:33:13.566,,155,249,-619
17:33:13.603,,168,217,-640
17:33:13.640,,195,220,-716
17:33:13.676,,190,248,-765
17:33:13.713,,186,334,-863
17:33:13.750,,176,397,-950
17:33:13.787,,183,463,-1108
17:33:13.823,,249,450,-1128
17:33:13.860,,229,463,-1222
17:33:13.897,,225,466,-1258
17:33:13.934,,270,440,-1023
17:33:13.971,,249,378,-966
17:33:14.007,,215,328,-888
17:33:14.044,,192,256,-752
17:33:14.081,,171,248,-663
17:33:14.118,,164,241,-630
17:33:14.154,,186,180,-682
17:33:14.191,,209,177,-772
17:33:14.228,,236,192,-793
17:33:14.265,,260,249,-885
17:33:14.301,,313,255,-979
17:33:14.338,,311,316,-979
17:33:14.375,,272,418,-974
17:33:14.412,,357,427,-1201
17:33:14.449,,398,471,-1035
17:33:14.485,,321,542,-893
17:33:14.522,,331,463,-893
17:33:14.559,,316,339,-778
17:33:14.596,,217,303,-648
17:33:14.633,,134,273,-596
17:33:14.669,,126,240,-619
17:33:14.706,,169,216,-700
17:33:14.743,,170,257,-752
17:33:14.780,,159,341,-835
17:33:14.816,,155,427,-978
17:33:14.853,,171,457,-1079
17:33:14.890,,210,457,-1118
17:33:14.927,,240,457,-1330
17:33:14.964,,288,472,-1283
17:33:15.000,,230,433,-1129
17:33:15.037,,124,417,-1107
17:33:15.074,,24,508,-1027
17:33:15.111,,-8,544,-949
17:33:15.147,,64,454,-1037
17:33:15.184,,133,376,-911
17:33:15.221,,175,246,-783
17:33:15.258,,193,32,-655
17:33:15.294,,205,66,-639
17:33:15.331,,284,-124,-436
17:33:15.368,,302,-53,-491
17:33:15.405,,235,85,-729
17:33:15.441,,324,197,-1009
17:33:15.478,,332,356,-1236
17:33:15.515,,235,532,-1357
17:33:15.552,,103,593,-1532
17:33:15.589,,5,758,-1362
17:33:15.625,,-125,793,-1031
17:33:15.662,,-187,701,-953
17:33:15.699,,-126,524,-805
17:33:15.736,,-45,373,-768
17:33:15.773,,94,372,-620
17:33:15.809,,159,164,-462
17:33:15.846,,119,143,-586
17:33:15.883,,115,125,-807
17:33:15.920,,54,187,-1112
17:33:15.956,,62,401,-1287
17:33:15.993,,47,604,-1540
17:33:16.030,,57,522,-1283
17:33:16.067,,65,414,-1140
17:33:16.104,,113,401,-1040
17:33:16.140,,135,375,-884
17:33:16.177,,64,332,-858
17:33:16.214,,-32,227,-739
17:33:16.251,,-129,383,-736
17:33:16.287,,-148,338,-643
17:33:16.324,,-131,179,-499
17:33:16.361,,-121,237,-436
17:33:16.398,,-73,359,-510
17:33:16.434,,102,587,-405
17:33:16.471,,319,859,-174
17:33:16.508,,675,701,-210
17:33:16.545,,1066,454,-435
17:33:16.582,,1118,860,-378
17:33:16.618,,1301,1080,-206
17:33:16.654,,1336,744,-377
17:33:16.691,,1042,635,-352
17:33:16.727,,783,569,-204
17:33:16.763,,736,390,-170
17:33:16.800,,789,329,-190
17:33:16.836,,801,476,-135
17:33:16.872,,871,571,2
17:33:16.908,,892,704,110
17:33:16.945,,894,799,141
17:33:16.981,,865,795,144
17:33:17.017,,1045,698,80
17:33:17.054,,1076,901,233
17:33:17.090,,1036,688,175
17:33:17.127,,1154,583,118
17:33:17.164,,1121,544,110
17:33:17.201,,1043,435,56
17:33:17.237,,916,381,9
17:33:17.274,,834,336,-26
17:33:17.311,,836,309,-65
17:33:17.348,,877,335,-93
17:33:17.385,,848,349,-88
17:33:17.421,,840,361,-51
17:33:17.458,,832,350,-28
17:33:17.495,,792,351,-10
17:33:17.532,,802,441,103
17:33:17.569,,989,539,133
17:33:17.606,,902,487,109
17:33:17.642,,867,387,158
17:33:17.679,,1088,515,221
17:33:17.716,,1115,588,167
17:33:17.753,,882,451,75
17:33:17.789,,717,443,72
17:33:17.826,,716,480,39
17:33:17.862,,788,512,-20
17:33:17.898,,786,601,17
17:33:17.934,,804,672,128
17:33:17.971,,897,802,184
17:33:18.007,,950,849,201
17:33:18.043,,973,780,185
17:33:18.080,,1334,799,136
17:33:18.116,,1232,783,193
17:33:18.152,,992,496,104
17:33:18.189,,996,512,88
17:33:18.226,,981,530,38
17:33:18.263,,933,507,9
17:33:18.299,,901,455,-13
17:33:18.336,,906,390,-61
17:33:18.373,,918,338,-97
17:33:18.410,,878,290,-106
17:33:18.447,,812,256,-93
17:33:18.483,,821,270,-85
17:33:18.520,,838,279,-80
17:33:18.557,,766,337,-4
17:33:18.594,,903,431,95
17:33:18.631,,1025,526,112
17:33:18.668,,948,546,173
17:33:18.704,,984,499,264
17:33:18.741,,1058,550,262
17:33:18.777,,994,504,174
17:33:18.814,,824,458,140
17:33:18.850,,755,457,67
17:33:18.886,,786,474,33
17:33:18.922,,841,561,65
17:33:18.959,,898,613,119
17:33:18.995,,881,710,146
17:33:19.031,,859,786,210
17:33:19.068,,917,862,198
17:33:19.104,,888,709,98
17:33:19.140,,1098,839,126
17:33:19.176,,1053,780,76
17:33:19.213,,1253,658,-3
17:33:19.249,,1367,642,11
17:33:19.285,,1248,504,32
17:33:19.322,,1102,429,23
17:33:19.359,,1039,408,-13
17:33:19.396,,1030,397,-66
17:33:19.432,,979,371,-92
17:33:19.469,,872,311,-105
17:33:19.506,,769,274,-106
17:33:19.543,,702,281,-80
17:33:19.580,,649,293,-32
17:33:19.617,,623,282,38
17:33:19.653,,831,235,124
17:33:19.690,,949,231,38
17:33:19.727,,1010,597,-148
17:33:19.763,,1214,1108,-112
17:33:19.799,,1316,1235,-136
17:33:19.835,,1032,775,-94
17:33:19.872,,758,349,9
17:33:19.908,,660,270,-22
17:33:19.945,,738,455,-127
17:33:19.981,,763,549,-222
17:33:20.018,,741,593,-262
17:33:20.054,,739,770,-219
17:33:20.090,,791,824,-172
17:33:20.127,,975,793,-141
17:33:20.163,,974,569,-118
17:33:20.200,,1163,701,-84
17:33:20.236,,1066,650,-168
17:33:20.273,,942,561,-211
17:33:20.309,,1069,607,-207
17:33:20.346,,1093,532,-233
17:33:20.382,,971,431,-204
17:33:20.419,,838,342,-163
17:33:20.455,,801,286,-172
17:33:20.491,,793,199,-180
17:33:20.528,,765,185,-186
17:33:20.565,,764,275,-169
17:33:20.602,,817,377,-145
17:33:20.638,,805,353,-155
17:33:20.675,,771,450,-68
17:33:20.712,,905,628,-35
17:33:20.748,,1003,639,-165
17:33:20.785,,853,576,-94
17:33:20.822,,969,618,103
17:33:20.858,,1225,554,102
17:33:20.895,,1187,374,0
17:33:20.932,,894,270,52
17:33:20.968,,750,294,84
17:33:21.004,,730,386,7
17:33:21.041,,742,431,13
17:33:21.077,,754,425,58
17:33:21.114,,801,440,150
17:33:21.150,,959,328,-49
17:33:21.186,,949,925,-420
17:33:21.223,,773,1376,-372
17:33:21.259,,938,1090,-287
17:33:21.295,,934,505,-311
17:33:21.332,,1032,544,-278
17:33:21.368,,1114,540,-391
17:33:21.405,,1204,470,-416
17:33:21.441,,1113,517,-432
17:33:21.478,,1096,568,-467
17:33:21.514,,1046,626,-537
17:33:21.550,,926,717,-625
17:33:21.587,,780,879,-611
17:33:21.624,,674,952,-444
17:33:21.661,,516,1006,-377
17:33:21.698,,353,883,-425
17:33:21.734,,220,1026,-289
17:33:21.771,,60,953,-190
17:33:21.808,,-288,864,-33
17:33:21.845,,-403,754,168
17:33:21.882,,-474,805,119
17:33:21.918,,-432,681,64
17:33:21.955,,-474,513,162
17:33:21.992,,-561,417,89
17:33:22.029,,-513,249,111
17:33:22.065,,-510,131,145
17:33:22.102,,-561,67,190
17:33:22.139,,-734,181,317
17:33:22.175,,-963,210,289
17:33:22.212,,-1120,170,233
17:33:22.249,,-1138,258,180
17:33:22.286,,-1214,222,179
17:33:22.323,,-1362,353,68
17:33:22.359,,-1156,243,-20
17:33:22.396,,-1091,240,-21
17:33:22.433,,-1073,234,-138
17:33:22.470,,-900,237,-80
17:33:22.507,,-754,338,38
17:33:22.543,,-698,280,57
17:33:22.580,,-681,281,49
17:33:22.617,,-703,191,79
17:33:22.654,,-745,340,-27
17:33:22.691,,-786,27,34
17:33:22.728,,-602,-80,157
17:33:22.764,,-461,-80,193
17:33:22.801,,-317,222,98
17:33:22.838,,-58,467,133
17:33:22.875,,232,993,-8
17:33:22.912,,550,1248,-238
17:33:22.948,,762,1217,-255
17:33:22.985,,1086,1208,-252
17:33:23.022,,1348,967,-258
17:33:23.059,,1413,904,-338
17:33:23.095,,1251,904,-343
17:33:23.131,,1026,853,-253
17:33:23.168,,960,690,-236
17:33:23.204,,872,596,-237
17:33:23.240,,881,691,-106
17:33:23.277,,889,846,54
17:33:23.313,,879,887,41
17:33:23.349,,881,758,8
17:33:23.385,,978,801,18
17:33:23.422,,1042,910,31
17:33:23.458,,1006,747,-6
17:33:23.494,,1056,668,-26
17:33:23.530,,1167,692,-60
17:33:23.567,,1219,467,-159
17:33:23.603,,1151,168,-212
17:33:23.639,,870,66,-405
17:33:23.676,,829,720,-584
17:33:23.712,,884,872,-518
17:33:23.749,,926,849,-354
17:33:23.786,,875,466,-203
17:33:23.822,,674,242,-62
17:33:23.859,,419,223,16
17:33:23.896,,373,206,106
17:33:23.933,,630,287,121
17:33:23.970,,877,235,66
17:33:24.006,,978,312,150
17:33:24.043,,1433,513,230
17:33:24.080,,1781,727,53
17:33:24.116,,1455,660,-127
17:33:24.153,,1068,713,-18
17:33:24.189,,943,599,-91
17:33:24.225,,942,623,-151
17:33:24.262,,878,555,-163
17:33:24.298,,869,732,-168
17:33:24.334,,859,1001,-90
17:33:24.371,,744,1250,-15
17:33:24.407,,840,1193,-16
17:33:24.443,,1093,1057,19
17:33:24.480,,1280,751,59
17:33:24.516,,1193,478,14
17:33:24.553,,1266,436,5
17:33:24.590,,1420,571,-32
17:33:24.627,,1379,593,-72
17:33:24.663,,1220,466,-94
17:33:24.700,,1112,356,-110
17:33:24.737,,1032,336,-160
17:33:24.774,,970,326,-180
17:33:24.810,,867,329,-153
17:33:24.847,,685,414,-33
17:33:24.884,,605,460,142
17:33:24.921,,441,253,203
17:33:24.958,,373,289,162
17:33:24.994,,626,293,98
17:33:25.031,,746,280,128
17:33:25.068,,899,284,137
17:33:25.105,,1356,420,77
17:33:25.142,,1674,576,-146
17:33:25.178,,1375,620,-307
17:33:25.215,,1010,839,-45
17:33:25.251,,883,744,50
17:33:25.287,,874,786,-83
17:33:25.324,,875,838,-71
17:33:25.360,,833,744,104
17:33:25.397,,856,683,291
17:33:25.434,,822,705,406
17:33:25.471,,978,711,393
17:33:25.507,,1117,687,267
17:33:25.544,,1304,657,250
17:33:25.581,,1247,571,212
17:33:25.618,,1159,463,79
17:33:25.654,,1172,531,79
17:33:25.691,,1135,572,13
17:33:25.728,,995,465,-78
17:33:25.765,,923,388,-139
17:33:25.801,,911,365,-170
17:33:25.838,,916,301,-183
17:33:25.875,,819,272,-159
17:33:25.912,,733,312,-99
17:33:25.949,,704,359,-49
17:33:25.986,,648,352,-24
17:33:26.022,,627,397,62
17:33:26.059,,887,452,105
17:33:26.096,,1023,538,117
17:33:26.133,,906,419,178
17:33:26.170,,1157,457,285
17:33:26.206,,1271,554,217
17:33:26.243,,1083,476,87
17:33:26.280,,879,418,73
17:33:26.317,,838,555,126
17:33:26.353,,857,562,147
17:33:26.390,,833,600,107
17:33:26.427,,775,684,210
17:33:26.463,,812,791,295
17:33:26.500,,867,853,286
17:33:26.536,,926,793,218
17:33:26.573,,1024,624,123
17:33:26.610,,1242,758,183
17:33:26.646,,1120,666,97
17:33:26.683,,1153,563,29
17:33:26.720,,1234,616,-11
17:33:26.757,,1206,565,-56
17:33:26.793,,1063,428,-56
17:33:26.830,,993,350,-75
17:33:26.867,,954,334,-101
17:33:26.904,,920,328,-81
17:33:26.941,,857,377,-3
17:33:26.977,,827,415,65
17:33:27.014,,795,406,84
17:33:27.051,,692,321,77
17:33:27.088,,588,266,142
17:33:27.125,,724,293,129
17:33:27.162,,853,435,124
17:33:27.198,,914,451,137
17:33:27.235,,1139,508,171
17:33:27.272,,1360,585,99
17:33:27.309,,1253,574,-18
17:33:27.345,,977,539,16
17:33:27.381,,814,557,20
17:33:27.418,,806,515,-64
17:33:27.454,,823,552,-22
17:33:27.490,,842,581,89
17:33:27.526,,915,692,163
17:33:27.563,,818,793,255
17:33:27.599,,883,866,268
17:33:27.635,,878,787,233
17:33:27.671,,1205,809,260
17:33:27.707,,1231,825,343
17:33:27.744,,1164,502,207
17:33:27.780,,1219,456,167
17:33:27.816,,1161,454,104
17:33:27.853,,993,459,62
17:33:27.889,,859,401,18
17:33:27.925,,772,383,-28
17:33:27.962,,743,361,-91
17:33:27.998,,745,334,-131
17:33:28.035,,732,300,-124
17:33:28.072,,795,299,-100
17:33:28.108,,872,337,-58
17:33:28.145,,862,365,12
17:33:28.182,,1039,431,52
17:33:28.219,,1179,559,101
17:33:28.255,,926,533,276
17:33:28.292,,986,442,370
17:33:28.329,,1107,481,317
17:33:28.366,,979,388,219
17:33:28.402,,775,351,218
17:33:28.439,,695,447,249
17:33:28.476,,700,484,203
17:33:28.512,,732,538,157
17:33:28.548,,709,616,212
17:33:28.585,,846,749,316
17:33:28.621,,977,906,409
17:33:28.657,,1002,830,396
17:33:28.693,,999,597,245
17:33:28.730,,1250,588,188
17:33:28.766,,1144,669,213
17:33:28.802,,1073,574,142
17:33:28.838,,1137,576,113
17:33:28.875,,1130,574,57
17:33:28.911,,1032,468,2
17:33:28.948,,933,395,-32
17:33:28.985,,869,335,-65
17:33:29.021,,853,301,-86
17:33:29.058,,829,282,-72
17:33:29.095,,763,316,-6
17:33:29.132,,738,389,75
17:33:29.169,,709,390,113
17:33:29.205,,643,397,185
17:33:29.242,,690,445,293
17:33:29.279,,965,388,174
17:33:29.316,,968,389,154
17:33:29.352,,991,403,243
17:33:29.389,,1248,631,285
17:33:29.426,,1238,720,184
17:33:29.463,,907,507,85
17:33:29.499,,745,419,111
17:33:29.536,,742,401,75
17:33:29.573,,818,373,69
17:33:29.609,,797,409,60
17:33:29.646,,720,526,130
17:33:29.682,,809,623,187
17:33:29.718,,998,806,179
17:33:29.755,,1013,813,182
17:33:29.791,,1110,762,188
17:33:29.827,,1185,929,367
17:33:29.863,,1021,640,211
17:33:29.900,,1129,537,112
17:33:29.936,,1128,556,109
17:33:29.973,,991,473,74
17:33:30.010,,879,408,43
17:33:30.047,,821,369,19
17:33:30.083,,818,339,-20
17:33:30.120,,857,309,-69
17:33:30.157,,875,293,-71
17:33:30.194,,894,299,-56
17:33:30.230,,836,304,-36
17:33:30.267,,746,338,15
17:33:30.304,,745,391,98
17:33:30.341,,960,552,146
17:33:30.378,,889,515,155
17:33:30.414,,897,446,231
17:33:30.451,,1027,524,314
17:33:30.488,,1024,522,244
17:33:30.524,,894,434,194
17:33:30.561,,798,428,190
17:33:30.598,,782,430,163
17:33:30.634,,799,510,165
17:33:30.670,,764,581,185
17:33:30.707,,763,642,196
17:33:30.743,,811,735,215
17:33:30.779,,940,860,244
17:33:30.815,,969,809,198
17:33:30.852,,1015,676,137
17:33:30.888,,1279,772,290
17:33:30.925,,1253,530,193
17:33:30.961,,1321,473,170
17:33:30.998,,1292,521,218
17:33:31.035,,1169,542,167
17:33:31.071,,1025,469,111
17:33:31.108,,846,402,57
17:33:31.145,,717,347,-9
17:33:31.182,,609,286,-61
17:33:31.218,,540,223,-92
17:33:31.255,,547,219,-111
17:33:31.292,,653,266,-108
17:33:31.329,,742,338,-57
17:33:31.365,,923,416,26
17:33:31.402,,1280,599,49
17:33:31.439,,1074,616,226
17:33:31.476,,1113,630,382
17:33:31.512,,1163,583,292
17:33:31.549,,971,414,126
17:33:31.586,,815,283,154
17:33:31.622,,773,412,220
17:33:31.659,,781,483,248
17:33:31.696,,764,566,205
17:33:31.732,,733,581,212
17:33:31.769,,819,628,242
17:33:31.805,,943,766,360
17:33:31.842,,1092,811,425
17:33:31.878,,1228,712,338
17:33:31.915,,1145,615,252
17:33:31.951,,1102,498,220
17:33:31.988,,1112,561,303
17:33:32.025,,1120,615,246
17:33:32.062,,1067,514,122
17:33:32.098,,926,385,40
17:33:32.135,,773,311,2
17:33:32.172,,693,290,-25
17:33:32.209,,670,301,-53
17:33:32.245,,692,286,-88
17:33:32.282,,804,294,-105
17:33:32.319,,849,319,-74
17:33:32.355,,847,330,-28
17:33:32.392,,834,416,86
17:33:32.429,,876,516,165
17:33:32.466,,1026,468,190
17:33:32.502,,938,351,324
17:33:32.539,,1007,519,440
17:33:32.576,,942,514,313
17:33:32.613,,827,402,168
17:33:32.649,,782,384,125
17:33:32.686,,793,476,201
17:33:32.723,,843,575,219
17:33:32.759,,795,587,185
17:33:32.795,,860,705,244
17:33:32.831,,914,810,304
17:33:32.868,,890,793,288
17:33:32.904,,1135,820,280
17:33:32.940,,1312,927,378
17:33:32.977,,1207,568,234
17:33:33.013,,1281,512,266
17:33:33.049,,1182,503,250
17:33:33.086,,1034,470,156
17:33:33.123,,916,427,92
17:33:33.159,,867,396,30
17:33:33.196,,844,382,-15
17:33:33.232,,815,304,-75
17:33:33.269,,791,238,-103
17:33:33.305,,776,245,-103
17:33:33.342,,739,273,-86
17:33:33.378,,671,306,-50
17:33:33.414,,698,372,-9
17:33:33.451,,1061,487,-50
17:33:33.487,,1006,566,110
17:33:33.524,,926,441,256
17:33:33.560,,1061,485,257
17:33:33.597,,1111,559,138
17:33:33.634,,1027,493,139
17:33:33.670,,962,549,112
17:33:33.707,,987,664,116
17:33:33.743,,998,753,87
17:33:33.779,,913,818,59
17:33:33.815,,794,785,213
17:33:33.852,,818,924,435
17:33:33.889,,987,964,377
17:33:33.925,,1062,564,200
17:33:33.962,,1284,428,165
17:33:33.999,,1498,637,333
17:33:34.035,,1434,593,282
17:33:34.072,,1337,546,221
17:33:34.108,,1146,525,127
17:33:34.144,,847,462,-9
17:33:34.181,,653,365,-99
17:33:34.217,,551,324,-137
17:33:34.253,,523,308,-144
17:33:34.289,,569,313,-184
17:33:34.326,,649,293,-230
17:33:34.362,,753,297,-227
17:33:34.398,,876,375,-168
17:33:34.435,,877,432,-38
17:33:34.471,,1044,414,6
17:33:34.508,,1182,469,71
17:33:34.544,,999,594,317
17:33:34.581,,972,579,426
17:33:34.618,,1009,499,286
17:33:34.655,,1000,435,233
17:33:34.691,,784,335,355
17:33:34.728,,685,318,285
17:33:34.765,,688,447,270
17:33:34.802,,701,470,188
17:33:34.838,,737,510,50
17:33:34.874,,805,655,94
17:33:34.911,,879,780,210
17:33:34.947,,989,900,279
17:33:34.983,,1035,818,210
17:33:35.019,,1338,703,241
17:33:35.056,,1269,645,285
17:33:35.092,,1066,524,177
17:33:35.129,,1070,748,137
17:33:35.165,,1104,843,24
17:33:35.202,,1128,807,-64
17:33:35.239,,1100,778,-140
17:33:35.276,,1046,934,-217
17:33:35.313,,942,1099,-299
17:33:35.349,,779,1159,-351
17:33:35.386,,586,1076,-291
17:33:35.423,,379,1054,-243
17:33:35.460,,233,975,-176
17:33:35.497,,57,758,-31
17:33:35.534,,-179,589,59
17:33:35.570,,-455,433,125
17:33:35.607,,-483,378,340
17:33:35.643,,-602,425,363
17:33:35.680,,-600,455,280
17:33:35.717,,-498,272,234
17:33:35.753,,-644,201,286
17:33:35.790,,-772,307,231
17:33:35.827,,-815,176,209
17:33:35.863,,-818,206,336
17:33:35.900,,-825,341,451
17:33:35.937,,-830,534,355
17:33:35.973,,-748,295,271
17:33:36.010,,-827,396,139
17:33:36.047,,-964,65,216
17:33:36.083,,-1208,132,183
17:33:36.120,,-1208,427,-4
17:33:36.156,,-1109,638,-53
17:33:36.193,,-1016,563,-33
17:33:36.230,,-960,558,-62
17:33:36.266,,-809,612,-4
17:33:36.303,,-597,517,112
17:33:36.339,,-529,461,210
17:33:36.376,,-573,468,206
17:33:36.412,,-611,414,182
17:33:36.449,,-609,377,159
17:33:36.485,,-606,317,190
17:33:36.522,,-544,407,135
17:33:36.559,,-400,529,161
17:33:36.596,,-206,415,80
17:33:36.633,,-47,491,-54
17:33:36.669,,307,833,-236
17:33:36.706,,306,1453,-248
17:33:36.743,,491,976,-404
17:33:36.780,,756,1324,-384
17:33:36.816,,868,914,-232
17:33:36.853,,850,897,-297
17:33:36.889,,796,796,-410
17:33:36.925,,865,844,-431
17:33:36.961,,835,847,-302
17:33:36.997,,797,757,-207
17:33:37.034,,795,852,-95
17:33:37.070,,868,617,45
17:33:37.106,,923,788,72
17:33:37.142,,962,652,17
17:33:37.178,,1282,843,97
17:33:37.215,,1194,766,70
17:33:37.251,,1022,622,88
17:33:37.287,,1000,554,161
17:33:37.324,,989,529,162
17:33:37.361,,875,478,73
17:33:37.397,,803,455,37
17:33:37.434,,819,426,0
17:33:37.471,,859,352,-107
17:33:37.508,,760,280,-131
17:33:37.544,,723,292,-97
17:33:37.581,,866,338,-125
17:33:37.618,,890,330,-120
17:33:37.655,,1006,397,-55
17:33:37.692,,1237,453,-78
17:33:37.728,,998,459,56
17:33:37.765,,895,467,243
17:33:37.802,,988,448,194
17:33:37.838,,971,347,143
17:33:37.875,,863,245,222
17:33:37.912,,812,420,298
17:33:37.949,,787,427,278
17:33:37.985,,753,400,210
17:33:38.022,,705,401,245
17:33:38.059,,604,404,207
17:33:38.095,,596,538,220
17:33:38.132,,701,730,332
17:33:38.169,,961,820,291
17:33:38.205,,1203,723,147
17:33:38.242,,1286,816,171
17:33:38.279,,1105,602,107
17:33:38.315,,1059,454,153
17:33:38.352,,1096,452,148
17:33:38.389,,1027,541,93
17:33:38.426,,864,497,27
17:33:38.462,,797,459,34
17:33:38.499,,792,424,3
17:33:38.536,,786,363,-48
17:33:38.572,,756,294,-81
17:33:38.609,,767,283,-95
17:33:38.646,,835,330,-95
17:33:38.683,,914,362,-63
17:33:38.719,,889,387,9
17:33:38.756,,1147,500,62
17:33:38.793,,1141,545,138
17:33:38.830,,833,440,252
17:33:38.866,,894,464,289
17:33:38.903,,990,567,236
17:33:38.940,,892,411,193
17:33:38.976,,727,384,198
17:33:39.013,,674,388,146
17:33:39.050,,718,392,85
17:33:39.086,,743,458,72
17:33:39.123,,694,524,121
17:33:39.159,,725,598,180
17:33:39.195,,829,686,200
17:33:39.231,,971,735,220
17:33:39.268,,1058,649,167
17:33:39.304,,1336,709,177
17:33:39.340,,1139,638,128
17:33:39.376,,847,541,154
17:33:39.413,,856,557,148
17:33:39.449,,940,578,69
17:33:39.486,,896,452,25
17:33:39.523,,859,345,5
17:33:39.560,,812,349,14
17:33:39.596,,829,382,0
17:33:39.633,,835,380,-21
17:33:39.670,,824,314,-47
17:33:39.706,,848,287,-57
17:33:39.743,,809,298,-31
17:33:39.780,,864,398,50
17:33:39.817,,1077,525,135
17:33:39.854,,1156,515,105
17:33:39.890,,945,433,207
17:33:39.927,,900,374,281
17:33:39.964,,951,474,267
17:33:40.001,,789,407,204
17:33:40.037,,663,421,184
17:33:40.074,,638,455,164
17:33:40.111,,659,405,105
17:33:40.147,,745,407,77
17:33:40.184,,772,426,96
17:33:40.220,,743,502,166
17:33:40.256,,852,709,249
17:33:40.292,,985,861,249
17:33:40.329,,1094,679,112
17:33:40.365,,1297,655,153
17:33:40.401,,1085,521,120
17:33:40.437,,1029,444,88
17:33:40.474,,1056,520,68
17:33:40.510,,930,561,41
17:33:40.547,,818,473,19
17:33:40.584,,779,410,-10
17:33:40.620,,768,363,-48
17:33:40.657,,765,360,-36
17:33:40.694,,781,376,-31
17:33:40.731,,784,338,-56
17:33:40.767,,851,297,-65
17:33:40.804,,920,286,-47
17:33:40.841,,882,324,31
17:33:40.878,,1124,400,28
17:33:40.915,,1203,498,48
17:33:40.951,,917,465,163
17:33:40.988,,884,497,228
17:33:41.025,,932,564,189
17:33:41.062,,764,414,135
17:33:41.098,,611,301,116
17:33:41.135,,602,365,117
17:33:41.172,,695,384,85
17:33:41.209,,730,429,83
17:33:41.245,,713,486,137
17:33:41.282,,804,566,194
17:33:41.319,,985,672,221
17:33:41.355,,1026,702,255
17:33:41.392,,1134,640,215
17:33:41.429,,1268,766,280
17:33:41.466,,1144,620,146
17:33:41.502,,969,496,117
17:33:41.539,,973,526,129
17:33:41.576,,919,517,69
17:33:41.613,,819,422,23
17:33:41.649,,767,367,11
17:33:41.686,,746,352,-16
17:33:41.723,,771,330,-52
17:33:41.760,,762,303,-73
17:33:41.797,,768,275,-69
17:33:41.833,,812,298,-64
17:33:41.870,,854,319,-67
17:33:41.907,,871,368,-8
17:33:41.944,,1168,477,35
17:33:41.980,,1227,538,75
17:33:42.017,,955,469,206
17:33:42.054,,894,438,283
17:33:42.091,,970,535,226
17:33:42.127,,881,429,216
17:33:42.164,,680,361,210
17:33:42.201,,610,379,167
17:33:42.238,,652,456,139
17:33:42.274,,696,495,102
17:33:42.311,,707,494,114
17:33:42.347,,760,506,142
17:33:42.383,,844,574,190
17:33:42.420,,998,644,188
17:33:42.456,,1113,615,157
17:33:42.492,,1327,675,160
17:33:42.529,,1132,693,169
17:33:42.565,,917,541,81
17:33:42.601,,942,548,78
17:33:42.638,,954,543,44
17:33:42.675,,870,453,24
17:33:42.712,,828,399,18
17:33:42.748,,815,378,-1
17:33:42.785,,804,336,-41
17:33:42.822,,796,302,-57
17:33:42.859,,771,297,-55
17:33:42.896,,786,315,-56
17:33:42.932,,883,338,-62
17:33:42.969,,904,327,-36
17:33:43.006,,993,389,38
17:33:43.043,,1209,500,81
17:33:43.079,,1004,443,152
17:33:43.116,,885,290,212
17:33:43.153,,981,585,216
17:33:43.189,,909,565,97
17:33:43.226,,700,509,57
17:33:43.262,,622,536,64
17:33:43.298,,638,433,1
17:33:43.334,,673,472,6
17:33:43.371,,597,537,105
17:33:43.407,,565,635,209
17:33:43.443,,755,922,287
17:33:43.479,,966,1067,176
17:33:43.516,,1004,1111,71
17:33:43.552,,1055,1100,78
17:33:43.588,,1144,1073,-154
17:33:43.624,,1061,464,-190
17:33:43.661,,1059,295,-245
17:33:43.697,,960,455,-296
17:33:43.733,,777,433,-294
17:33:43.770,,669,485,-247
17:33:43.806,,663,339,-263
17:33:43.843,,644,330,-280
17:33:43.879,,604,227,-234
17:33:43.916,,529,243,-80
17:33:43.953,,532,222,66
17:33:43.990,,623,192,107
17:33:44.027,,790,298,231
17:33:44.063,,1116,472,322
17:33:44.100,,1437,556,236
17:33:44.137,,1408,660,325
17:33:44.174,,1389,692,427
17:33:44.211,,1262,705,378
17:33:44.247,,904,411,228
17:33:44.284,,714,389,162
17:33:44.321,,628,419,117
17:33:44.357,,582,515,86
17:33:44.393,,551,612,87
17:33:44.430,,601,716,132
17:33:44.466,,735,779,168
17:33:44.502,,856,781,175
17:33:44.538,,996,724,146
17:33:44.575,,1303,666,89
17:33:44.611,,1304,633,127
17:33:44.647,,1128,500,57
17:33:44.684,,1082,487,56
17:33:44.720,,1127,511,16
17:33:44.757,,1083,497,5
17:33:44.794,,979,417,4
17:33:44.830,,888,345,-5
17:33:44.867,,805,317,-12
17:33:44.904,,737,299,-4
17:33:44.941,,642,293,24
17:33:44.978,,596,302,39
17:33:45.014,,600,313,37
17:33:45.051,,643,325,36
17:33:45.088,,741,403,108
17:33:45.125,,1098,484,52
17:33:45.162,,1303,581,50
17:33:45.199,,1195,633,179
17:33:45.235,,1192,673,254
17:33:45.272,,1151,637,120
17:33:45.309,,915,419,30
17:33:45.345,,761,367,62
17:33:45.382,,725,343,50
17:33:45.419,,728,405,16
17:33:45.456,,700,499,41
17:33:45.492,,637,539,87
17:33:45.528,,690,548,118
17:33:45.565,,811,657,183
17:33:45.601,,953,729,231
17:33:45.637,,1033,685,241
17:33:45.674,,1240,640,227
17:33:45.710,,1158,619,239
17:33:45.747,,1020,519,126
17:33:45.784,,985,495,66
17:33:45.820,,984,544,65
17:33:45.857,,940,508,39
17:33:45.894,,873,403,-8
17:33:45.931,,836,326,-43
17:33:45.967,,841,291,-62
17:33:46.004,,836,283,-71
17:33:46.041,,789,276,-67
17:33:46.078,,783,284,-65
17:33:46.115,,840,319,-60
17:33:46.151,,846,346,-21
17:33:46.188,,868,403,71
17:33:46.225,,1130,513,92
17:33:46.262,,1090,536,128
17:33:46.298,,878,419,206
17:33:46.335,,976,461,243
17:33:46.372,,1049,546,193
17:33:46.409,,888,448,141
17:33:46.445,,717,364,122
17:33:46.482,,698,406,94
17:33:46.519,,746,412,54
17:33:46.555,,737,512,103
17:33:46.592,,701,601,171
17:33:46.628,,795,701,237
17:33:46.664,,890,731,257
17:33:46.701,,982,688,225
17:33:46.737,,1134,602,168
17:33:46.773,,1246,700,239
17:33:46.810,,1066,585,179
17:33:46.846,,1018,519,134
17:33:46.882,,1049,568,95
17:33:46.919,,1009,539,40
17:33:46.956,,903,439,22
17:33:46.993,,805,362,2
17:33:47.029,,769,340,-19
17:33:47.066,,777,321,-46
17:33:47.103,,768,310,-40
17:33:47.140,,779,312,-11
17:33:47.176,,832,342,16
17:33:47.213,,865,333,27
17:33:47.250,,885,309,54
17:33:47.287,,1130,453,62
17:33:47.324,,959,428,87
17:33:47.360,,911,427,139
17:33:47.397,,991,574,212
17:33:47.434,,1042,610,166
17:33:47.471,,891,430,132
17:33:47.507,,748,378,96
17:33:47.544,,750,402,100
17:33:47.581,,792,514,114
17:33:47.617,,791,560,146
17:33:47.653,,793,602,195
17:33:47.690,,824,694,274
17:33:47.726,,907,775,315
17:33:47.762,,992,730,269
17:33:47.798,,1197,654,219
17:33:47.835,,1245,732,309
17:33:47.871,,1059,523,167
17:33:47.907,,1084,511,81
17:33:47.944,,1113,632,69
17:33:47.981,,1024,530,26
17:33:48.017,,914,390,-21
17:33:48.054,,872,340,-51
17:33:48.091,,925,328,-91
17:33:48.128,,964,316,-112
17:33:48.165,,899,270,-106
17:33:48.201,,870,277,-81
17:33:48.238,,838,314,-58
17:33:48.275,,793,337,-11
17:33:48.312,,815,381,71
17:33:48.349,,1010,485,107
17:33:48.385,,906,492,187
17:33:48.422,,816,382,260
17:33:48.459,,941,466,298
17:33:48.496,,1029,553,290
17:33:48.532,,931,458,233
17:33:48.569,,823,437,195
17:33:48.606,,801,453,142
17:33:48.643,,862,487,107
17:33:48.679,,839,561,128
17:33:48.715,,787,604,195
17:33:48.752,,836,671,224
17:33:48.788,,902,708,230
17:33:48.824,,899,663,204
17:33:48.860,,1060,627,129
17:33:48.897,,1182,791,203
17:33:48.933,,1028,649,115
17:33:48.969,,1091,567,117
17:33:49.006,,1185,575,142
17:33:49.042,,1154,468,90
17:33:49.079,,1024,371,46
17:33:49.116,,873,336,19
17:33:49.153,,767,342,-1
17:33:49.190,,696,335,-32
17:33:49.226,,630,298,-68
17:33:49.263,,638,272,-87
17:33:49.300,,707,302,-71
17:33:49.337,,774,316,-52
17:33:49.374,,826,396,23
17:33:49.410,,1055,496,77
17:33:49.447,,1291,581,77
17:33:49.484,,1017,479,151
17:33:49.521,,1017,496,248
17:33:49.557,,1135,638,248
17:33:49.594,,990,510,168
17:33:49.631,,789,333,117
17:33:49.668,,698,384,104
17:33:49.704,,702,443,110
17:33:49.741,,696,504,99
17:33:49.777,,635,570,119
17:33:49.813,,731,609,169
17:33:49.850,,870,703,227
17:33:49.886,,970,722,253
17:33:49.922,,986,598,216
17:33:49.959,,1302,683,216
17:33:49.996,,1235,679,216
17:33:50.032,,1061,527,114
17:33:50.069,,1050,546,95
17:33:50.106,,1015,561,55
17:33:50.143,,928,441,6
17:33:50.179,,867,343,-36
17:33:50.216,,831,309,-60
17:33:50.253,,849,301,-81
17:33:50.290,,831,298,-96
17:33:50.326,,790,277,-101
17:33:50.363,,790,304,-82
17:33:50.400,,766,337,-40
17:33:50.437,,719,343,22
17:33:50.474,,800,419,112
17:33:50.510,,1093,552,116
17:33:50.547,,1034,505,107
17:33:50.584,,865,409,198
17:33:50.621,,1056,583,271
17:33:50.657,,1124,643,187
17:33:50.694,,947,469,128
17:33:50.731,,775,403,114
17:33:50.768,,742,406,105
17:33:50.804,,780,448,61
17:33:50.841,,755,515,51
17:33:50.877,,706,543,120
17:33:50.913,,775,626,160
17:33:50.949,,884,697,194
17:33:50.986,,993,726,210
17:33:51.022,,962,578,171
17:33:51.058,,1178,668,207
17:33:51.094,,1136,726,214
17:33:51.131,,915,536,60
17:33:51.167,,985,586,59
17:33:51.204,,998,605,61
17:33:51.241,,945,495,6
17:33:51.278,,870,387,-24
17:33:51.314,,846,330,-40
17:33:51.351,,873,298,-63
17:33:51.388,,873,274,-78
17:33:51.425,,823,257,-71
17:33:51.461,,827,291,-51
17:33:51.498,,847,339,-38
17:33:51.535,,818,348,12
17:33:51.572,,1052,432,60
17:33:51.608,,1062,532,116
17:33:51.645,,910,551,248
17:33:51.682,,869,464,327
17:33:51.719,,946,508,255
17:33:51.755,,911,429,182
17:33:51.792,,765,396,184
17:33:51.829,,703,389,117
17:33:51.865,,727,425,75
17:33:51.902,,747,485,77
17:33:51.939,,756,563,128
17:33:51.976,,833,601,226
17:33:52.012,,897,680,295
17:33:52.049,,964,703,313
17:33:52.086,,950,616,244
17:33:52.122,,1210,630,200
17:33:52.159,,1115,733,260
17:33:52.196,,998,582,146
17:33:52.232,,1096,590,135
17:33:52.269,,1095,572,122
17:33:52.306,,999,439,70
17:33:52.343,,903,347,23
17:33:52.379,,854,330,-1
17:33:52.416,,856,345,-22
17:33:52.453,,824,355,-11
17:33:52.490,,741,346,13
17:33:52.526,,727,360,37
17:33:52.563,,731,369,52
17:33:52.600,,696,350,76
17:33:52.637,,768,406,159
17:33:52.673,,1057,500,127
17:33:52.710,,1002,451,124
17:33:52.747,,918,415,206
17:33:52.783,,1074,529,207
17:33:52.820,,1099,578,143
17:33:52.857,,890,448,109
17:33:52.893,,725,390,87
17:33:52.930,,709,418,71
17:33:52.966,,754,467,49
17:33:53.002,,769,514,65
17:33:53.039,,753,568,113
17:33:53.075,,828,633,185
17:33:53.111,,887,756,263
17:33:53.147,,988,807,302
17:33:53.184,,1149,681,219
17:33:53.220,,1261,721,294
17:33:53.256,,1059,533,207
17:33:53.292,,994,478,155
17:33:53.329,,1039,560,133
17:33:53.365,,1000,594,100
17:33:53.402,,875,442,33
17:33:53.439,,813,368,-20
17:33:53.476,,815,332,-57
17:33:53.512,,833,310,-83
17:33:53.549,,832,281,-109
17:33:53.586,,865,278,-106
17:33:53.623,,873,303,-84
17:33:53.659,,824,318,-20
17:33:53.696,,810,381,62
17:33:53.733,,907,447,133
17:33:53.769,,1124,540,112
17:33:53.806,,854,422,132
17:33:53.843,,834,371,199
17:33:53.880,,1032,630,243
17:33:53.916,,1001,614,153
17:33:53.953,,802,439,118
17:33:53.990,,721,412,120
17:33:54.026,,759,440,105
17:33:54.063,,820,483,90
17:33:54.100,,771,549,126
17:33:54.136,,770,596,199
17:33:54.172,,833,711,254
17:33:54.208,,950,755,243
17:33:54.245,,1044,651,173
17:33:54.282,,1362,706,158
17:33:54.319,,1251,663,152
17:33:54.356,,1061,500,64
17:33:54.392,,1013,509,56
17:33:54.429,,962,552,26
17:33:54.466,,936,461,-33
17:33:54.503,,886,368,-59
17:33:54.539,,843,331,-70
17:33:54.576,,815,308,-85
17:33:54.613,,779,287,-99
17:33:54.650,,729,270,-93
17:33:54.687,,750,291,-73
17:33:54.723,,781,305,-55
17:33:54.760,,775,320,87
17:33:54.797,,985,486,135
17:33:54.834,,1204,559,84
17:33:54.870,,900,470,144
17:33:54.907,,956,481,220
17:33:54.944,,1177,717,212
17:33:54.981,,999,647,128
17:33:55.017,,728,366,112
17:33:55.054,,657,302,99
17:33:55.091,,705,357,81
17:33:55.128,,740,499,32
17:33:55.164,,672,643,79
17:33:55.200,,716,694,95
17:33:55.237,,830,719,136
17:33:55.273,,1026,691,159
17:33:55.309,,1158,560,139
17:33:55.346,,1348,610,202
17:33:55.382,,1217,584,189
17:33:55.419,,1101,566,151
17:33:55.456,,1017,592,94
17:33:55.492,,959,583,17
17:33:55.529,,885,504,-19
17:33:55.566,,828,533,-67
17:33:55.603,,809,564,-98
17:33:55.639,,799,622,-127
17:33:55.676,,782,731,-161
17:33:55.713,,680,803,-167
17:33:55.750,,543,813,-233
17:33:55.787,,417,836,-255
17:33:55.823,,279,841,-206
17:33:55.860,,168,872,-158
17:33:55.897,,49,997,-221
17:33:55.934,,-60,1009,-286
17:33:55.971,,-200,1032,-325
17:33:56.007,,-267,903,-408
17:33:56.044,,-255,758,-450
17:33:56.081,,-344,516,-531
17:33:56.118,,-453,465,-532
17:33:56.154,,-500,600,-388
17:33:56.191,,-461,431,-160
17:33:56.228,,-527,120,-213
17:33:56.265,,-599,-344,-219
17:33:56.301,,-806,-307,-212
17:33:56.338,,-1101,256,-531
17:33:56.375,,-1160,646,-706
17:33:56.412,,-1003,566,-509
17:33:56.448,,-1245,603,-796
17:33:56.485,,-1120,537,-865
17:33:56.522,,-927,492,-631
17:33:56.558,,-944,268,-651
17:33:56.595,,-817,143,-569
17:33:56.632,,-670,293,-397
17:33:56.668,,-535,214,-206
17:33:56.705,,-397,173,-230
17:33:56.742,,-294,401,-360
17:33:56.778,,-325,732,-333
17:33:56.815,,-564,738,-255
17:33:56.852,,-709,827,-283
17:33:56.889,,-810,973,-307
17:33:56.926,,-871,847,-165
17:33:56.962,,-981,638,-288
17:33:56.999,,-1035,688,-334
17:33:57.036,,-749,1016,-6
17:33:57.073,,-454,862,75
17:33:57.110,,-500,950,-20
17:33:57.146,,-590,707,-65
17:33:57.183,,-554,564,-129
17:33:57.220,,-481,322,-71
17:33:57.257,,-543,383,-32
17:33:57.293,,-536,491,-24
17:33:57.330,,-398,411,241
17:33:57.367,,-488,707,501
17:33:57.404,,-697,814,380
17:33:57.441,,-880,1093,346
17:33:57.477,,-761,1034,513
17:33:57.514,,-745,824,504
17:33:57.551,,-821,842,390
17:33:57.588,,-815,1217,476
17:33:57.625,,-595,664,273
17:33:57.661,,-496,693,263
17:33:57.698,,-433,872,433
17:33:57.735,,-326,741,431
17:33:57.772,,-255,501,360
17:33:57.809,,-311,494,349
17:33:57.846,,-385,588,368
17:33:57.882,,-423,635,361
17:33:57.919,,-463,735,444
17:33:57.956,,-472,835,599
17:33:57.993,,-431,815,690
17:33:58.030,,-414,747,710
17:33:58.067,,-536,855,839
17:33:58.104,,-489,1122,1056
17:33:58.140,,-264,730,659
17:33:58.177,,-203,576,380
17:33:58.214,,-218,589,424
17:33:58.251,,-288,678,584
17:33:58.288,,-329,637,498
17:33:58.325,,-346,406,437
17:33:58.361,,-360,422,437
17:33:58.398,,-418,492,482
17:33:58.435,,-465,535,553
17:33:58.472,,-473,582,614
17:33:58.509,,-550,668,621
17:33:58.545,,-668,872,658
17:33:58.582,,-606,845,675
17:33:58.619,,-793,924,498
17:33:58.656,,-917,1222,513
17:33:58.693,,-552,857,259
17:33:58.730,,-411,706,152
17:33:58.766,,-426,897,307
17:33:58.803,,-371,967,483
17:33:58.840,,-324,699,383
17:33:58.877,,-363,514,234
17:33:58.914,,-449,547,151
17:33:58.951,,-514,611,170
17:33:58.988,,-525,699,221
17:33:59.024,,-519,782,325
17:33:59.061,,-486,849,500
17:33:59.098,,-509,893,437
17:33:59.135,,-563,795,519
17:33:59.172,,-705,1161,679
17:33:59.209,,-530,1077,634
17:33:59.245,,-287,578,317
17:33:59.282,,-295,660,370
17:33:59.319,,-397,869,524
17:33:59.356,,-409,716,394
17:33:59.393,,-413,488,257
17:33:59.430,,-429,444,271
17:33:59.466,,-458,501,347
17:33:59.503,,-494,554,369
17:33:59.540,,-501,580,414
17:33:59.577,,-596,632,441
17:33:59.614,,-772,794,448
17:33:59.651,,-781,936,576
17:33:59.687,,-725,853,456
17:33:59.724,,-973,1056,364
17:33:59.761,,-803,1004,346
17:33:59.798,,-588,697,169
17:33:59.835,,-605,800,159
17:33:59.872,,-538,906,346
17:33:59.908,,-382,708,412
17:33:59.945,,-343,508,285
17:33:59.982,,-386,457,173
17:34:00.019,,-467,549,175
17:34:00.056,,-490,612,240
17:34:00.093,,-489,704,280
17:34:00.129,,-496,782,408
17:34:00.166,,-593,901,426
17:34:00.203,,-665,857,476
17:34:00.240,,-803,1099,571
17:34:00.277,,-681,1207,543
17:34:00.314,,-294,749,283
17:34:00.351,,-184,712,256
17:34:00.387,,-343,991,509
17:34:00.424,,-408,951,438
17:34:00.461,,-370,604,263
17:34:00.498,,-404,447,206
17:34:00.535,,-470,433,264
17:34:00.572,,-519,493,329
17:34:00.608,,-471,538,367
17:34:00.645,,-472,587,433
17:34:00.682,,-638,771,468
17:34:00.719,,-748,932,491
17:34:00.756,,-821,1003,544
17:34:00.793,,-1012,1289,400
17:34:00.830,,-748,918,258
17:34:00.866,,-544,800,269
17:34:00.903,,-624,694,159
17:34:00.940,,-599,665,165
17:34:00.977,,-470,584,227
17:34:01.014,,-414,503,214
17:34:01.051,,-435,520,188
17:34:01.087,,-493,595,201
17:34:01.124,,-512,652,247
17:34:01.161,,-503,694,257
17:34:01.198,,-502,770,318
17:34:01.235,,-558,917,396
17:34:01.272,,-600,890,459
17:34:01.309,,-787,1172,519
17:34:01.345,,-627,1251,572
17:34:01.382,,-283,758,217
17:34:01.419,,-301,904,365
17:34:01.456,,-418,1017,515
17:34:01.493,,-373,686,309
17:34:01.530,,-370,442,160
17:34:01.567,,-414,392,171
17:34:01.603,,-472,434,272
17:34:01.640,,-526,507,325
17:34:01.677,,-544,596,349
17:34:01.714,,-621,715,450
17:34:01.751,,-728,902,477
17:34:01.788,,-710,1021,623
17:34:01.825,,-641,879,530
17:34:01.861,,-988,1016,241
17:34:01.898,,-956,924,213
17:34:01.935,,-672,656,70
17:34:01.972,,-562,754,91
17:34:02.009,,-528,922,366
17:34:02.046,,-373,739,418
17:34:02.083,,-316,519,223
17:34:02.119,,-373,497,125
17:34:02.156,,-453,615,203
17:34:02.193,,-474,652,277
17:34:02.230,,-484,668,243
17:34:02.267,,-509,785,363
17:34:02.304,,-561,929,418
17:34:02.341,,-642,840,459
17:34:02.377,,-809,1183,601
17:34:02.414,,-715,1008,490
17:34:02.451,,-421,650,336
17:34:02.488,,-329,752,323
17:34:02.525,,-456,880,418
17:34:02.562,,-465,814,394
17:34:02.599,,-419,549,289
17:34:02.635,,-449,430,207
17:34:02.672,,-514,469,221
17:34:02.709,,-528,534,297
17:34:02.746,,-452,551,364
17:34:02.783,,-494,649,437
17:34:02.820,,-646,854,444
17:34:02.857,,-663,922,465
17:34:02.893,,-689,948,571
17:34:02.930,,-932,1142,365
17:34:02.967,,-898,915,224
17:34:03.004,,-644,777,204
17:34:03.041,,-589,746,94
17:34:03.078,,-560,748,154
17:34:03.114,,-433,709,332
17:34:03.151,,-390,577,273
17:34:03.188,,-428,509,132
17:34:03.225,,-485,572,110
17:34:03.262,,-517,650,205
17:34:03.299,,-525,731,257
17:34:03.336,,-509,809,315
17:34:03.373,,-533,933,417
17:34:03.409,,-590,893,386
17:34:03.446,,-746,883,374
17:34:03.483,,-831,1327,588
17:34:03.520,,-431,813,231
17:34:03.557,,-261,634,116
17:34:03.594,,-420,1039,505
17:34:03.631,,-439,1036,459
17:34:03.667,,-367,613,239
17:34:03.704,,-412,429,170
17:34:03.741,,-478,409,183
17:34:03.778,,-530,449,224
17:34:03.815,,-502,485,284
17:34:03.852,,-497,533,418
17:34:03.888,,-676,762,495
17:34:03.925,,-871,1031,526
17:34:03.962,,-789,960,629
17:34:03.999,,-893,1078,283
17:34:04.036,,-849,975,315
17:34:04.073,,-611,759,204
17:34:04.110,,-572,728,92
17:34:04.146,,-605,801,56
17:34:04.183,,-466,731,213
17:34:04.220,,-352,591,278
17:34:04.257,,-352,550,139
17:34:04.294,,-430,543,141
17:34:04.331,,-516,679,245
17:34:04.367,,-522,694,286
17:34:04.404,,-572,711,333
17:34:04.441,,-707,779,327
17:34:04.478,,-755,800,247
17:34:04.515,,-743,818,365
17:34:04.552,,-866,1189,463
17:34:04.589,,-725,1294,421
17:34:04.625,,-363,717,115
17:34:04.662,,-272,766,204
17:34:04.699,,-440,901,381
17:34:04.736,,-450,790,265
17:34:04.773,,-422,538,162
17:34:04.810,,-446,433,174
17:34:04.846,,-495,477,220
17:34:04.883,,-524,671,395
17:34:04.920,,-472,782,627
17:34:04.957,,-510,640,617
17:34:04.994,,-651,592,540
17:34:05.031,,-744,790,557
17:34:05.067,,-648,644,473
17:34:05.104,,-806,670,363
17:34:05.141,,-993,983,499
17:34:05.178,,-668,785,469
17:34:05.215,,-523,697,218
17:34:05.251,,-605,991,223
17:34:05.288,,-461,853,305
17:34:05.325,,-324,575,342
17:34:05.362,,-330,504,162
17:34:05.399,,-307,316,24
17:34:05.436,,-381,847,-310
17:34:05.472,,-444,945,-405
17:34:05.509,,-419,1091,-401
17:34:05.546,,-343,1160,-292
17:34:05.583,,-293,1022,-155
17:34:05.620,,-335,899,-160
17:34:05.656,,-560,1283,-309
17:34:05.693,,-412,1166,-148
17:34:05.730,,-150,586,83
17:34:05.767,,-26,722,161
17:34:05.804,,-198,888,147
17:34:05.841,,-251,833,-17
17:34:05.877,,-287,666,66
17:34:05.914,,-248,595,154
17:34:05.951,,-202,610,378
17:34:05.988,,-242,766,362
17:34:06.025,,-425,1031,236
17:34:06.062,,-322,1163,275
17:34:06.098,,-236,1115,431
17:34:06.135,,-281,1148,429
17:34:06.172,,-565,1428,200
17:34:06.209,,-395,1466,120
17:34:06.246,,-135,902,-40
17:34:06.283,,-159,874,-191
17:34:06.319,,-141,952,-66
17:34:06.356,,-110,890,184
17:34:06.393,,-160,850,188
17:34:06.430,,-222,723,48
17:34:06.467,,-283,705,-50
17:34:06.504,,-264,722,-15
17:34:06.541,,-220,773,32
17:34:06.577,,-232,942,71
17:34:06.614,,-254,1121,86
17:34:06.651,,-245,1044,127
17:34:06.688,,-382,1221,168
17:34:06.725,,-391,1517,230
17:34:06.762,,-153,914,116
17:34:06.798,,14,585,-60
17:34:06.835,,-82,796,-64
17:34:06.872,,-134,1217,268
17:34:06.909,,-156,1003,349
17:34:06.946,,-229,677,155
17:34:06.983,,-323,585,48
17:34:07.019,,-388,669,41
17:34:07.056,,-356,715,96
17:34:07.093,,-305,785,199
17:34:07.130,,-367,949,191
17:34:07.167,,-352,1160,173
17:34:07.204,,-243,1120,175
17:34:07.240,,-399,1430,108
17:34:07.277,,-484,1490,79
17:34:07.314,,-282,1027,-46
17:34:07.351,,-223,782,-80
17:34:07.388,,-308,901,-82
17:34:07.425,,-315,927,-27
17:34:07.461,,-230,810,73
17:34:07.498,,-203,765,123
17:34:07.535,,-255,771,63
17:34:07.572,,-309,762,-3
17:34:07.609,,-305,722,20
17:34:07.646,,-334,792,53
17:34:07.683,,-358,943,82
17:34:07.719,,-318,1065,90
17:34:07.756,,-278,983,135
17:34:07.793,,-394,1519,194
17:34:07.830,,-235,1274,249
17:34:07.867,,-36,908,76
17:34:07.904,,101,822,10
17:34:07.940,,-40,975,110
17:34:07.977,,-145,1104,279
17:34:08.014,,-224,750,171
17:34:08.051,,-296,562,34
17:34:08.088,,-380,583,21
17:34:08.125,,-361,684,89
17:34:08.161,,-272,765,148
17:34:08.198,,-252,895,187
17:34:08.235,,-285,1103,214
17:34:08.272,,-204,1224,213
17:34:08.309,,-187,1142,212
17:34:08.346,,-392,1383,159
17:34:08.382,,-533,1225,33
17:34:08.419,,-390,939,-14
17:34:08.456,,-241,748,-127
17:34:08.493,,-296,892,-201
17:34:08.530,,-283,1012,-70
17:34:08.567,,-144,878,175
17:34:08.603,,-152,852,212
17:34:08.640,,-317,733,12
17:34:08.677,,-436,686,-143
17:34:08.714,,-360,721,-46
17:34:08.751,,-254,796,97
17:34:08.788,,-284,1017,110
17:34:08.825,,-314,1125,66
17:34:08.861,,-280,1020,119
17:34:08.898,,-274,1232,236
17:34:08.935,,-196,1615,91
17:34:08.972,,27,946,-52
17:34:09.009,,39,720,-169
17:34:09.046,,-110,917,-92
17:34:09.083,,-227,998,117
17:34:09.119,,-274,794,149
17:34:09.156,,-312,635,90
17:34:09.193,,-318,627,63
17:34:09.230,,-306,687,83
17:34:09.267,,-290,788,111
17:34:09.303,,-297,847,149
17:34:09.340,,-424,955,154
17:34:09.377,,-476,1231,163
17:34:09.414,,-409,1084,176
17:34:09.451,,-513,1410,92
17:34:09.488,,-585,1417,5
17:34:09.524,,-384,955,-92
17:34:09.561,,-281,792,-201
17:34:09.598,,-310,859,-232
17:34:09.635,,-280,790,-114
17:34:09.672,,-198,705,68
17:34:09.709,,-226,801,165
17:34:09.745,,-309,806,79
17:34:09.782,,-318,750,-56
17:34:09.819,,-278,716,-95
17:34:09.856,,-237,818,-21
17:34:09.893,,-227,1048,39
17:34:09.930,,-268,1062,21
17:34:09.967,,-356,1082,62
17:34:10.003,,-402,1671,125
17:34:10.040,,-183,1188,126
17:34:10.077,,33,731,-59
17:34:10.114,,-33,693,-186
17:34:10.151,,-205,993,3
17:34:10.188,,-241,989,208
17:34:10.224,,-305,789,162
17:34:10.261,,-385,648,67
17:34:10.298,,-433,699,12
17:34:10.335,,-394,722,7
17:34:10.372,,-302,697,82
17:34:10.409,,-324,844,113
17:34:10.445,,-366,1093,114
17:34:10.482,,-302,1171,111
17:34:10.519,,-368,1263,81
17:34:10.556,,-632,1571,0
17:34:10.593,,-496,1268,-14
17:34:10.629,,-214,774,-128
17:34:10.666,,-211,668,-210
17:34:10.703,,-336,852,-260
17:34:10.740,,-285,814,-135
17:34:10.777,,-177,703,72
17:34:10.814,,-225,847,141
17:34:10.851,,-326,874,50
17:34:10.887,,-363,793,-83
17:34:10.924,,-324,741,-119
17:34:10.961,,-297,806,-22
17:34:10.998,,-350,1003,8
17:34:11.035,,-399,976,19
17:34:11.072,,-495,1339,39
17:34:11.108,,-373,1575,125
17:34:11.145,,-82,996,66
17:34:11.182,,81,870,-8
17:34:11.219,,-8,836,-136
17:34:11.256,,-131,1063,47
17:34:11.293,,-215,897,153
17:34:11.329,,-292,608,96
17:34:11.366,,-380,537,3
17:34:11.403,,-432,591,-43
17:34:11.440,,-400,714,-6
17:34:11.477,,-314,802,89
17:34:11.513,,-360,981,107
17:34:11.550,,-397,1323,144
17:34:11.587,,-317,1183,129
17:34:11.624,,-492,1490,5
17:34:11.661,,-531,1393,-52
17:34:11.698,,-318,846,-160
17:34:11.734,,-314,785,-234
17:34:11.771,,-413,926,-241
17:34:11.808,,-336,814,-154
17:34:11.845,,-192,658,-10
17:34:11.882,,-171,682,92
17:34:11.919,,-267,814,48
17:34:11.955,,-330,798,-61
17:34:11.992,,-326,749,-125
17:34:12.029,,-301,818,-96
17:34:12.066,,-279,961,-17
17:34:12.103,,-321,1057,-8
17:34:12.140,,-415,1080,40
17:34:12.176,,-493,1661,60
17:34:12.213,,-176,1095,97
17:34:12.250,,83,801,-47
17:34:12.287,,-11,858,-149
17:34:12.324,,-140,1087,44
17:34:12.361,,-202,982,177
17:34:12.397,,-279,699,99
17:34:12.434,,-364,571,0
17:34:12.471,,-394,596,-43
17:34:12.508,,-356,664,-25
17:34:12.545,,-318,715,38
17:34:12.582,,-405,936,67
17:34:12.618,,-454,1304,90
17:34:12.655,,-337,1212,137
17:34:12.692,,-430,1458,53
17:34:12.729,,-536,1402,-38
17:34:12.766,,-386,896,-156
17:34:12.802,,-337,722,-240
17:34:12.839,,-415,871,-276
17:34:12.876,,-379,875,-235
17:34:12.913,,-219,703,-79
17:34:12.950,,-154,687,97
17:34:12.987,,-248,837,103
17:34:13.023,,-330,796,-17
17:34:13.060,,-347,727,-144
17:34:13.097,,-317,755,-131
17:34:13.134,,-278,926,-41
17:34:13.171,,-295,1057,-29
17:34:13.208,,-337,1011,16
17:34:13.245,,-481,1566,63
17:34:13.281,,-331,1513,94
17:34:13.318,,-35,848,38
17:34:13.355,,-32,690,-153
17:34:13.392,,-188,767,-206
17:34:13.429,,-238,1074,13
17:34:13.466,,-241,817,154
17:34:13.502,,-301,684,100
17:34:13.539,,-349,659,15
17:34:13.576,,-326,671,-15
17:34:13.613,,-283,709,47
17:34:13.650,,-280,880,65
17:34:13.686,,-353,1021,81
17:34:13.723,,-381,1175,60
17:34:13.760,,-375,1105,58
17:34:13.797,,-582,1464,-16
17:34:13.834,,-542,1277,-34
17:34:13.871,,-340,912,-134
17:34:13.907,,-313,795,-207
17:34:13.944,,-364,874,-264
17:34:13.981,,-299,782,-232
17:34:14.018,,-203,672,-50
17:34:14.055,,-205,754,95
17:34:14.092,,-281,849,69
17:34:14.128,,-320,814,-68
17:34:14.165,,-292,760,-160
17:34:14.202,,-265,837,-111
17:34:14.239,,-261,973,-51
17:34:14.276,,-286,1046,-14
17:34:14.313,,-365,1006,8
17:34:14.349,,-516,1703,10
17:34:14.386,,-199,1161,109
17:34:14.423,,9,797,-46
17:34:14.460,,-104,757,-205
17:34:14.497,,-231,972,-36
17:34:14.534,,-259,960,147
17:34:14.570,,-323,705,116
17:34:14.607,,-401,558,22
17:34:14.644,,-430,604,-19
17:34:14.681,,-381,667,12
17:34:14.718,,-346,714,44
17:34:14.754,,-422,926,52
17:34:14.791,,-463,1251,91
17:34:14.828,,-373,1226,123
17:34:14.865,,-396,1287,104
17:34:14.902,,-573,1448,-22
17:34:14.939,,-461,1067,-136
17:34:14.975,,-320,812,-245
17:34:15.012,,-342,814,-287
17:34:15.049,,-333,829,-265
17:34:15.086,,-239,737,-119
17:34:15.123,,-163,667,89
17:34:15.159,,-228,852,133
17:34:15.196,,-329,817,0
17:34:15.233,,-350,789,-133
17:34:15.270,,-333,815,-153
17:34:15.307,,-262,880,-71
17:34:15.344,,-239,1043,-8
17:34:15.380,,-295,1034,6
17:34:15.417,,-396,1168,14
17:34:15.454,,-415,1688,0
17:34:15.491,,-93,1069,4
17:34:15.528,,67,653,-166
17:34:15.565,,-63,787,-206
17:34:15.601,,-172,1013,37
17:34:15.638,,-216,957,166
17:34:15.675,,-288,700,70
17:34:15.712,,-363,610,-37
17:34:15.749,,-367,664,-56
17:34:15.786,,-306,746,-15
17:34:15.822,,-259,766,64
17:34:15.859,,-339,944,99
17:34:15.896,,-429,1332,102
17:34:15.933,,-325,1203,91
17:34:15.970,,-356,1250,35
17:34:16.006,,-541,1430,-49
17:34:16.043,,-420,1058,-128
17:34:16.080,,-280,749,-202
17:34:16.117,,-325,779,-267
17:34:16.154,,-351,874,-264
17:34:16.191,,-233,736,-94
17:34:16.228,,-169,715,99
17:34:16.264,,-254,836,122
17:34:16.301,,-332,805,-6
17:34:16.338,,-320,774,-127
17:34:16.375,,-242,800,-98
17:34:16.412,,-225,961,-21
17:34:16.449,,-289,1090,17
17:34:16.485,,-345,1042,52
17:34:16.522,,-439,1214,90
17:34:16.559,,-408,1716,52
17:34:16.596,,-59,997,7
17:34:16.633,,60,507,-206
17:34:16.670,,-143,722,-225
17:34:16.706,,-301,1071,-19
17:34:16.743,,-317,813,140
17:34:16.780,,-372,701,117
17:34:16.817,,-417,698,27
17:34:16.854,,-381,710,-37
17:34:16.891,,-320,737,-29
17:34:16.927,,-298,800,45
17:34:16.964,,-359,953,84
17:34:17.001,,-434,1273,82
17:34:17.038,,-345,1151,94
17:34:17.075,,-416,1238,24
17:34:17.112,,-605,1418,-75
17:34:17.148,,-432,1036,-143
17:34:17.185,,-251,690,-231
17:34:17.222,,-293,786,-249
17:34:17.259,,-210,756,-70
17:34:17.296,,-177,750,105
17:34:17.333,,-280,863,99
17:34:17.369,,-347,820,-25
17:34:17.406,,-323,747,-146
17:34:17.443,,-275,748,-151
17:34:17.480,,-269,865,-82
17:34:17.517,,-325,1120,1
17:34:17.554,,-381,1063,49
17:34:17.591,,-522,1382,-9
17:34:17.627,,-447,1500,-18
17:34:17.664,,-30,887,8
17:34:17.701,,156,762,-143
17:34:17.738,,-12,814,-150
17:34:17.775,,-130,1126,47
17:34:17.812,,-185,852,124
17:34:17.848,,-273,653,33
17:34:17.885,,-358,640,-70
17:34:17.922,,-344,683,-94
17:34:17.959,,-264,690,-3
17:34:17.996,,-274,766,59
17:34:18.033,,-425,1065,28
17:34:18.069,,-434,1361,38
17:34:18.106,,-282,1120,62
17:34:18.143,,-493,1503,-54
17:34:18.180,,-569,1387,-118
17:34:18.217,,-362,869,-205
17:34:18.254,,-297,698,-301
17:34:18.290,,-373,790,-361
17:34:18.327,,-336,771,-285
17:34:18.364,,-226,656,-100
17:34:18.401,,-209,739,47
17:34:18.438,,-279,876,48
17:34:18.475,,-300,829,-74
17:34:18.511,,-265,734,-172
17:34:18.548,,-231,782,-135
17:34:18.585,,-253,955,-76
17:34:18.622,,-319,1072,-17
17:34:18.659,,-379,1078,18
17:34:18.696,,-557,1666,-51
17:34:18.732,,-345,1288,-27
17:34:18.769,,-6,791,-39
17:34:18.806,,36,811,-140
17:34:18.843,,-109,927,-118
17:34:18.880,,-186,949,13
17:34:18.917,,-254,683,37
17:34:18.953,,-358,642,-14
17:34:18.990,,-399,650,-57
17:34:19.027,,-355,669,-62
17:34:19.064,,-299,700,0
17:34:19.101,,-334,846,43
17:34:19.137,,-453,1183,36
17:34:19.174,,-405,1390,81
17:34:19.211,,-284,1111,55
17:34:19.248,,-537,1459,-99
17:34:19.285,,-541,1201,-144
17:34:19.322,,-382,843,-205
17:34:19.358,,-397,818,-310
17:34:19.395,,-382,837,-346
17:34:19.432,,-257,696,-227
17:34:19.469,,-168,597,-46
17:34:19.506,,-195,725,88
17:34:19.542,,-326,924,71
17:34:19.579,,-348,813,-38
17:34:19.616,,-337,754,-161
17:34:19.653,,-319,797,-178
17:34:19.690,,-327,984,-111
17:34:19.727,,-352,1006,25
17:34:19.763,,-544,1459,41
17:34:19.800,,-444,1588,8
17:34:19.837,,-150,858,-27
17:34:19.874,,-27,678,-68
17:34:19.911,,-89,744,-196
17:34:19.948,,-211,937,-81
17:34:19.984,,-295,907,42
17:34:20.021,,-361,764,43
17:34:20.058,,-399,707,-8
17:34:20.095,,-382,657,-64
17:34:20.132,,-335,640,-57
17:34:20.168,,-339,709,-51
17:34:20.205,,-427,923,-41
17:34:20.242,,-468,1223,-33
17:34:20.279,,-380,1169,-2
17:34:20.316,,-517,1483,-110
17:34:20.352,,-543,1525,-141
17:34:20.389,,-256,996,-249
17:34:20.426,,-179,680,-254
17:34:20.463,,-319,790,-261
17:34:20.500,,-362,852,-232
17:34:20.536,,-285,700,-151
17:34:20.573,,-246,659,-55
17:34:20.610,,-296,728,-36
17:34:20.647,,-357,771,-64
17:34:20.684,,-359,788,-114
17:34:20.721,,-287,805,-118
17:34:20.757,,-260,919,-90
17:34:20.794,,-323,1128,-47
17:34:20.831,,-349,1092,21
17:34:20.868,,-428,1249,20
17:34:20.905,,-479,1781,-106
17:34:20.942,,-53,858,-53
17:34:20.978,,25,589,-227
17:34:21.015,,-200,777,-321
17:34:21.052,,-298,993,-126
17:34:21.089,,-259,804,73
17:34:21.126,,-320,668,61
17:34:21.162,,-410,628,-46
17:34:21.199,,-428,637,-105
17:34:21.236,,-374,676,-73
17:34:21.273,,-346,713,-11
17:34:21.310,,-445,956,6
17:34:21.346,,-501,1327,36
17:34:21.383,,-442,1213,-19
17:34:21.420,,-592,1572,-161
17:34:21.457,,-504,1326,-189
17:34:21.494,,-318,873,-268
17:34:21.531,,-300,640,-268
17:34:21.567,,-380,776,-279
17:34:21.604,,-383,771,-317
17:34:21.641,,-296,659,-210
17:34:21.678,,-248,704,-62
17:34:21.715,,-286,819,-13
17:34:21.751,,-310,823,-62
17:34:21.788,,-279,777,-129
17:34:21.825,,-240,794,-152
17:34:21.862,,-259,948,-117
17:34:21.899,,-350,1112,-77
17:34:21.936,,-373,1039,-3
17:34:21.972,,-488,1291,-20
17:34:22.009,,-482,1630,-67
17:34:22.046,,-59,846,-13
17:34:22.083,,-8,611,-225
17:34:22.120,,-241,771,-322
17:34:22.157,,-333,991,-147
17:34:22.193,,-330,724,41
17:34:22.230,,-448,647,48
17:34:22.267,,-552,681,-51
17:34:22.304,,-552,718,-117
17:34:22.341,,-471,742,-135
17:34:22.377,,-428,861,-130
17:34:22.414,,-402,1057,-86
17:34:22.451,,-376,1203,-76
17:34:22.488,,-291,1109,-52
17:34:22.525,,-386,1297,-220
17:34:22.562,,-483,1262,-307
17:34:22.598,,-328,959,-346
17:34:22.635,,-229,715,-350
17:34:22.672,,-279,707,-321
17:34:22.709,,-282,803,-250
17:34:22.746,,-176,780,-141
17:34:22.783,,-171,851,-90
17:34:22.820,,-232,778,-134
17:34:22.856,,-254,817,-182
17:34:22.893,,-204,859,-166
17:34:22.930,,-84,900,-134
17:34:22.967,,37,968,-99
17:34:23.004,,52,1097,-34
17:34:23.041,,-18,1155,-15
17:34:23.078,,-91,1131,-21
17:34:23.114,,-143,1108,-44
17:34:23.151,,-210,1227,-83
17:34:23.188,,-162,1436,-97
17:34:23.225,,2,947,-48
17:34:23.262,,21,625,-131
17:34:23.299,,-197,599,-276
17:34:23.336,,-443,854,-302
17:34:23.372,,-426,807,-112
17:34:23.409,,-295,675,103
17:34:23.446,,-271,802,168
17:34:23.483,,-289,929,157
17:34:23.520,,-240,932,150
17:34:23.557,,-184,988,122
17:34:23.593,,-164,1075,63
17:34:23.630,,-183,1143,48
17:34:23.667,,-142,1107,66
17:34:23.704,,-287,1374,-75
17:34:23.741,,-306,1398,-125
17:34:23.778,,-223,1056,-212
17:34:23.814,,-255,760,-282
17:34:23.851,,-397,703,-274
17:34:23.888,,-478,836,-250
17:34:23.925,,-399,694,-208
17:34:23.962,,-321,691,-102
17:34:23.998,,-296,769,-33
17:34:24.035,,-295,816,-38
17:34:24.072,,-307,886,-53
17:34:24.109,,-304,859,-71
17:34:24.146,,-322,925,-97
17:34:24.183,,-345,991,-71
17:34:24.219,,-359,1058,-46
17:34:24.256,,-382,1053,-45
17:34:24.293,,-459,1188,-98
17:34:24.330,,-444,1523,-123
17:34:24.367,,-196,1018,-50
17:34:24.403,,-50,666,-28
17:34:24.440,,-117,634,-157
17:34:24.477,,-209,790,-197
17:34:24.514,,-297,862,-118
17:34:24.551,,-342,711,5
17:34:24.588,,-349,702,58
17:34:24.624,,-401,785,33
17:34:24.661,,-452,790,9
17:34:24.698,,-450,732,18
17:34:24.735,,-526,876,28
17:34:24.772,,-555,1055,3
17:34:24.808,,-521,1172,-85
17:34:24.845,,-547,1132,-70
17:34:24.882,,-690,1354,-179
17:34:24.919,,-558,1088,-154
17:34:24.956,,-314,854,-161
17:34:24.992,,-320,693,-275
17:34:25.029,,-390,793,-322
17:34:25.066,,-365,741,-286
17:34:25.103,,-269,697,-146
17:34:25.140,,-217,754,3
17:34:25.176,,-268,826,13
17:34:25.213,,-344,840,-63
17:34:25.250,,-357,805,-146
17:34:25.287,,-363,855,-190
17:34:25.324,,-363,954,-171
17:34:25.360,,-371,983,-140
17:34:25.397,,-385,993,-79
17:34:25.434,,-387,1236,-68
17:34:25.471,,-386,1601,-302
17:34:25.508,,-126,1066,-302
17:34:25.544,,-53,662,-242
17:34:25.581,,-174,722,-298
17:34:25.618,,-209,744,-352
17:34:25.655,,-308,590,-210
17:34:25.692,,-438,775,-164
17:34:25.728,,-546,1211,-377
17:34:25.765,,-591,940,-361
17:34:25.802,,-585,811,-274
17:34:25.839,,-498,643,-278
17:34:25.875,,-379,380,-335
17:34:25.912,,-1102,650,-150
17:34:25.949,,-725,787,-497
17:34:25.986,,-780,285,-218
17:34:26.022,,-942,428,-500
17:34:26.059,,-861,460,-583
17:34:26.096,,-743,169,-473
17:34:26.132,,-672,87,-484
17:34:26.169,,-513,329,-582
17:34:26.206,,-468,632,-667
17:34:26.243,,-412,438,-549
17:34:26.280,,-346,505,-455
17:34:26.316,,-311,472,-316
17:34:26.353,,-252,393,-210
17:34:26.390,,-172,435,-226
17:34:26.427,,-42,585,-329
17:34:26.463,,156,682,-462
17:34:26.500,,250,1267,-741
17:34:26.537,,218,1545,-504
17:34:26.574,,311,1443,-39
17:34:26.611,,249,963,290
17:34:26.647,,508,-171,488
17:34:26.684,,929,-260,730
17:34:26.721,,1148,27,527
17:34:26.758,,1258,428,286
17:34:26.795,,1181,889,134
17:34:26.831,,996,1037,73
17:34:26.868,,839,873,51
17:34:26.905,,718,682,211
17:34:26.941,,622,492,376
17:34:26.978,,696,471,403
17:34:27.015,,902,615,367
17:34:27.051,,898,695,322
17:34:27.088,,967,707,266
17:34:27.125,,1224,828,399
17:34:27.161,,1075,580,373
17:34:27.198,,1023,450,302
17:34:27.235,,1035,508,339
17:34:27.272,,955,500,330
17:34:27.308,,819,404,241
17:34:27.345,,706,369,178
17:34:27.382,,657,352,163
17:34:27.419,,654,366,180
17:34:27.455,,667,394,205
17:34:27.492,,739,434,242
17:34:27.529,,806,427,294
17:34:27.566,,811,363,312
17:34:27.603,,770,364,363
17:34:27.640,,885,382,364
17:34:27.676,,1033,467,345
17:34:27.713,,861,457,414
17:34:27.750,,818,450,445
17:34:27.787,,877,406,354
17:34:27.823,,860,287,285
17:34:27.860,,691,205,299
17:34:27.897,,547,192,305
17:34:27.934,,508,215,323
17:34:27.970,,594,276,316
17:34:28.007,,687,363,333
17:34:28.044,,711,369,396
