Sensors' Acquisition [Hz]: Acc@26.0 
hh:mm:ss.ms, Annotation , AccX [mg], AccY, AccZ
19:11:17.365,,-571,1055,-195
19:11:17.402,,-499,896,-186
19:11:17.425,>walk,,,
19:11:17.439,,-479,901,-216
19:11:17.475,,-410,947,-208
19:11:17.512,,-351,885,-183
19:11:17.549,,-317,778,-135
19:11:17.586,,-339,732,-107
19:11:17.623,,-416,687,-80
19:11:17.660,,-413,694,-58
19:11:17.697,,-420,701,-67
19:11:17.734,,-455,714,-59
19:11:17.771,,-530,719,-58
19:11:17.808,,-549,809,-66
19:11:17.845,,-551,852,-139
19:11:17.881,,-538,827,-214
19:11:17.918,,-562,813,-332
19:11:17.955,,-570,986,-578
19:11:17.992,,-598,850,-624
19:11:18.029,,-540,773,-601
19:11:18.066,,-389,647,-582
19:11:18.103,,-366,508,-563
19:11:18.140,,-391,482,-546
19:11:18.177,,-332,321,-486
19:11:18.214,,-344,354,-452
19:11:18.251,,-310,464,-437
19:11:18.288,,-294,623,-429
19:11:18.324,,-342,624,-464
19:11:18.361,,-299,595,-462
19:11:18.398,,-156,765,-570
19:11:18.435,,-89,834,-689
19:11:18.472,,214,974,-975
19:11:18.509,,291,914,-942
19:11:18.546,,340,787,-856
19:11:18.583,,331,815,-687
19:11:18.620,,302,1038,-895
19:11:18.657,,369,1026,-884
19:11:18.694,,321,765,-580
19:11:18.731,,298,614,-411
19:11:18.768,,203,438,-433
19:11:18.805,,422,660,-695
19:11:18.842,,332,741,-861
19:11:18.879,,215,688,-401
19:11:18.916,,218,680,-469
19:11:18.953,,213,909,-538
19:11:18.990,,136,792,-453
19:11:19.026,,276,850,-604
19:11:19.063,,139,754,-535
19:11:19.100,,168,683,-507
19:11:19.137,,275,818,-697
19:11:19.174,,108,673,-501
19:11:19.211,,147,835,-559
19:11:19.248,,317,597,-691
19:11:19.285,,152,832,-586
19:11:19.322,,306,557,-622
19:11:19.359,,274,578,-566
19:11:19.396,,339,867,-730
19:11:19.433,,282,576,-703
19:11:19.470,,216,541,-503
19:11:19.507,,319,820,-825
19:11:19.544,,188,541,-564
19:11:19.581,,111,774,-653
19:11:19.618,,309,744,-892
19:11:19.655,,105,588,-556
19:11:19.691,,49,386,-626
19:11:19.728,,404,663,-551
19:11:19.765,,545,1173,-1075
19:11:19.802,,123,1132,-868
19:11:19.839,,476,342,-209
19:11:19.876,,444,617,-596
19:11:19.913,,417,596,-511
19:11:19.950,,434,495,-85
19:11:19.987,,340,833,-471
19:11:20.024,,449,660,-432
19:11:20.061,,221,482,-266
19:11:20.098,,287,1118,-970
19:11:20.135,,-85,467,-148
19:11:20.172,,395,750,-1165
19:11:20.209,,-119,973,-626
19:11:20.246,,123,576,-831
19:11:20.282,,132,598,-709
19:11:20.319,,195,966,-638
19:11:20.356,,187,618,-712
19:11:20.393,,177,730,-561
19:11:20.430,,192,733,-589
19:11:20.467,,198,608,-558
19:11:20.504,,213,646,-549
19:11:20.541,,210,567,-621
19:11:20.578,,436,449,-805
19:11:20.615,,27,752,-565
19:11:20.652,,-142,1170,-577
19:11:20.689,,415,430,-767
19:11:20.726,,77,795,-563
19:11:20.763,,190,706,-687
19:11:20.800,,90,402,-384
19:11:20.837,,367,1156,-847
19:11:20.874,,149,527,-721
19:11:20.911,,303,408,-733
19:11:20.948,,263,1335,-754
19:11:20.985,,321,348,-530
19:11:21.022,,348,-181,-547
19:11:21.058,,275,1115,-753
19:11:21.095,,325,582,-683
19:11:21.132,,325,584,-568
19:11:21.169,,200,716,-724
19:11:21.206,,113,677,-430
19:11:21.243,,276,726,-829
19:11:21.280,,23,838,-549
19:11:21.317,,113,778,-661
19:11:21.354,,156,677,-616
19:11:21.391,,27,750,-543
19:11:21.428,,173,641,-676
19:11:21.465,,194,807,-697
19:11:21.502,,193,673,-773
19:11:21.539,,198,605,-668
19:11:21.576,,219,636,-667
19:11:21.613,,278,632,-820
19:11:21.650,,196,441,-568
19:11:21.687,,221,644,-740
19:11:21.724,,215,508,-713
19:11:21.761,,194,689,-681
19:11:21.798,,207,607,-785
19:11:21.835,,146,582,-619
19:11:21.872,,232,691,-836
19:11:21.909,,134,550,-647
19:11:21.946,,303,684,-856
19:11:21.983,,310,658,-914
19:11:22.019,,169,652,-648
19:11:22.056,,309,593,-694
19:11:22.093,,312,634,-708
19:11:22.130,,312,645,-735
19:11:22.167,,251,564,-508
19:11:22.204,,267,609,-604
19:11:22.241,,280,546,-630
19:11:22.278,,291,617,-622
19:11:22.315,,277,673,-644
19:11:22.352,,223,664,-562
19:11:22.389,,160,663,-631
19:11:22.426,,142,651,-663
19:11:22.463,,64,673,-666
19:11:22.500,,227,758,-838
19:11:22.537,,134,653,-698
19:11:22.574,,160,663,-839
19:11:22.611,,141,694,-817
19:11:22.648,,172,650,-818
19:11:22.685,,299,530,-810
19:11:22.722,,216,557,-622
19:11:22.759,,186,387,-755
19:11:22.796,,242,494,-779
19:11:22.833,,170,603,-607
19:11:22.870,,125,566,-726
19:11:22.907,,284,383,-921
19:11:22.944,,49,600,-757
19:11:22.981,,97,564,-792
19:11:23.018,,153,574,-792
19:11:23.055,,192,559,-822
19:11:23.092,,176,562,-769
19:11:23.129,,150,523,-685
19:11:23.166,,303,694,-752
19:11:23.203,,211,627,-571
19:11:23.240,,292,561,-667
19:11:23.277,,331,453,-647
19:11:23.314,,407,498,-916
19:11:23.351,,365,587,-720
19:11:23.388,,276,667,-511
19:11:23.425,,226,645,-798
19:11:23.462,,311,602,-884
19:11:23.499,,-43,513,-249
19:11:23.535,,345,650,-1035
19:11:23.572,,123,833,-737
19:11:23.609,,207,490,-906
19:11:23.646,,15,659,-771
19:11:23.683,,-12,496,-729
19:11:23.720,,-122,601,-742
19:11:23.757,,425,570,-880
19:11:23.794,,196,719,-867
19:11:23.831,,74,663,-740
19:11:23.868,,241,537,-749
19:11:23.905,,184,458,-579
19:11:23.942,,268,518,-610
19:11:23.979,,312,587,-567
19:11:24.016,,291,558,-674
19:11:24.053,,290,718,-790
19:11:24.090,,214,531,-601
19:11:24.127,,208,857,-752
19:11:24.164,,182,701,-622
19:11:24.201,,294,554,-616
19:11:24.238,,296,776,-702
19:11:24.275,,211,1009,-775
19:11:24.312,,333,467,-504
19:11:24.349,,440,795,-547
19:11:24.386,,326,754,-646
19:11:24.423,,428,323,-390
19:11:24.460,,363,786,-435
19:11:24.497,,397,403,-544
19:11:24.534,,392,829,-486
19:11:24.571,,280,617,-645
19:11:24.608,,191,784,-591
19:11:24.645,,136,835,-687
19:11:24.681,,172,871,-887
19:11:24.718,,409,370,-1129
19:11:24.755,,35,472,-607
19:11:24.792,,152,830,-744
19:11:24.829,,257,984,-541
19:11:24.866,,219,491,-581
19:11:24.903,,287,849,-530
19:11:24.940,,341,577,-488
19:11:24.977,,314,726,-421
19:11:25.014,,212,752,-378
19:11:25.051,,322,538,-465
19:11:25.088,,401,612,-746
19:11:25.125,,293,639,-640
19:11:25.162,,272,715,-650
19:11:25.199,,286,515,-620
19:11:25.236,,207,770,-617
19:11:25.273,,418,601,-784
19:11:25.310,,173,543,-579
19:11:25.347,,477,676,-801
19:11:25.384,,326,860,-687
19:11:25.421,,378,569,-665
19:11:25.458,,409,633,-638
19:11:25.495,,419,484,-647
19:11:25.532,,347,445,-481
19:11:25.569,,411,625,-636
19:11:25.606,,391,606,-584
19:11:25.643,,322,757,-579
19:11:25.680,,272,739,-594
19:11:25.717,,231,890,-645
19:11:25.754,,229,647,-580
19:11:25.791,,205,843,-639
19:11:25.828,,232,740,-674
19:11:25.865,,212,634,-583
19:11:25.902,,294,636,-692
19:11:25.939,,287,704,-657
19:11:25.976,,332,758,-700
19:11:26.012,,322,647,-600
19:11:26.049,,256,577,-691
19:11:26.086,,325,456,-731
19:11:26.123,,331,472,-637
19:11:26.160,,421,502,-798
19:11:26.197,,227,533,-633
19:11:26.234,,397,460,-966
19:11:26.271,,229,664,-701
19:11:26.308,,251,463,-830
19:11:26.345,,234,715,-775
19:11:26.382,,280,512,-824
19:11:26.419,,283,674,-708
19:11:26.456,,335,688,-663
19:11:26.493,,342,790,-676
19:11:26.530,,400,512,-662
19:11:26.567,,425,464,-555
19:11:26.604,,408,411,-470
19:11:26.641,,439,540,-600
19:11:26.678,,429,507,-703
19:11:26.715,,337,617,-572
19:11:26.752,,300,704,-738
19:11:26.789,,195,789,-651
19:11:26.826,,98,665,-560
19:11:26.863,,234,839,-827
19:11:26.900,,138,698,-709
19:11:26.937,,130,649,-758
19:11:26.974,,155,605,-692
19:11:27.011,,227,503,-832
19:11:27.048,,210,713,-779
19:11:27.085,,223,511,-726
19:11:27.122,,301,591,-785
19:11:27.159,,275,517,-703
19:11:27.196,,292,496,-673
19:11:27.233,,227,552,-677
19:11:27.270,,206,512,-654
19:11:27.307,,161,624,-767
19:11:27.344,,428,638,-994
19:11:27.381,,67,527,-606
19:11:27.418,,201,450,-724
19:11:27.455,,388,808,-843
19:11:27.492,,422,343,-618
19:11:27.529,,178,950,-694
19:11:27.566,,337,696,-727
19:11:27.603,,312,635,-531
19:11:27.640,,416,525,-708
19:11:27.677,,402,362,-589
19:11:27.714,,372,641,-618
19:11:27.751,,399,564,-668
19:11:27.788,,285,700,-464
19:11:27.825,,310,682,-753
19:11:27.861,,196,783,-564
19:11:27.898,,203,800,-566
19:11:27.935,,213,868,-660
19:11:27.972,,142,660,-609
19:11:28.009,,179,534,-750
19:11:28.046,,170,693,-703
19:11:28.083,,186,836,-723
19:11:28.120,,261,798,-703
19:11:28.157,,266,543,-678
19:11:28.194,,258,547,-514
19:11:28.231,,263,682,-658
19:11:28.268,,282,460,-693
19:11:28.305,,210,569,-633
19:11:28.342,,358,676,-864
19:11:28.379,,200,608,-564
19:11:28.416,,310,696,-930
19:11:28.453,,259,628,-645
19:11:28.490,,223,615,-617
19:11:28.527,,345,638,-782
19:11:28.564,,248,779,-508
19:11:28.601,,354,698,-668
19:11:28.638,,396,658,-620
19:11:28.675,,352,576,-586
19:11:28.712,,342,455,-611
19:11:28.749,,377,548,-606
19:11:28.786,,388,575,-649
19:11:28.823,,340,514,-670
19:11:28.860,,285,594,-616
19:11:28.897,,272,630,-807
19:11:28.934,,255,684,-704
19:11:28.971,,130,686,-760
19:11:29.008,,185,633,-796
19:11:29.045,,203,603,-791
19:11:29.082,,125,653,-695
19:11:29.119,,254,576,-793
19:11:29.156,,235,648,-723
19:11:29.192,,251,618,-765
19:11:29.229,,249,573,-683
19:11:29.266,,237,523,-613
19:11:29.303,,374,530,-818
19:11:29.340,,258,551,-640
19:11:29.377,,263,587,-781
19:11:29.414,,190,672,-746
19:11:29.451,,170,587,-810
19:11:29.488,,267,543,-824
19:11:29.525,,162,633,-679
19:11:29.562,,283,572,-768
19:11:29.599,,323,495,-746
19:11:29.636,,302,521,-599
19:11:29.673,,393,779,-879
19:11:29.710,,356,492,-534
19:11:29.747,,379,530,-687
19:11:29.784,,404,494,-642
19:11:29.821,,413,463,-607
19:11:29.858,,339,613,-551
19:11:29.895,,408,575,-711
19:11:29.932,,279,581,-511
19:11:29.969,,307,721,-852
19:11:30.006,,273,661,-672
19:11:30.043,,157,666,-726
19:11:30.080,,144,704,-709
19:11:30.117,,115,686,-761
19:11:30.154,,161,585,-738
19:11:30.191,,195,682,-843
19:11:30.228,,84,602,-643
19:11:30.265,,301,686,-767
19:11:30.302,,315,539,-798
19:11:30.339,,252,487,-585
19:11:30.376,,386,450,-822
19:11:30.413,,309,452,-552
19:11:30.450,,276,612,-773
19:11:30.487,,246,463,-686
19:11:30.524,,289,630,-807
19:11:30.561,,194,659,-818
19:11:30.598,,117,585,-688
19:11:30.635,,231,616,-797
19:11:30.672,,251,607,-801
19:11:30.709,,266,579,-794
19:11:30.746,,234,616,-630
19:11:30.783,,351,678,-747
19:11:30.820,,320,533,-611
19:11:30.857,,368,527,-663
19:11:30.894,,314,562,-552
19:11:30.931,,388,600,-709
19:11:30.968,,388,584,-678
19:11:31.005,,332,545,-623
19:11:31.042,,261,722,-714
19:11:31.079,,137,580,-569
19:11:31.116,,277,697,-905
19:11:31.153,,141,696,-767
19:11:31.190,,174,614,-740
19:11:31.227,,94,646,-687
19:11:31.264,,213,586,-725
19:11:31.301,,258,686,-774
19:11:31.338,,225,647,-742
19:11:31.375,,298,528,-698
19:11:31.412,,269,646,-637
19:11:31.449,,269,475,-673
19:11:31.486,,279,601,-605
19:11:31.523,,366,496,-755
19:11:31.560,,227,676,-667
19:11:31.597,,318,550,-818
19:11:31.634,,133,557,-659
19:11:31.671,,188,645,-846
19:11:31.708,,240,563,-788
19:11:31.745,,252,686,-812
19:11:31.782,,255,539,-704
19:11:31.819,,271,723,-720
19:11:31.856,,307,749,-597
19:11:31.893,,360,608,-570
19:11:31.930,,370,624,-639
19:11:31.967,,409,573,-543
19:11:32.004,,402,570,-475
19:11:32.041,,378,645,-596
19:11:32.078,,351,618,-559
19:11:32.115,,276,619,-560
19:11:32.152,,292,747,-728
19:11:32.189,,193,739,-608
19:11:32.225,,191,791,-617
19:11:32.262,,317,693,-650
19:11:32.299,,259,725,-517
19:11:32.336,,332,641,-711
19:11:32.373,,273,721,-541
19:11:32.410,,435,824,-629
19:11:32.447,,318,692,-652
19:11:32.484,,327,622,-534
19:11:32.521,,278,715,-588
19:11:32.558,,308,564,-567
19:11:32.595,,260,629,-563
19:11:32.632,,279,619,-653
19:11:32.669,,341,748,-706
19:11:32.706,,312,636,-619
19:11:32.743,,391,748,-761
19:11:32.780,,296,703,-636
19:11:32.817,,276,655,-600
19:11:32.854,,335,773,-583
19:11:32.891,,351,736,-611
19:11:32.928,,271,806,-434
19:11:32.965,,394,721,-517
19:11:33.002,,436,701,-418
19:11:33.039,,435,657,-445
19:11:33.076,,410,575,-446
19:11:33.113,,404,696,-471
19:11:33.150,,466,615,-589
19:11:33.187,,322,666,-394
19:11:33.224,,355,753,-558
19:11:33.261,,307,689,-465
19:11:33.298,,396,823,-595
19:11:33.335,,347,700,-579
19:11:33.372,,370,759,-599
19:11:33.409,,312,736,-627
19:11:33.446,,240,743,-574
19:11:33.483,,273,795,-623
19:11:33.520,,271,782,-609
19:11:33.557,,315,788,-648
19:11:33.594,,308,749,-589
19:11:33.631,,294,644,-514
19:11:33.668,,292,582,-512
19:11:33.705,,344,595,-505
19:11:33.742,,375,684,-558
19:11:33.779,,418,716,-679
19:11:33.816,,337,671,-639
19:11:33.853,,303,715,-597
19:11:33.890,,318,687,-670
19:11:33.927,,294,740,-554
19:11:33.964,,327,878,-658
19:11:34.000,,270,633,-535
19:11:34.037,,310,844,-469
19:11:34.074,,442,789,-512
19:11:34.111,,415,751,-518
19:11:34.148,,395,726,-411
19:11:34.185,,412,659,-445
19:11:34.222,,357,633,-370
19:11:34.259,,400,602,-429
19:11:34.296,,462,696,-446
19:11:34.333,,423,681,-540
19:11:34.370,,378,818,-526
19:11:34.407,,289,768,-481
19:11:34.444,,292,787,-514
19:11:34.481,,243,809,-557
19:11:34.518,,216,876,-540
19:11:34.555,,161,744,-472
19:11:34.592,,198,787,-504
19:11:34.629,,252,883,-498
19:11:34.666,,267,932,-576
19:11:34.703,,222,787,-497
19:11:34.740,,207,764,-522
19:11:34.777,,234,677,-519
19:11:34.814,,277,590,-517
19:11:34.851,,337,772,-531
19:11:34.888,,310,618,-476
19:11:34.925,,347,758,-527
19:11:34.962,,368,748,-523
19:11:34.999,,371,684,-566
19:11:35.036,,387,833,-536
19:11:35.073,,428,824,-532
19:11:35.110,,369,622,-472
19:11:35.147,,333,884,-521
19:11:35.184,,308,810,-416
19:11:35.221,,386,935,-373
19:11:35.258,,421,692,-393
19:11:35.295,,467,653,-345
19:11:35.331,,469,581,-335
19:11:35.368,,495,625,-365
19:11:35.405,,518,700,-494
19:11:35.442,,396,728,-514
19:11:35.479,,321,820,-463
19:11:35.516,,318,878,-493
19:11:35.553,,318,876,-527
19:11:35.590,,273,817,-461
19:11:35.627,,232,825,-477
19:11:35.664,,312,867,-559
19:11:35.701,,200,849,-450
19:11:35.738,,334,872,-505
19:11:35.775,,352,850,-489
19:11:35.812,,305,720,-459
19:11:35.849,,390,771,-469
19:11:35.886,,414,516,-428
19:11:35.923,,386,566,-342
19:11:35.960,,479,670,-461
19:11:35.997,,388,644,-398
19:11:36.034,,438,813,-462
19:11:36.071,,383,712,-458
19:11:36.108,,412,782,-531
19:11:36.145,,392,761,-533
19:11:36.182,,356,822,-436
19:11:36.219,,446,791,-569
19:11:36.256,,420,729,-512
19:11:36.293,,438,876,-415
19:11:36.330,,462,719,-495
19:11:36.367,,587,695,-546
19:11:36.404,,495,618,-483
19:11:36.441,,503,729,-431
19:11:36.478,,417,596,-371
19:11:36.515,,357,721,-263
19:11:36.551,,1143,790,-1150
19:11:36.588,,-592,848,203
19:11:36.625,,453,582,-410
19:11:36.662,,391,843,-564
19:11:36.699,,261,878,-510
19:11:36.736,,180,907,-439
19:11:36.773,,178,768,-244
19:11:36.810,,414,956,-417
19:11:36.847,,230,937,-489
19:11:36.884,,195,634,-361
19:11:36.921,,310,784,-375
19:11:36.958,,371,938,-422
19:11:36.995,,312,635,-414
19:11:37.032,,346,658,-397
19:11:37.069,,356,709,-437
19:11:37.106,,319,670,-417
19:11:37.143,,364,779,-405
19:11:37.180,,355,969,-636
19:11:37.217,,292,435,-497
19:11:37.254,,442,950,-884
19:11:37.291,,153,937,-266
19:11:37.328,,359,674,-478
19:11:37.365,,249,984,-362
19:11:37.402,,380,832,-488
19:11:37.439,,379,404,-478
19:11:37.476,,379,1246,-436
19:11:37.513,,525,572,-705
19:11:37.550,,507,725,-416
19:11:37.587,,502,620,-437
19:11:37.623,,400,551,-302
19:11:37.660,,319,743,-154
19:11:37.697,,325,654,-188
19:11:37.734,,260,925,-255
19:11:37.771,,217,761,-335
19:11:37.808,,426,784,-749
19:11:37.845,,197,1014,-541
19:11:37.882,,221,893,-461
19:11:37.919,,265,821,-506
19:11:37.956,,214,780,-454
19:11:37.993,,247,771,-362
19:11:38.030,,388,828,-494
19:11:38.067,,234,795,-335
19:11:38.104,,317,1138,-241
19:11:38.141,,546,162,-670
19:11:38.178,,368,735,-272
19:11:38.215,,625,929,-779
19:11:38.252,,211,433,-423
19:11:38.289,,436,765,-380
19:11:38.326,,421,587,-623
19:11:38.363,,316,900,-513
19:11:38.400,,415,744,-674
19:11:38.437,,271,866,-434
19:11:38.474,,385,800,-591
19:11:38.511,,242,855,-462
19:11:38.548,,278,882,-444
19:11:38.585,,335,874,-430
19:11:38.622,,331,757,-379
19:11:38.659,,407,756,-384
19:11:38.696,,408,821,-350
19:11:38.733,,572,645,-418
19:11:38.770,,549,728,-417
19:11:38.807,,462,731,-301
19:11:38.843,,480,458,-419
19:11:38.880,,441,906,-410
19:11:38.917,,529,584,-537
19:11:38.954,,332,783,-221
19:11:38.991,,518,755,-573
19:11:39.028,,287,895,-482
19:11:39.065,,209,868,-377
19:11:39.102,,289,1001,-546
19:11:39.139,,185,811,-395
19:11:39.176,,303,847,-462
19:11:39.213,,252,843,-384
19:11:39.250,,288,762,-400
19:11:39.287,,271,815,-345
19:11:39.324,,364,838,-410
19:11:39.361,,430,770,-457
19:11:39.398,,392,711,-429
19:11:39.435,,376,712,-433
19:11:39.472,,336,746,-436
19:11:39.509,,358,778,-557
19:11:39.546,,282,766,-505
19:11:39.583,,277,820,-507
19:11:39.620,,318,864,-515
19:11:39.657,,243,857,-456
19:11:39.694,,240,935,-350
19:11:39.731,,359,748,-412
19:11:39.768,,301,888,-241
19:11:39.805,,510,776,-319
19:11:39.842,,344,708,-220
19:11:39.878,,600,843,-328
19:11:39.915,,466,748,-317
19:11:39.952,,522,649,-280
19:11:39.989,,423,606,-250
19:11:40.026,,398,751,-226
19:11:40.063,,540,777,-537
19:11:40.100,,347,802,-260
19:11:40.137,,461,842,-461
19:11:40.174,,303,904,-364
19:11:40.211,,271,853,-421
19:11:40.248,,227,965,-400
19:11:40.285,,159,955,-426
19:11:40.322,,173,995,-460
19:11:40.359,,203,903,-426
19:11:40.396,,254,831,-299
19:11:40.433,,258,921,-362
19:11:40.470,,338,899,-353
19:11:40.507,,306,841,-309
19:11:40.544,,320,637,-271
19:11:40.581,,362,706,-280
19:11:40.618,,361,732,-401
19:11:40.655,,382,813,-364
19:11:40.692,,370,749,-387
19:11:40.729,,307,756,-353
19:11:40.766,,268,820,-353
19:11:40.803,,382,897,-452
19:11:40.840,,342,880,-485
19:11:40.876,,381,867,-593
19:11:40.913,,384,902,-543
19:11:40.950,,444,997,-637
19:11:40.987,,628,1349,-659
19:11:41.024,,625,941,-529
19:11:41.061,,447,820,-425
19:11:41.098,,248,860,-374
19:11:41.135,,82,790,-354
19:11:41.172,,59,850,-292
19:11:41.209,,-44,685,-293
19:11:41.246,,-106,579,-359
19:11:41.283,,-129,620,-407
19:11:41.320,,-141,709,-541
19:11:41.357,,-207,702,-733
19:11:41.394,,-260,722,-766
19:11:41.431,,-354,771,-845
19:11:41.468,,-381,820,-778
19:11:41.505,,-401,699,-645
19:11:41.542,,-349,695,-610
19:11:41.579,,-335,652,-515
19:11:41.616,,-326,579,-392
19:11:41.653,,-306,552,-337
19:11:41.690,,-340,595,-328
19:11:41.727,,-366,616,-317
19:11:41.764,,-389,612,-311
19:11:41.800,,-405,698,-303
19:11:41.837,,-404,856,-323
19:11:41.874,,-429,879,-427
19:11:41.911,,-471,1011,-493
19:11:41.948,,-518,1049,-515
19:11:41.985,,-442,1057,-436
19:11:42.022,,-396,1011,-364
19:11:42.059,,-351,976,-333
19:11:42.096,,-216,958,-303
19:11:42.133,,-190,770,-176
19:11:42.170,,-236,625,-138
19:11:42.207,,-315,558,-135
19:11:42.244,,-363,571,-142
19:11:42.281,,-420,571,-132
19:11:42.318,,-489,660,-144
19:11:42.355,,-561,724,-139
19:11:42.392,,-617,806,-179
19:11:42.429,,-627,921,-325
19:11:42.466,,-643,979,-422
19:11:42.502,,-702,999,-476
19:11:42.539,,-659,981,-578
19:11:42.576,,-631,862,-521
19:11:42.613,,-569,861,-502
19:11:42.650,,-483,762,-508
19:11:42.687,,-432,623,-357
19:11:42.724,,-400,539,-240
19:11:42.761,,-405,532,-222
19:11:42.798,,-458,554,-242
19:11:42.835,,-518,550,-232
19:11:42.872,,-532,621,-258
19:11:42.909,,-553,722,-303
19:11:42.946,,-592,851,-367
19:11:42.983,,-610,1017,-461
19:11:43.020,,-627,1022,-442
19:11:43.057,,-576,1034,-383
19:11:43.094,,-512,1055,-385
19:11:43.131,,-462,1107,-335
19:11:43.167,,-341,952,-203
19:11:43.204,,-245,797,-144
19:11:43.241,,-237,708,-104
19:11:43.278,,-282,602,-76
19:11:43.315,,-311,512,-63
19:11:43.352,,-347,522,-25
19:11:43.389,,-401,611,-14
19:11:43.426,,-459,732,17
19:11:43.463,,-559,793,29
19:11:43.500,,-575,968,-130
19:11:43.537,,-617,1062,-264
19:11:43.574,,-769,1050,-350
19:11:43.611,,-719,1302,-647
19:11:43.648,,-724,1142,-705
19:11:43.685,,-745,814,-678
19:11:43.722,,-606,690,-675
19:11:43.758,,-503,542,-438
19:11:43.795,,-467,394,-208
19:11:43.832,,-440,322,-66
19:11:43.869,,-451,189,-26
19:11:43.906,,-500,196,-50
19:11:43.943,,-565,303,-165
19:11:43.980,,-510,775,-597
19:11:44.017,,-522,1504,-900
19:11:44.054,,-564,1252,-866
19:11:44.091,,-664,743,-672
19:11:44.128,,-674,970,-347
19:11:44.165,,-542,1099,-13
19:11:44.202,,-432,1004,249
19:11:44.239,,-279,851,266
19:11:44.276,,-128,785,133
19:11:44.312,,-91,915,-120
19:11:44.349,,-184,1008,-375
19:11:44.386,,-302,706,-305
19:11:44.423,,-395,586,-240
19:11:44.460,,-518,578,-151
19:11:44.497,,-627,662,-74
19:11:44.534,,-677,561,-53
19:11:44.571,,-822,353,-94
19:11:44.608,,-892,444,-255
19:11:44.645,,-920,619,-520
19:11:44.682,,-954,632,-605
19:11:44.719,,-753,1047,-758
19:11:44.756,,-658,1352,-830
19:11:44.793,,-534,1093,-687
19:11:44.829,,-524,753,-364
19:11:44.866,,-455,777,-117
19:11:44.903,,-377,574,-26
19:11:44.940,,-304,292,-36
19:11:44.977,,-264,213,-62
19:11:45.014,,-222,438,-121
19:11:45.051,,-225,903,-280
19:11:45.088,,-226,1082,-322
19:11:45.125,,-46,1292,-161
19:11:45.162,,107,1401,93
19:11:45.199,,29,1545,119
19:11:45.236,,-118,1557,55
19:11:45.273,,-99,1454,94
19:11:45.309,,12,1169,191
19:11:45.346,,76,853,168
19:11:45.383,,71,661,84
19:11:45.420,,-2,547,10
19:11:45.457,,-51,533,-94
19:11:45.494,,-115,611,-159
19:11:45.531,,-202,677,-182
19:11:45.568,,-325,770,-231
19:11:45.605,,-405,909,-275
19:11:45.642,,-411,1044,-261
19:11:45.679,,-328,1273,-396
19:11:45.716,,-263,1516,-564
19:11:45.753,,-261,1456,-455
19:11:45.789,,-197,1342,-351
19:11:45.826,,-161,1184,-313
19:11:45.863,,-122,1007,-223
19:11:45.900,,-91,836,-156
19:11:45.937,,-86,693,-140
19:11:45.974,,-99,614,-163
19:11:46.011,,-146,565,-218
19:11:46.048,,-192,576,-290
19:11:46.085,,-213,575,-327
19:11:46.122,,-220,532,-350
19:11:46.159,,-137,616,-387
19:11:46.196,,70,772,-487
19:11:46.233,,247,902,-441
19:11:46.269,,312,1015,-347
19:11:46.306,,373,1332,-314
19:11:46.343,,280,1292,-125
19:11:46.380,,289,1033,-52
19:11:46.417,,320,1183,71
19:11:46.454,,283,1356,-7
19:11:46.491,,153,803,37
19:11:46.528,,164,706,76
19:11:46.565,,218,739,84
19:11:46.602,,334,1244,50
19:11:46.639,,155,604,-352
19:11:46.676,,185,1063,-41
19:11:46.713,,55,914,-79
19:11:46.750,,-14,1172,-67
19:11:46.787,,17,1235,-109
19:11:46.824,,2,1157,-39
19:11:46.861,,72,1059,-60
19:11:46.897,,149,974,-36
19:11:46.934,,178,920,-8
19:11:46.971,,199,668,23
19:11:47.008,,300,805,140
19:11:47.045,,202,829,21
19:11:47.082,,219,928,-7
19:11:47.119,,206,953,70
19:11:47.156,,154,951,-46
19:11:47.193,,101,1023,-31
19:11:47.230,,166,976,-44
19:11:47.267,,106,1093,-32
19:11:47.304,,154,1014,52
19:11:47.341,,129,1086,58
19:11:47.378,,122,1036,141
19:11:47.415,,175,1067,238
19:11:47.452,,327,773,230
19:11:47.488,,353,781,190
19:11:47.525,,278,757,160
19:11:47.562,,228,739,156
19:11:47.599,,258,1019,173
19:11:47.636,,233,800,75
19:11:47.673,,281,893,133
19:11:47.710,,204,849,160
19:11:47.747,,86,1015,188
19:11:47.784,,58,997,238
19:11:47.821,,40,1066,206
19:11:47.858,,110,1097,87
19:11:47.895,,52,979,-53
19:11:47.932,,16,1026,58
19:11:47.969,,-10,1253,300
19:11:48.006,,78,868,221
19:11:48.043,,192,1020,230
19:11:48.079,,208,880,127
19:11:48.116,,280,728,184
19:11:48.153,,293,737,148
19:11:48.190,,295,750,69
19:11:48.227,,192,877,34
19:11:48.264,,152,1024,-19
19:11:48.301,,17,1017,55
19:11:48.338,,70,1060,61
19:11:48.375,,12,1169,84
19:11:48.412,,-56,1033,162
19:11:48.449,,20,1134,261
19:11:48.486,,118,1034,263
19:11:48.523,,193,860,240
19:11:48.560,,345,924,181
19:11:48.597,,404,852,149
19:11:48.634,,394,810,98
19:11:48.671,,276,530,56
19:11:48.707,,268,830,113
19:11:48.744,,417,1131,137
19:11:48.781,,270,743,104
19:11:48.818,,122,893,13
19:11:48.855,,77,1115,156
19:11:48.892,,8,1102,312
19:11:48.929,,93,1082,177
19:11:48.966,,68,1050,50
19:11:49.003,,42,1257,14
19:11:49.040,,-49,861,10
19:11:49.077,,-44,940,215
19:11:49.114,,25,990,251
19:11:49.151,,268,1110,207
19:11:49.188,,322,892,163
19:11:49.225,,195,712,14
19:11:49.262,,237,843,93
19:11:49.299,,230,888,127
19:11:49.335,,130,877,74
19:11:49.372,,88,896,74
19:11:49.409,,91,961,127
19:11:49.446,,75,824,114
19:11:49.483,,157,1226,191
19:11:49.520,,329,1187,86
19:11:49.557,,251,846,34
19:11:49.594,,213,1063,162
19:11:49.631,,186,1001,334
19:11:49.668,,293,797,268
19:11:49.705,,427,906,145
19:11:49.742,,444,674,89
19:11:49.779,,331,690,117
19:11:49.816,,297,813,128
19:11:49.853,,297,957,196
19:11:49.890,,315,1067,209
19:11:49.927,,255,799,117
19:11:49.964,,208,1039,-25
19:11:50.000,,68,1195,240
19:11:50.037,,105,961,81
19:11:50.074,,11,1077,-151
19:11:50.111,,-47,943,-67
19:11:50.148,,-36,1197,9
19:11:50.185,,-78,1158,271
19:11:50.222,,120,759,426
19:11:50.259,,198,955,193
19:11:50.296,,174,590,141
19:11:50.333,,243,1099,284
19:11:50.370,,417,539,325
19:11:50.407,,316,1152,150
19:11:50.444,,286,594,2
19:11:50.481,,50,940,185
19:11:50.518,,201,1040,127
19:11:50.555,,37,933,187
19:11:50.592,,140,1169,120
19:11:50.628,,141,1066,52
19:11:50.665,,223,1067,62
19:11:50.702,,191,1016,74
19:11:50.739,,220,894,227
19:11:50.776,,372,1007,265
19:11:50.813,,345,752,154
19:11:50.850,,377,829,78
19:11:50.887,,411,761,36
19:11:50.924,,357,751,38
19:11:50.961,,363,870,97
19:11:50.998,,234,848,127
19:11:51.035,,213,1080,200
19:11:51.072,,205,801,162
19:11:51.109,,124,1046,274
19:11:51.146,,170,1123,162
19:11:51.183,,-23,756,240
19:11:51.220,,136,1347,253
19:11:51.257,,52,805,262
19:11:51.293,,240,1115,237
19:11:51.330,,136,840,68
19:11:51.367,,170,1059,173
19:11:51.404,,262,764,117
19:11:51.441,,276,859,94
19:11:51.478,,319,858,42
19:11:51.515,,303,929,14
19:11:51.552,,77,814,-23
19:11:51.589,,161,1146,87
19:11:51.626,,194,966,55
19:11:51.663,,222,1047,-3
19:11:51.700,,189,1032,85
19:11:51.737,,197,1065,145
19:11:51.774,,256,994,155
19:11:51.811,,285,838,178
19:11:51.848,,396,798,71
19:11:51.885,,442,923,86
19:11:51.922,,406,744,18
19:11:51.958,,371,768,75
19:11:51.995,,461,895,28
19:11:52.032,,384,619,30
19:11:52.069,,340,1065,54
19:11:52.106,,157,954,18
19:11:52.143,,145,1153,200
19:11:52.180,,152,1024,-89
19:11:52.217,,-124,1135,121
19:11:52.254,,43,1109,162
19:11:52.291,,-101,938,269
19:11:52.328,,113,1175,322
19:11:52.365,,28,884,243
19:11:52.402,,132,952,267
19:11:52.439,,151,790,218
19:11:52.476,,164,702,150
19:11:52.513,,288,1009,24
19:11:52.550,,154,683,25
19:11:52.587,,172,1058,74
19:11:52.623,,156,1035,102
19:11:52.660,,60,881,124
19:11:52.697,,290,1231,280
19:11:52.734,,129,732,98
19:11:52.771,,261,1125,42
19:11:52.808,,240,1017,323
19:11:52.845,,328,951,343
19:11:52.882,,347,779,153
19:11:52.919,,373,815,83
19:11:52.956,,257,648,36
19:11:52.993,,379,992,198
19:11:53.030,,318,732,51
19:11:53.067,,256,940,199
19:11:53.104,,187,952,261
19:11:53.141,,165,1121,333
19:11:53.178,,31,874,289
19:11:53.215,,59,976,222
19:11:53.252,,153,1092,162
19:11:53.288,,43,1000,157
19:11:53.325,,159,921,-37
19:11:53.362,,36,1151,246
19:11:53.399,,190,1025,178
19:11:53.436,,139,906,137
19:11:53.473,,248,1001,240
19:11:53.510,,166,672,99
19:11:53.547,,370,953,191
19:11:53.584,,280,721,70
19:11:53.621,,168,861,98
19:11:53.658,,149,975,156
19:11:53.695,,88,948,153
19:11:53.732,,100,1043,134
19:11:53.769,,162,1110,43
19:11:53.806,,137,910,91
19:11:53.843,,194,1113,164
19:11:53.880,,170,1034,262
19:11:53.916,,236,935,276
19:11:53.953,,328,893,161
19:11:53.990,,355,813,75
19:11:54.027,,305,807,158
19:11:54.064,,303,799,143
19:11:54.101,,242,816,183
19:11:54.138,,245,800,191
19:11:54.175,,131,934,235
19:11:54.212,,258,1096,261
19:11:54.249,,128,948,244
19:11:54.286,,78,967,192
19:11:54.323,,89,988,135
19:11:54.360,,-8,942,106
19:11:54.397,,30,1170,214
19:11:54.434,,96,1134,123
19:11:54.471,,142,966,6
19:11:54.508,,85,915,76
19:11:54.544,,178,905,164
19:11:54.581,,161,836,171
19:11:54.618,,259,906,65
19:11:54.655,,206,807,66
19:11:54.692,,105,937,142
19:11:54.729,,119,1039,82
19:11:54.766,,58,1032,95
19:11:54.803,,153,1148,36
19:11:54.840,,66,889,38
19:11:54.877,,213,1113,76
19:11:54.914,,140,1014,132
19:11:54.951,,225,1056,301
19:11:54.988,,264,832,174
19:11:55.025,,293,852,245
19:11:55.062,,323,744,27
19:11:55.099,,277,862,102
19:11:55.135,,464,864,117
19:11:55.172,,311,696,49
19:11:55.209,,300,984,102
19:11:55.246,,190,942,235
19:11:55.283,,185,985,168
19:11:55.320,,185,995,199
19:11:55.357,,153,983,178
19:11:55.394,,276,1078,-3
19:11:55.431,,97,860,-1
19:11:55.468,,22,1175,174
19:11:55.505,,59,1048,276
19:11:55.542,,172,749,169
19:11:55.579,,180,1271,241
19:11:55.616,,269,695,218
19:11:55.653,,214,775,176
19:11:55.690,,367,902,208
19:11:55.726,,224,735,52
19:11:55.763,,184,826,49
19:11:55.800,,162,969,136
19:11:55.837,,51,1069,136
19:11:55.874,,70,1069,133
19:11:55.911,,56,990,84
19:11:55.948,,79,1067,162
19:11:55.985,,111,1025,203
19:11:56.022,,99,1048,254
19:11:56.059,,183,986,327
19:11:56.096,,264,790,179
19:11:56.133,,344,879,149
19:11:56.170,,300,788,190
19:11:56.207,,327,806,162
19:11:56.244,,365,918,176
19:11:56.281,,227,824,150
19:11:56.318,,178,880,154
19:11:56.354,,198,1183,239
19:11:56.391,,8,810,202
19:11:56.428,,83,1047,212
19:11:56.465,,-21,1015,233
19:11:56.502,,80,1030,144
19:11:56.539,,64,989,188
19:11:56.576,,30,1022,201
19:11:56.613,,65,974,239
19:11:56.650,,126,1038,137
19:11:56.687,,114,1021,125
19:11:56.724,,102,808,152
19:11:56.761,,190,982,237
19:11:56.798,,251,810,75
19:11:56.835,,223,787,-37
19:11:56.872,,185,916,45
19:11:56.909,,132,1015,42
19:11:56.946,,130,1034,37
19:11:56.983,,142,1071,70
19:11:57.019,,134,986,75
19:11:57.056,,144,1060,206
19:11:57.093,,122,912,184
19:11:57.130,,139,1127,276
19:11:57.167,,218,873,263
19:11:57.204,,269,832,216
19:11:57.241,,316,851,178
19:11:57.278,,308,802,151
19:11:57.315,,337,874,200
19:11:57.352,,320,824,115
19:11:57.389,,236,791,141
19:11:57.426,,207,999,161
19:11:57.463,,121,971,215
19:11:57.500,,86,945,210
19:11:57.537,,99,1024,188
19:11:57.574,,70,1060,153
19:11:57.610,,67,936,144
19:11:57.647,,26,1051,160
19:11:57.684,,23,1077,230
19:11:57.721,,124,894,158
19:11:57.758,,149,1158,164
19:11:57.795,,214,810,194
19:11:57.832,,126,776,172
19:11:57.869,,256,892,144
19:11:57.906,,209,933,129
19:11:57.943,,136,843,91
19:11:57.980,,105,1016,60
19:11:58.017,,82,996,158
19:11:58.054,,80,1043,136
19:11:58.091,,113,1003,105
19:11:58.128,,77,947,129
19:11:58.165,,120,1159,109
19:11:58.202,,104,1044,235
19:11:58.238,,226,1054,316
19:11:58.275,,296,781,164
19:11:58.312,,321,706,101
19:11:58.349,,339,899,198
19:11:58.386,,361,750,144
19:11:58.423,,290,741,122
19:11:58.460,,279,939,257
19:11:58.497,,234,937,247
19:11:58.534,,119,910,236
19:11:58.571,,144,997,277
19:11:58.608,,63,848,260
19:11:58.645,,91,984,247
19:11:58.682,,150,1198,205
19:11:58.719,,94,787,-3
19:11:58.756,,-20,1150,54
19:11:58.793,,117,1191,259
19:11:58.830,,127,878,170
19:11:58.867,,281,1169,119
19:11:58.903,,118,435,151
19:11:58.940,,-31,727,305
19:11:58.977,,328,1366,322
19:11:59.014,,105,671,180
19:11:59.051,,86,975,100
19:11:59.088,,45,968,237
19:11:59.125,,72,950,156
19:11:59.162,,97,1020,116
19:11:59.199,,159,1082,134
19:11:59.236,,152,879,78
19:11:59.273,,130,1102,133
19:11:59.310,,277,1122,186
19:11:59.347,,286,803,122
19:11:59.384,,294,766,128
19:11:59.421,,255,922,218
19:11:59.458,,489,990,153
19:11:59.495,,263,513,26
19:11:59.532,,396,999,116
19:11:59.568,,189,669,58
19:11:59.605,,168,1105,189
19:11:59.642,,32,1055,296
19:11:59.679,,300,1146,100
19:11:59.716,,199,747,-72
19:11:59.753,,-100,1329,169
19:11:59.790,,104,720,230
19:11:59.827,,-67,1456,402
19:11:59.864,,185,634,229
19:11:59.901,,154,918,336
19:11:59.938,,224,987,197
19:11:59.975,,81,776,331
19:12:00.012,,220,1007,242
19:12:00.049,,189,698,212
19:12:00.086,,115,921,83
19:12:00.123,,100,948,136
19:12:00.160,,49,977,150
19:12:00.196,,72,992,103
19:12:00.233,,38,1039,184
19:12:00.270,,116,1107,189
19:12:00.307,,24,851,119
19:12:00.344,,36,1221,275
19:12:00.381,,136,943,337
19:12:00.418,,166,864,212
19:12:00.455,,294,1004,208
19:12:00.492,,253,666,187
19:12:00.529,,306,854,89
19:12:00.566,,363,745,139
19:12:00.603,,328,828,107
19:12:00.640,,266,877,120
19:12:00.677,,193,904,165
19:12:00.714,,136,1110,228
19:12:00.751,,151,1085,157
19:12:00.788,,100,915,17
19:12:00.825,,11,1147,14
19:12:00.861,,-69,1083,295
19:12:00.898,,1,919,217
19:12:00.935,,109,1050,145
19:12:00.972,,122,813,99
19:12:01.009,,167,982,274
19:12:01.046,,237,745,73
19:12:01.083,,225,840,20
19:12:01.120,,226,903,-39
19:12:01.157,,24,943,70
19:12:01.194,,113,1036,98
19:12:01.231,,115,995,62
19:12:01.268,,120,1074,96
19:12:01.305,,110,1000,72
19:12:01.342,,76,1205,193
19:12:01.379,,223,1374,133
19:12:01.416,,34,549,59
19:12:01.453,,52,823,316
19:12:01.490,,199,1092,269
19:12:01.526,,205,727,268
19:12:01.563,,482,908,112
19:12:01.600,,347,531,29
19:12:01.637,,374,924,79
19:12:01.674,,209,865,115
19:12:01.711,,148,1009,167
19:12:01.748,,65,968,243
19:12:01.785,,53,990,255
19:12:01.822,,0,887,148
19:12:01.859,,-18,1115,158
19:12:01.896,,-42,1079,300
19:12:01.933,,18,989,178
19:12:01.970,,127,1070,120
19:12:02.007,,106,923,138
19:12:02.044,,236,1080,181
19:12:02.081,,326,876,21
19:12:02.118,,214,646,-110
19:12:02.154,,190,1045,86
19:12:02.191,,270,813,-142
19:12:02.228,,103,938,-4
19:12:02.265,,229,1085,39
19:12:02.302,,112,959,34
19:12:02.339,,307,1119,7
19:12:02.376,,58,828,94
19:12:02.413,,256,1152,100
19:12:02.450,,105,912,164
19:12:02.487,,141,1003,274
19:12:02.524,,363,967,150
19:12:02.561,,190,680,59
19:12:02.598,,279,902,87
19:12:02.635,,366,955,127
19:12:02.672,,260,787,99
19:12:02.709,,277,860,116
19:12:02.746,,308,954,90
19:12:02.782,,258,1042,104
19:12:02.819,,83,811,190
19:12:02.856,,45,1138,310
19:12:02.893,,20,698,178
19:12:02.930,,-80,890,257
19:12:02.967,,489,1204,27
19:12:03.004,,-128,306,178
19:12:03.041,,202,1404,-106
19:12:03.078,,89,947,187
19:12:03.115,,114,849,150
19:12:03.152,,175,913,133
19:12:03.189,,343,937,-34
19:12:03.226,,175,777,25
19:12:03.263,,241,852,-38
19:12:03.300,,217,963,13
19:12:03.337,,172,930,-20
19:12:03.374,,100,943,-19
19:12:03.411,,163,1181,30
19:12:03.447,,165,944,-15
19:12:03.484,,151,1023,18
19:12:03.521,,158,1139,214
19:12:03.558,,129,792,365
19:12:03.595,,408,1048,194
19:12:03.632,,356,803,66
19:12:03.669,,362,780,-48
19:12:03.706,,322,635,-85
19:12:03.743,,124,1215,337
19:12:03.780,,475,653,-68
19:12:03.817,,123,1045,235
19:12:03.854,,402,860,-53
19:12:03.891,,-69,816,198
19:12:03.928,,239,1244,141
19:12:03.965,,-82,848,176
19:12:04.002,,54,1301,160
19:12:04.039,,-52,861,197
19:12:04.076,,51,1263,140
19:12:04.112,,100,962,56
19:12:04.149,,86,892,127
19:12:04.186,,156,953,103
19:12:04.223,,161,884,117
19:12:04.260,,271,892,17
19:12:04.297,,188,818,-22
19:12:04.334,,250,997,-59
19:12:04.371,,60,885,35
19:12:04.408,,50,812,77
19:12:04.445,,236,1280,104
19:12:04.482,,67,877,45
19:12:04.519,,150,1088,90
19:12:04.556,,123,893,57
19:12:04.593,,115,1264,256
19:12:04.630,,150,884,214
19:12:04.667,,154,547,199
19:12:04.704,,355,1306,263
19:12:04.741,,423,745,24
19:12:04.778,,264,656,69
19:12:04.814,,375,784,-61
19:12:04.851,,216,971,106
19:12:04.888,,211,892,155
19:12:04.925,,110,902,183
19:12:04.962,,45,1075,218
19:12:04.999,,99,1156,201
19:12:05.036,,-55,880,162
19:12:05.073,,-19,1079,200
19:12:05.110,,-56,1021,310
19:12:05.147,,97,953,154
19:12:05.184,,106,1056,109
19:12:05.221,,227,1019,60
19:12:05.258,,164,857,113
19:12:05.295,,221,902,97
19:12:05.332,,243,729,19
19:12:05.369,,194,846,-22
19:12:05.406,,200,1088,61
19:12:05.443,,259,870,12
19:12:05.479,,120,1055,51
19:12:05.516,,79,1085,102
19:12:05.553,,73,1001,151
19:12:05.590,,85,947,117
19:12:05.627,,86,1030,161
19:12:05.664,,129,1148,318
19:12:05.701,,137,863,294
19:12:05.738,,302,866,166
19:12:05.775,,349,830,119
19:12:05.812,,301,728,107
19:12:05.849,,317,827,106
19:12:05.886,,401,821,86
19:12:05.923,,300,993,99
19:12:05.960,,211,872,122
19:12:05.997,,113,1069,207
19:12:06.034,,20,787,269
19:12:06.071,,-17,1045,281
19:12:06.107,,4,1047,261
19:12:06.144,,15,1057,236
19:12:06.181,,53,1088,268
19:12:06.218,,-38,1001,261
19:12:06.255,,22,755,207
19:12:06.292,,86,913,266
19:12:06.329,,383,1304,211
19:12:06.366,,125,570,169
19:12:06.403,,347,1008,20
19:12:06.440,,302,688,101
19:12:06.477,,240,830,86
19:12:06.514,,174,940,174
19:12:06.551,,200,937,110
19:12:06.588,,166,1035,71
19:12:06.625,,121,988,65
19:12:06.662,,120,1012,59
19:12:06.699,,69,1105,111
19:12:06.736,,-10,1048,168
19:12:06.773,,10,1025,267
19:12:06.809,,127,1053,307
19:12:06.846,,249,883,165
19:12:06.883,,266,770,95
19:12:06.920,,283,928,175
19:12:06.957,,291,810,226
19:12:06.994,,276,871,238
19:12:07.031,,230,748,130
19:12:07.068,,232,1047,218
19:12:07.105,,142,788,154
19:12:07.142,,63,1135,373
19:12:07.179,,105,753,214
19:12:07.216,,66,1211,231
19:12:07.253,,145,890,63
19:12:07.290,,38,977,96
19:12:07.327,,67,1256,197
19:12:07.364,,156,740,122
19:12:07.401,,66,1026,137
19:12:07.438,,175,986,157
19:12:07.474,,152,774,219
19:12:07.511,,255,979,165
19:12:07.548,,279,815,23
19:12:07.585,,152,793,-12
19:12:07.622,,150,1072,18
19:12:07.659,,182,942,75
19:12:07.696,,162,1006,114
19:12:07.733,,232,1159,62
19:12:07.770,,240,779,99
19:12:07.807,,194,1024,131
19:12:07.844,,229,1112,233
19:12:07.881,,405,862,185
19:12:07.918,,288,803,34
19:12:07.955,,365,910,-85
19:12:07.992,,332,836,46
19:12:08.029,,337,853,-36
19:12:08.066,,325,808,21
19:12:08.103,,257,991,87
19:12:08.139,,265,1059,41
19:12:08.176,,157,919,55
19:12:08.213,,66,1052,176
19:12:08.250,,89,1143,180
19:12:08.287,,-60,904,211
19:12:08.324,,-9,1267,118
19:12:08.361,,32,1011,132
19:12:08.398,,13,983,62
19:12:08.435,,56,1075,93
19:12:08.472,,149,850,135
19:12:08.509,,180,791,26
19:12:08.546,,343,785,-37
19:12:08.583,,339,825,-100
19:12:08.620,,228,779,-169
19:12:08.657,,113,1022,-142
19:12:08.694,,189,789,2
19:12:08.731,,206,1199,45
19:12:08.767,,176,974,-8
19:12:08.804,,156,979,26
19:12:08.841,,88,1082,31
19:12:08.878,,176,1136,216
19:12:08.915,,289,814,184
19:12:08.952,,320,881,93
19:12:08.989,,361,818,-63
19:12:09.026,,292,700,49
19:12:09.063,,492,970,-42
19:12:09.100,,233,745,-4
19:12:09.137,,252,978,0
19:12:09.174,,149,905,100
19:12:09.211,,77,1241,223
19:12:09.248,,-17,1001,292
19:12:09.285,,94,1157,176
19:12:09.322,,-45,899,211
19:12:09.358,,-3,942,59
19:12:09.395,,77,1281,182
19:12:09.432,,169,791,138
19:12:09.469,,139,993,252
19:12:09.506,,255,855,113
19:12:09.543,,270,828,124
19:12:09.580,,388,952,68
19:12:09.617,,389,495,-79
19:12:09.654,,299,891,-84
19:12:09.691,,303,770,-126
19:12:09.728,,211,998,-71
19:12:09.765,,263,1029,-25
19:12:09.802,,197,1010,-11
19:12:09.839,,175,1069,-23
19:12:09.876,,119,1016,71
19:12:09.913,,133,1133,107
19:12:09.950,,234,1013,241
19:12:09.986,,288,927,284
19:12:10.023,,333,791,171
19:12:10.060,,365,826,119
19:12:10.097,,284,785,66
19:12:10.134,,451,987,-20
19:12:10.171,,254,693,-52
19:12:10.208,,311,933,-82
19:12:10.245,,318,923,-22
19:12:10.282,,159,971,20
19:12:10.319,,170,865,182
19:12:10.356,,100,1079,66
19:12:10.393,,223,1197,-196
19:12:10.430,,39,623,-264
19:12:10.467,,165,1656,97
19:12:10.504,,203,703,54
19:12:10.541,,124,911,41
19:12:10.577,,296,1092,-91
19:12:10.614,,230,711,29
19:12:10.651,,265,1031,80
19:12:10.688,,223,890,71
19:12:10.725,,111,941,200
19:12:10.762,,189,1055,-45
19:12:10.799,,144,989,86
19:12:10.836,,143,1039,1
19:12:10.873,,10,972,23
19:12:10.910,,153,1037,20
19:12:10.947,,114,959,-80
19:12:10.984,,94,1090,37
19:12:11.021,,177,928,131
19:12:11.058,,201,857,73
19:12:11.095,,281,1000,161
19:12:11.132,,182,599,-6
19:12:11.168,,445,1142,4
19:12:11.205,,285,603,-57
19:12:11.242,,309,919,-28
19:12:11.279,,353,897,68
19:12:11.316,,262,836,93
19:12:11.353,,207,944,102
19:12:11.390,,159,1032,161
19:12:11.427,,115,953,-6
19:12:11.464,,20,1141,32
19:12:11.501,,-44,995,108
19:12:11.538,,70,1248,60
19:12:11.575,,34,930,30
19:12:11.612,,143,1063,147
19:12:11.649,,198,910,141
19:12:11.686,,196,608,6
19:12:11.723,,296,1016,-120
19:12:11.760,,274,818,-146
19:12:11.796,,184,879,-87
19:12:11.833,,221,1123,-77
19:12:11.870,,164,949,-103
19:12:11.907,,211,1013,0
19:12:11.944,,252,1060,45
19:12:11.981,,235,913,125
19:12:12.018,,282,994,207
19:12:12.055,,409,841,73
19:12:12.092,,323,667,59
19:12:12.129,,427,1065,-56
19:12:12.166,,418,553,-40
19:12:12.203,,423,941,-93
19:12:12.240,,379,870,-28
19:12:12.277,,275,881,-6
19:12:12.314,,208,1001,-62
19:12:12.351,,202,1053,-1
19:12:12.388,,90,919,63
19:12:12.425,,0,1123,-68
19:12:12.461,,-92,1203,-82
19:12:12.498,,-92,982,-42
19:12:12.535,,23,1309,-15
19:12:12.572,,123,969,-15
19:12:12.609,,202,758,189
19:12:12.646,,289,833,79
19:12:12.683,,228,653,28
19:12:12.720,,354,1027,-129
19:12:12.757,,259,581,-101
19:12:12.794,,225,1119,-97
19:12:12.831,,173,828,-73
19:12:12.868,,67,981,5
19:12:12.905,,199,1172,-13
19:12:12.942,,103,913,26
19:12:12.979,,138,1154,33
19:12:13.016,,98,951,128
19:12:13.053,,144,1003,234
19:12:13.089,,289,982,259
19:12:13.126,,365,740,134
19:12:13.163,,329,805,28
19:12:13.200,,452,873,1
19:12:13.237,,349,562,-57
19:12:13.274,,451,980,-129
19:12:13.311,,302,826,25
19:12:13.348,,264,960,-29
19:12:13.385,,196,1081,104
19:12:13.422,,196,967,115
19:12:13.459,,213,1067,-95
19:12:13.496,,105,1056,72
19:12:13.533,,63,944,208
19:12:13.570,,134,1106,137
19:12:13.607,,196,999,189
19:12:13.644,,333,963,29
19:12:13.681,,199,824,4
19:12:13.718,,285,949,-48
19:12:13.755,,336,691,-39
19:12:13.791,,300,847,-71
19:12:13.828,,320,821,-108
19:12:13.865,,220,825,-118
19:12:13.902,,343,1092,-153
19:12:13.939,,298,935,-176
19:12:13.976,,260,1049,-245
19:12:14.013,,368,947,-272
19:12:14.050,,208,819,-249
19:12:14.087,,196,1167,-218
19:12:14.124,,228,1020,-30
19:12:14.161,,266,914,34
19:12:14.198,,347,817,-28
19:12:14.235,,344,703,-123
19:12:14.272,,383,932,-38
19:12:14.309,,488,711,-162
19:12:14.346,,343,768,-148
19:12:14.383,,400,892,-164
19:12:14.420,,232,891,-83
19:12:14.457,,163,1032,-36
19:12:14.493,,144,997,-73
19:12:14.530,,98,1109,-137
19:12:14.567,,56,1237,-110
19:12:14.604,,63,911,-84
19:12:14.641,,31,1097,-65
19:12:14.678,,169,1075,-55
19:12:14.715,,183,923,38
19:12:14.752,,198,889,-66
19:12:14.789,,197,783,-79
19:12:14.826,,238,858,-193
19:12:14.863,,295,867,-265
19:12:14.900,,202,861,-261
19:12:14.937,,123,857,-236
19:12:14.974,,190,1076,-215
19:12:15.011,,171,986,-162
19:12:15.048,,137,1026,-116
19:12:15.085,,155,923,-58
19:12:15.121,,158,1149,-38
19:12:15.158,,205,907,122
19:12:15.195,,288,939,159
19:12:15.232,,392,960,7
19:12:15.269,,366,750,-32
19:12:15.306,,388,673,-55
19:12:15.343,,385,726,-21
19:12:15.380,,413,744,-37
19:12:15.417,,440,896,-91
19:12:15.454,,287,847,-95
19:12:15.491,,122,995,-15
19:12:15.528,,104,1258,-22
19:12:15.565,,44,951,-59
19:12:15.602,,67,1240,-7
19:12:15.639,,-20,919,-37
19:12:15.676,,4,1028,3
19:12:15.713,,95,1256,-138
19:12:15.749,,193,810,-105
19:12:15.786,,209,1087,-101
19:12:15.823,,228,757,-11
19:12:15.860,,313,687,57
19:12:15.897,,296,880,-51
19:12:15.934,,317,817,-62
19:12:15.971,,244,810,-59
19:12:16.008,,236,1053,-65
19:12:16.045,,228,937,-67
19:12:16.082,,241,971,-75
19:12:16.119,,241,904,-68
19:12:16.156,,283,1129,-52
19:12:16.193,,269,879,-3
19:12:16.230,,336,1039,44
19:12:16.267,,412,884,0
19:12:16.304,,378,838,-82
19:12:16.341,,333,783,-15
19:12:16.378,,323,818,-66
19:12:16.414,,399,943,-76
19:12:16.451,,303,845,-84
19:12:16.488,,249,893,-43
19:12:16.525,,138,973,36
19:12:16.562,,209,1232,-1
19:12:16.599,,102,901,-18
19:12:16.636,,64,1062,-26
19:12:16.673,,20,1072,219
19:12:16.710,,105,1055,-25
19:12:16.747,,78,843,-41
19:12:16.784,,60,647,50
19:12:16.821,,170,1185,224
19:12:16.858,,678,525,-166
19:12:16.895,,70,434,-93
19:12:16.932,,803,1326,-290
19:12:16.969,,304,737,-300
19:12:17.006,,45,781,42
19:12:17.043,,203,1306,-124
19:12:17.079,,47,789,-187
19:12:17.116,,248,1435,-235
19:12:17.153,,178,690,-243
19:12:17.190,,140,1163,-162
19:12:17.227,,177,1169,-21
19:12:17.264,,248,767,-37
19:12:17.301,,300,713,-56
19:12:17.338,,335,772,69
19:12:17.375,,344,701,60
19:12:17.412,,448,773,-131
19:12:17.449,,466,743,-222
19:12:17.486,,418,763,-154
19:12:17.523,,277,1441,58
19:12:17.560,,44,649,-222
19:12:17.597,,68,1298,87
19:12:17.634,,87,1025,-382
19:12:17.670,,101,1192,15
19:12:17.707,,64,974,-247
19:12:17.744,,86,1053,-79
19:12:17.781,,204,983,-93
19:12:17.818,,121,1037,-15
19:12:17.855,,189,763,-66
19:12:17.892,,148,843,-117
19:12:17.929,,421,802,-103
19:12:17.966,,421,876,-357
19:12:18.003,,335,812,-312
19:12:18.040,,280,772,-106
19:12:18.077,,453,1072,-80
19:12:18.114,,376,859,-103
19:12:18.151,,332,720,-279
19:12:18.188,,436,1284,-56
19:12:18.225,,262,941,-130
19:12:18.262,,360,1022,56
19:12:18.299,,316,991,-15
19:12:18.335,,250,406,-23
19:12:18.372,,456,1118,-86
19:12:18.409,,215,457,-34
19:12:18.446,,322,783,-88
19:12:18.483,,462,1047,90
19:12:18.520,,167,563,-95
19:12:18.557,,497,1792,137
19:12:18.594,,183,206,-118
19:12:18.631,,113,1361,-91
19:12:18.668,,111,1134,-41
19:12:18.705,,40,1024,-88
19:12:18.742,,105,1115,-46
19:12:18.779,,129,831,22
19:12:18.816,,234,1025,-2
19:12:18.853,,233,1025,8
19:12:18.890,,195,512,-112
19:12:18.927,,262,905,20
19:12:18.964,,401,1059,-64
19:12:19.000,,379,579,-282
19:12:19.037,,402,991,-99
19:12:19.074,,405,1146,-225
19:12:19.111,,278,839,-174
19:12:19.148,,237,929,-157
19:12:19.185,,273,1528,44
19:12:19.222,,130,429,18
19:12:19.259,,231,1389,201
19:12:19.296,,374,699,92
19:12:19.333,,288,661,88
19:12:19.370,,486,988,0
19:12:19.407,,350,549,41
19:12:19.444,,302,863,96
19:12:19.481,,289,910,-104
19:12:19.518,,384,757,-35
19:12:19.555,,74,873,93
19:12:19.592,,186,1051,-112
19:12:19.629,,78,1424,-106
19:12:19.666,,-6,1134,-110
19:12:19.702,,-166,1118,134
19:12:19.739,,-79,964,169
19:12:19.776,,57,1304,143
19:12:19.813,,191,802,-46
19:12:19.850,,227,719,-53
19:12:19.887,,201,869,34
19:12:19.924,,440,701,-156
19:12:19.961,,332,886,-61
19:12:19.998,,491,523,-344
19:12:20.035,,308,909,-45
19:12:20.072,,426,1005,-194
19:12:20.109,,117,568,70
19:12:20.146,,92,858,-86
19:12:20.183,,721,1325,-520
19:12:20.220,,145,392,126
19:12:20.257,,271,1335,-366
19:12:20.294,,265,1012,102
19:12:20.331,,297,749,235
19:12:20.367,,422,821,-210
19:12:20.404,,331,902,298
19:12:20.441,,393,517,-8
19:12:20.478,,352,778,-226
19:12:20.515,,557,1182,-418
19:12:20.552,,705,866,-797
19:12:20.589,,489,801,8
19:12:20.626,,181,1499,-124
19:12:20.663,,-122,439,269
19:12:20.700,,-248,590,-171
19:12:20.737,,-108,1782,-375
19:12:20.774,,161,424,57
19:12:20.811,,368,986,-666
19:12:20.848,,222,1166,-170
19:12:20.885,,145,835,-361
19:12:20.922,,374,1112,-463
19:12:20.959,,270,629,247
19:12:20.996,,179,589,-754
19:12:21.033,,150,774,-107
19:12:21.070,,106,587,114
19:12:21.107,,165,1453,-818
19:12:21.143,,19,821,620
19:12:21.180,,176,1060,-699
19:12:21.217,,72,724,-240
19:12:21.254,,386,761,-268
19:12:21.291,,372,1883,-548
19:12:21.328,,221,423,-240
19:12:21.365,,518,1147,-192
19:12:21.402,,401,516,-274
19:12:21.439,,245,469,-237
19:12:21.476,,156,443,-199
19:12:21.513,,243,732,-184
19:12:21.550,,224,686,-172
19:12:21.587,,270,1296,110
19:12:21.624,,-7,748,-38
19:12:21.661,,-74,1212,-91
19:12:21.698,,30,882,-265
19:12:21.735,,119,960,-750
19:12:21.772,,143,1786,-428
19:12:21.809,,246,576,-392
19:12:21.846,,96,504,-306
19:12:21.882,,493,1597,-36
19:12:21.919,,278,554,-353
19:12:21.956,,215,723,-388
19:12:21.993,,191,793,-404
19:12:22.030,,272,1050,-413
19:12:22.067,,111,809,-346
19:12:22.104,,0,827,-176
19:12:22.141,,20,727,-471
19:12:22.178,,85,1314,-384
19:12:22.215,,-58,827,-259
19:12:22.252,,75,1055,-307
19:12:22.289,,32,1034,-329
19:12:22.326,,124,1134,-135
19:12:22.363,,300,873,-203
19:12:22.400,,376,908,-134
19:12:22.437,,488,878,-173
19:12:22.474,,202,573,-131
19:12:22.511,,199,691,-98
19:12:22.548,,129,574,-127
19:12:22.585,,150,826,-39
19:12:22.622,,171,1422,262
19:12:22.659,,-48,398,-8
19:12:22.696,,161,1646,-279
19:12:22.732,,10,802,-217
19:12:22.769,,-239,121,202
19:12:22.806,,78,1499,-317
19:12:22.843,,-429,799,-84
19:12:22.880,,123,703,-340
19:12:22.917,,115,714,-86
19:12:22.954,,98,851,-254
19:12:22.991,,106,942,-157
19:12:23.028,,105,725,-66
19:12:23.065,,139,987,-232
19:12:23.102,,131,936,-84
19:12:23.139,,29,917,-164
19:12:23.176,,16,1005,-83
19:12:23.213,,-99,1192,-128
19:12:23.250,,47,784,-139
19:12:23.287,,52,1100,35
19:12:23.324,,41,814,-48
19:12:23.361,,310,1006,-47
19:12:23.398,,418,1204,-89
19:12:23.435,,324,907,-50
19:12:23.472,,341,547,-240
19:12:23.509,,278,717,-104
19:12:23.546,,340,1146,-248
19:12:23.583,,212,668,-54
19:12:23.619,,328,1407,-112
19:12:23.656,,70,583,80
19:12:23.693,,57,1353,144
19:12:23.730,,-139,870,-85
19:12:23.767,,13,1115,220
19:12:23.804,,-52,1093,52
19:12:23.841,,70,830,-24
19:12:23.878,,78,1074,24
19:12:23.915,,78,911,-49
19:12:23.952,,100,870,65
19:12:23.989,,128,851,68
19:12:24.026,,232,733,-98
19:12:24.063,,311,894,-5
19:12:24.100,,253,1010,41
19:12:24.137,,135,825,16
19:12:24.174,,151,1246,-89
19:12:24.211,,158,1093,-15
19:12:24.248,,142,828,-45
19:12:24.285,,23,1194,130
19:12:24.322,,124,805,66
19:12:24.359,,130,1066,261
19:12:24.395,,245,904,116
19:12:24.432,,320,763,52
19:12:24.469,,389,1009,-182
19:12:24.506,,280,846,60
19:12:24.543,,284,1198,-207
19:12:24.580,,344,764,-106
19:12:24.617,,169,683,-27
19:12:24.654,,-80,880,0
19:12:24.691,,-160,609,338
19:12:24.728,,-192,1720,210
19:12:24.765,,123,429,331
19:12:24.802,,78,964,-26
19:12:24.839,,-22,1314,89
19:12:24.876,,35,774,282
19:12:24.913,,172,1111,-109
19:12:24.950,,319,870,0
19:12:24.987,,367,773,0
19:12:25.024,,372,881,-82
19:12:25.061,,374,697,-91
19:12:25.098,,290,810,-111
19:12:25.135,,310,873,-215
19:12:25.172,,263,1018,-1
19:12:25.208,,201,907,-29
19:12:25.245,,124,982,-7
19:12:25.282,,188,1287,-139
19:12:25.319,,126,649,-19
19:12:25.356,,21,1384,-293
19:12:25.393,,99,921,-141
19:12:25.430,,48,967,164
19:12:25.467,,-71,1356,171
19:12:25.504,,403,347,125
19:12:25.541,,180,1109,109
19:12:25.578,,291,528,90
19:12:25.615,,316,1094,30
19:12:25.652,,303,1100,3
19:12:25.689,,80,452,118
19:12:25.726,,-76,1461,317
19:12:25.763,,-68,929,281
19:12:25.800,,68,751,405
19:12:25.837,,-125,1214,273
19:12:25.874,,94,822,324
19:12:25.911,,84,914,162
19:12:25.947,,51,1082,90
19:12:25.984,,224,1070,163
19:12:26.021,,154,770,156
19:12:26.058,,66,544,181
19:12:26.095,,209,1368,222
19:12:26.132,,261,696,81
19:12:26.169,,-12,982,219
19:12:26.206,,128,1312,218
19:12:26.243,,92,686,286
19:12:26.280,,-75,1148,315
19:12:26.317,,28,1082,376
19:12:26.354,,36,238,285
19:12:26.391,,67,1198,423
19:12:26.428,,191,972,541
19:12:26.465,,325,570,494
19:12:26.502,,364,908,355
19:12:26.539,,509,973,267
19:12:26.576,,183,511,106
19:12:26.613,,252,1022,299
19:12:26.650,,226,830,198
19:12:26.687,,136,766,210
19:12:26.723,,95,1403,526
19:12:26.760,,102,679,157
19:12:26.797,,3,1080,607
19:12:26.834,,-168,1020,319
19:12:26.871,,-30,512,471
19:12:26.908,,-71,1430,664
19:12:26.945,,127,819,350
19:12:26.982,,116,537,349
19:12:27.019,,69,1126,343
19:12:27.056,,200,879,253
19:12:27.093,,168,553,304
19:12:27.130,,219,1001,317
19:12:27.167,,259,803,404
19:12:27.204,,247,677,231
19:12:27.241,,255,1037,169
19:12:27.278,,133,1085,301
19:12:27.315,,117,707,50
19:12:27.352,,39,1378,379
19:12:27.389,,142,733,107
19:12:27.425,,114,907,132
19:12:27.462,,106,1310,299
19:12:27.499,,136,939,324
19:12:27.536,,230,543,-28
19:12:27.573,,408,1463,564
19:12:27.610,,326,302,-243
19:12:27.647,,184,935,7
19:12:27.684,,425,1081,15
19:12:27.721,,197,640,13
19:12:27.758,,345,1150,-36
19:12:27.795,,161,862,287
19:12:27.832,,97,963,145
19:12:27.869,,125,703,8
19:12:27.906,,8,1525,504
19:12:27.943,,6,424,-12
19:12:27.980,,-106,1437,443
19:12:28.017,,-50,803,120
19:12:28.054,,158,1129,341
19:12:28.091,,138,820,75
19:12:28.128,,131,788,150
19:12:28.165,,216,958,182
19:12:28.202,,223,939,18
19:12:28.238,,280,948,-11
19:12:28.275,,126,994,41
19:12:28.312,,160,1010,104
19:12:28.349,,142,888,115
19:12:28.386,,128,934,199
19:12:28.423,,170,978,152
19:12:28.460,,127,962,101
19:12:28.497,,170,1016,73
19:12:28.534,,167,1024,122
19:12:28.571,,213,1047,185
19:12:28.608,,283,911,66
19:12:28.645,,247,775,72
19:12:28.682,,237,1025,149
19:12:28.719,,325,877,68
19:12:28.756,,227,819,64
19:12:28.793,,204,1146,137
19:12:28.830,,132,799,209
19:12:28.867,,140,891,147
19:12:28.904,,7,977,385
19:12:28.941,,-90,1167,403
19:12:28.978,,7,850,329
19:12:29.014,,-57,958,423
19:12:29.051,,29,931,265
19:12:29.088,,83,832,231
19:12:29.125,,97,1153,285
19:12:29.162,,189,704,166
19:12:29.199,,245,863,319
19:12:29.236,,239,733,151
19:12:29.273,,215,952,133
19:12:29.310,,220,971,95
19:12:29.347,,153,940,138
19:12:29.384,,87,1032,270
19:12:29.421,,126,874,216
19:12:29.458,,126,1238,268
19:12:29.495,,136,700,102
19:12:29.532,,6,628,126
19:12:29.569,,149,1749,475
19:12:29.606,,189,236,45
19:12:29.643,,306,989,397
19:12:29.680,,410,945,-12
19:12:29.717,,156,718,138
19:12:29.754,,373,1121,-5
19:12:29.791,,291,878,58
19:12:29.827,,291,1007,-38
19:12:29.864,,59,933,182
19:12:29.901,,18,1007,255
19:12:29.938,,-10,862,343
19:12:29.975,,-99,1114,391
19:12:30.012,,-25,742,414
19:12:30.049,,-26,973,439
19:12:30.086,,67,871,297
19:12:30.123,,114,944,274
19:12:30.160,,171,1040,161
19:12:30.197,,143,742,110
19:12:30.234,,187,848,87
19:12:30.271,,205,1077,112
19:12:30.308,,160,812,20
19:12:30.345,,97,1156,87
19:12:30.382,,50,970,108
19:12:30.419,,51,965,193
19:12:30.456,,85,1040,134
19:12:30.493,,85,939,162
19:12:30.530,,150,1025,171
19:12:30.567,,157,917,174
19:12:30.603,,174,971,242
19:12:30.640,,301,924,157
19:12:30.677,,297,813,115
19:12:30.714,,289,926,193
19:12:30.751,,269,751,102
19:12:30.788,,303,969,107
19:12:30.825,,282,958,-2
19:12:30.862,,149,1015,139
19:12:30.899,,61,922,178
19:12:30.936,,1,930,297
19:12:30.973,,-27,1108,217
19:12:31.010,,14,965,137
19:12:31.047,,-14,1156,340
19:12:31.084,,-15,829,152
19:12:31.121,,93,973,314
19:12:31.158,,153,912,257
19:12:31.195,,172,809,171
19:12:31.232,,202,987,184
19:12:31.269,,218,771,67
19:12:31.306,,159,975,84
19:12:31.343,,153,935,38
19:12:31.379,,170,973,106
19:12:31.416,,157,976,114
19:12:31.453,,122,889,167
19:12:31.490,,124,1134,161
19:12:31.527,,194,911,146
19:12:31.564,,-2,947,294
19:12:31.601,,92,1169,266
19:12:31.638,,260,882,299
19:12:31.675,,180,802,157
19:12:31.712,,247,1103,201
19:12:31.749,,226,594,183
19:12:31.786,,232,1069,192
19:12:31.823,,245,817,71
19:12:31.860,,297,779,105
19:12:31.897,,71,1194,240
19:12:31.934,,138,819,155
19:12:31.971,,27,1098,416
19:12:32.008,,17,837,169
19:12:32.045,,88,866,350
19:12:32.082,,12,1151,113
19:12:32.118,,99,866,170
19:12:32.155,,150,1134,27
19:12:32.192,,188,960,20
19:12:32.229,,239,954,34
19:12:32.266,,212,774,79
19:12:32.303,,189,634,0
19:12:32.340,,143,1293,312
19:12:32.377,,166,542,-217
19:12:32.414,,153,1493,161
19:12:32.451,,191,768,-119
19:12:32.488,,25,1067,174
19:12:32.525,,15,1107,-129
19:12:32.562,,74,976,168
19:12:32.599,,-3,1086,156
19:12:32.636,,133,859,165
19:12:32.673,,201,936,294
19:12:32.710,,260,897,216
19:12:32.747,,284,832,161
19:12:32.784,,290,865,167
19:12:32.821,,284,754,58
19:12:32.858,,328,915,100
19:12:32.895,,389,839,36
19:12:32.932,,240,1044,55
19:12:32.968,,151,949,128
19:12:33.005,,2,974,286
19:12:33.042,,10,1051,155
19:12:33.079,,-34,1005,278
19:12:33.116,,-51,1024,262
19:12:33.153,,4,997,290
19:12:33.190,,11,859,180
19:12:33.227,,162,1080,114
19:12:33.264,,163,853,123
19:12:33.301,,204,865,103
19:12:33.338,,201,925,149
19:12:33.375,,182,768,68
19:12:33.412,,214,924,36
19:12:33.449,,262,1025,-30
19:12:33.486,,59,960,111
19:12:33.523,,91,1170,92
19:12:33.560,,193,862,153
19:12:33.597,,111,1046,139
19:12:33.634,,163,934,138
19:12:33.671,,157,988,102
19:12:33.708,,188,1005,178
19:12:33.745,,258,887,161
19:12:33.782,,361,869,18
19:12:33.818,,294,866,16
19:12:33.855,,274,887,13
19:12:33.892,,331,991,-6
19:12:33.929,,202,948,66
19:12:33.966,,89,932,128
19:12:34.003,,20,980,227
19:12:34.040,,8,987,229
19:12:34.077,,-88,1169,273
19:12:34.114,,8,876,207
19:12:34.151,,26,1016,204
19:12:34.188,,110,1073,190
19:12:34.225,,160,887,58
19:12:34.262,,184,1003,73
19:12:34.299,,187,827,119
19:12:34.336,,247,889,158
19:12:34.373,,233,698,-30
19:12:34.410,,202,1059,123
19:12:34.447,,244,870,55
19:12:34.484,,88,1027,145
19:12:34.521,,175,941,140
19:12:34.558,,69,929,80
19:12:34.595,,90,1132,76
19:12:34.631,,59,1022,20
19:12:34.668,,-60,1102,-64
19:12:34.705,,92,1140,129
19:12:34.742,,263,849,136
19:12:34.779,,313,861,229
19:12:34.816,,288,667,155
19:12:34.853,,249,824,160
19:12:34.890,,362,909,174
19:12:34.927,,327,909,58
19:12:34.964,,331,899,20
19:12:35.001,,216,925,100
19:12:35.038,,103,998,219
19:12:35.075,,115,972,180
19:12:35.112,,78,989,242
19:12:35.149,,65,996,230
19:12:35.186,,37,1039,219
19:12:35.223,,79,916,180
19:12:35.260,,111,1032,209
19:12:35.297,,179,947,66
19:12:35.334,,164,876,95
19:12:35.371,,259,888,-2
19:12:35.407,,245,842,-10
19:12:35.444,,268,850,-62
19:12:35.481,,275,983,-23
19:12:35.518,,197,909,3
19:12:35.555,,172,1051,18
19:12:35.592,,188,930,-18
19:12:35.629,,175,1084,-30
19:12:35.666,,176,996,-14
19:12:35.703,,150,961,-20
19:12:35.740,,211,1103,37
19:12:35.777,,271,935,43
19:12:35.814,,257,822,18
19:12:35.851,,329,996,-56
19:12:35.888,,225,856,80
19:12:35.925,,285,862,43
19:12:35.962,,366,919,3
19:12:35.999,,308,929,19
19:12:36.036,,243,903,69
19:12:36.073,,165,892,86
19:12:36.110,,167,1047,125
19:12:36.147,,121,874,130
19:12:36.183,,48,1198,112
19:12:36.220,,0,987,71
19:12:36.257,,38,998,67
19:12:36.294,,-3,1243,80
19:12:36.331,,226,920,97
19:12:36.368,,261,869,-5
19:12:36.405,,233,781,55
19:12:36.442,,197,770,29
19:12:36.479,,179,982,-122
19:12:36.516,,200,944,-19
19:12:36.553,,196,1068,-37
19:12:36.590,,134,972,-5
19:12:36.627,,71,954,79
19:12:36.664,,138,1069,40
19:12:36.701,,163,776,41
19:12:36.738,,175,1093,153
19:12:36.775,,251,882,137
19:12:36.812,,302,910,153
19:12:36.849,,404,927,3
19:12:36.886,,338,765,24
19:12:36.923,,259,892,8
19:12:36.960,,218,919,95
19:12:36.997,,287,972,39
19:12:37.034,,264,1006,4
19:12:37.070,,137,1019,112
19:12:37.107,,74,983,199
19:12:37.144,,-43,967,397
19:12:37.181,,43,1082,290
19:12:37.218,,-34,861,374
19:12:37.255,,48,1030,208
19:12:37.292,,112,903,151
19:12:37.329,,115,876,83
19:12:37.366,,168,999,27
19:12:37.403,,171,982,50
19:12:37.440,,171,835,109
19:12:37.477,,244,848,78
19:12:37.514,,281,842,-72
19:12:37.551,,217,915,-346
19:12:37.588,,224,1116,-118
19:12:37.625,,246,831,-85
19:12:37.662,,286,1000,-118
19:12:37.699,,177,958,-40
19:12:37.736,,143,1052,29
19:12:37.773,,202,966,0
19:12:37.810,,275,937,59
19:12:37.847,,262,936,61
19:12:37.884,,379,882,-5
19:12:37.921,,407,889,-67
19:12:37.957,,331,826,-120
19:12:37.994,,275,869,-71
19:12:38.031,,262,884,-70
19:12:38.068,,335,1044,-78
19:12:38.105,,322,898,-180
19:12:38.142,,196,904,-58
19:12:38.179,,219,1072,-42
19:12:38.216,,194,837,-97
19:12:38.253,,161,1081,-108
19:12:38.290,,113,1058,-95
19:12:38.327,,118,996,-95
19:12:38.364,,56,940,-50
19:12:38.401,,152,914,-79
19:12:38.438,,224,964,-228
19:12:38.475,,217,986,-198
19:12:38.512,,300,891,-133
19:12:38.549,,320,861,-288
19:12:38.586,,342,869,-207
19:12:38.623,,148,768,-101
19:12:38.660,,268,968,-126
19:12:38.697,,272,935,-73
19:12:38.734,,133,917,-196
19:12:38.771,,322,1280,-255
19:12:38.808,,163,727,-76
19:12:38.845,,156,1155,-272
19:12:38.882,,222,887,-168
19:12:38.918,,141,711,134
19:12:38.955,,136,1102,-800
19:12:38.992,,544,956,147
19:12:39.029,,370,808,38
19:12:39.066,,322,703,-446
19:12:39.103,,271,890,252
19:12:39.140,,339,1105,-516
19:12:39.177,,420,848,-40
19:12:39.214,,401,892,-169
19:12:39.251,,193,1014,11
19:12:39.288,,106,710,119
19:12:39.325,,5,944,133
19:12:39.362,,107,1458,55
19:12:39.399,,241,518,109
19:12:39.436,,-17,1190,93
19:12:39.473,,-43,1079,234
19:12:39.510,,100,620,380
19:12:39.547,,-8,1219,317
19:12:39.584,,271,634,167
19:12:39.621,,179,964,312
19:12:39.658,,309,800,-185
19:12:39.695,,222,664,-77
19:12:39.732,,275,1334,123
19:12:39.769,,192,660,13
19:12:39.806,,95,992,151
19:12:39.843,,214,1059,-104
19:12:39.880,,147,991,166
19:12:39.916,,76,1183,218
19:12:39.953,,71,1010,186
19:12:39.990,,170,758,228
19:12:40.027,,229,1065,59
19:12:40.064,,314,953,117
19:12:40.101,,323,1029,120
19:12:40.138,,377,1161,240
19:12:40.175,,218,452,14
19:12:40.212,,298,1003,301
19:12:40.249,,322,899,40
19:12:40.286,,213,915,174
19:12:40.323,,181,1082,162
19:12:40.360,,60,785,273
19:12:40.397,,61,1031,306
19:12:40.434,,67,962,373
19:12:40.471,,56,816,375
19:12:40.508,,70,994,356
19:12:40.545,,89,805,354
19:12:40.582,,154,1052,293
19:12:40.619,,213,903,196
19:12:40.656,,226,881,152
19:12:40.693,,276,913,197
19:12:40.730,,279,776,84
19:12:40.767,,239,896,273
19:12:40.804,,258,893,183
19:12:40.840,,193,1023,202
19:12:40.877,,118,966,170
19:12:40.914,,75,1068,235
19:12:40.951,,139,1210,135
19:12:40.988,,-58,1021,217
19:12:41.025,,33,1002,218
19:12:41.062,,158,1048,326
19:12:41.099,,173,737,339
19:12:41.136,,285,871,247
19:12:41.173,,375,839,286
19:12:41.210,,298,693,212
19:12:41.247,,364,696,351
19:12:41.284,,324,690,338
19:12:41.321,,231,967,314
19:12:41.358,,196,1049,222
19:12:41.395,,93,888,289
19:12:41.432,,43,1026,414
19:12:41.469,,12,941,394
19:12:41.506,,-50,732,433
19:12:41.543,,16,1154,555
19:12:41.580,,11,676,523
19:12:41.617,,69,882,520
19:12:41.653,,166,888,486
19:12:41.690,,207,881,336
19:12:41.727,,158,850,359
19:12:41.764,,278,760,209
19:12:41.801,,206,738,157
19:12:41.838,,173,876,251
19:12:41.875,,126,1033,236
19:12:41.912,,101,946,283
19:12:41.949,,168,1116,287
19:12:41.986,,123,903,161
19:12:42.023,,17,898,148
19:12:42.060,,223,1567,346
19:12:42.097,,93,601,189
19:12:42.134,,48,748,316
19:12:42.171,,314,965,412
19:12:42.208,,441,946,373
19:12:42.245,,575,954,41
19:12:42.282,,58,456,36
19:12:42.319,,370,1270,273
19:12:42.356,,217,771,112
19:12:42.393,,230,961,222
19:12:42.430,,254,952,233
19:12:42.466,,135,912,271
19:12:42.503,,109,947,299
19:12:42.540,,94,1041,412
19:12:42.577,,81,886,335
19:12:42.614,,38,852,397
19:12:42.651,,59,989,471
19:12:42.688,,113,679,344
19:12:42.725,,104,1053,493
19:12:42.762,,214,759,204
19:12:42.799,,277,1100,401
19:12:42.836,,303,626,97
19:12:42.873,,171,750,-19
19:12:42.910,,410,1237,272
19:12:42.947,,90,702,78
19:12:42.984,,48,667,384
19:12:43.021,,185,1223,322
19:12:43.058,,159,1006,210
19:12:43.095,,153,940,-16
19:12:43.132,,31,1165,142
19:12:43.169,,89,1137,154
19:12:43.206,,173,1001,180
19:12:43.243,,237,929,216
19:12:43.280,,292,918,138
19:12:43.317,,275,908,162
19:12:43.354,,297,735,97
19:12:43.391,,228,720,102
19:12:43.428,,207,745,74
19:12:43.464,,260,1092,114
19:12:43.501,,196,1066,43
19:12:43.538,,115,899,37
19:12:43.575,,101,1016,140
19:12:43.612,,-14,1267,231
19:12:43.649,,-6,730,36
19:12:43.686,,-29,1363,360
19:12:43.723,,-55,832,85
19:12:43.760,,-14,1086,183
19:12:43.797,,114,951,171
19:12:43.834,,209,883,143
19:12:43.871,,252,748,79
19:12:43.908,,279,803,106
19:12:43.945,,257,812,13
19:12:43.982,,173,887,-61
19:12:44.019,,131,1093,-89
19:12:44.056,,91,1129,10
19:12:44.093,,137,937,-37
19:12:44.130,,165,1066,96
19:12:44.167,,169,1087,4
19:12:44.204,,109,961,131
19:12:44.241,,84,1049,164
19:12:44.278,,176,915,245
19:12:44.315,,276,771,231
19:12:44.352,,335,930,197
19:12:44.389,,239,709,111
19:12:44.426,,272,889,158
19:12:44.463,,249,906,83
19:12:44.500,,236,887,8
19:12:44.537,,163,1146,57
19:12:44.574,,109,985,130
19:12:44.611,,5,800,268
19:12:44.647,,-61,1342,335
19:12:44.684,,-21,756,315
19:12:44.721,,-120,954,404
19:12:44.758,,-84,1082,347
19:12:44.795,,76,835,302
19:12:44.832,,131,979,170
19:12:44.869,,129,916,179
19:12:44.906,,153,745,163
19:12:44.943,,253,809,150
19:12:44.980,,239,731,152
19:12:45.017,,235,957,127
19:12:45.054,,160,988,44
19:12:45.091,,227,1224,70
19:12:45.128,,137,838,68
19:12:45.165,,107,1230,204
19:12:45.202,,119,765,72
19:12:45.239,,101,1100,247
19:12:45.276,,131,964,175
19:12:45.313,,239,981,210
19:12:45.350,,326,935,115
19:12:45.387,,285,747,30
19:12:45.424,,283,984,226
19:12:45.461,,249,773,72
19:12:45.498,,303,953,247
19:12:45.535,,313,925,38
19:12:45.572,,279,1029,56
19:12:45.609,,54,758,124
19:12:45.646,,4,1122,249
19:12:45.683,,10,932,230
19:12:45.720,,-17,1103,231
19:12:45.757,,-7,998,134
19:12:45.794,,-6,988,169
19:12:45.831,,119,1187,105
19:12:45.868,,87,896,63
19:12:45.904,,153,1101,117
19:12:45.941,,220,982,185
19:12:45.978,,134,693,-40
19:12:46.015,,148,665,62
19:12:46.052,,123,784,203
19:12:46.089,,109,852,271
19:12:46.126,,251,1202,250
19:12:46.163,,162,824,157
19:12:46.200,,161,1099,137
19:12:46.237,,76,970,-201
19:12:46.274,,72,1072,-19
19:12:46.311,,13,1274,170
19:12:46.348,,128,935,23
19:12:46.385,,339,872,96
19:12:46.422,,338,896,85
19:12:46.459,,197,825,82
19:12:46.496,,253,952,175
19:12:46.533,,222,796,76
19:12:46.570,,295,1006,98
19:12:46.607,,155,868,66
19:12:46.644,,92,866,170
19:12:46.681,,33,1066,290
19:12:46.718,,-34,884,315
19:12:46.755,,-35,1092,275
19:12:46.792,,-27,896,317
19:12:46.829,,-78,1015,258
19:12:46.866,,-35,1005,199
19:12:46.903,,36,1028,162
19:12:46.940,,54,1015,99
19:12:46.977,,143,952,-34
19:12:47.014,,183,835,-48
19:12:47.051,,165,757,48
19:12:47.088,,219,972,84
19:12:47.125,,129,757,115
19:12:47.162,,169,1119,142
19:12:47.199,,115,835,139
19:12:47.236,,149,1029,96
19:12:47.273,,136,1116,148
19:12:47.310,,86,805,89
19:12:47.347,,126,1155,105
19:12:47.384,,133,1045,121
19:12:47.421,,227,1006,130
19:12:47.457,,298,803,0
19:12:47.494,,247,925,84
19:12:47.531,,227,934,56
19:12:47.568,,131,844,151
19:12:47.605,,283,1076,94
19:12:47.642,,264,938,36
19:12:47.679,,80,935,198
19:12:47.716,,142,1048,192
19:12:47.753,,72,743,268
19:12:47.790,,-35,1195,348
19:12:47.827,,-34,851,286
19:12:47.864,,35,909,337
19:12:47.901,,-23,983,325
19:12:47.938,,76,904,143
19:12:47.975,,128,1028,88
19:12:48.012,,140,962,111
19:12:48.049,,182,774,74
19:12:48.086,,220,878,89
19:12:48.123,,250,940,6
19:12:48.160,,184,963,33
19:12:48.197,,163,966,-3
19:12:48.234,,108,985,151
19:12:48.271,,167,961,77
19:12:48.308,,171,897,82
19:12:48.345,,47,1246,204
19:12:48.382,,131,869,53
19:12:48.419,,49,974,243
19:12:48.456,,204,1110,218
19:12:48.493,,245,767,196
19:12:48.530,,330,903,148
19:12:48.567,,299,832,101
19:12:48.604,,328,777,65
19:12:48.641,,408,977,-18
19:12:48.678,,209,856,71
19:12:48.715,,185,949,87
19:12:48.752,,137,1017,125
19:12:48.789,,76,782,192
19:12:48.826,,26,1131,239
19:12:48.863,,-66,1010,130
19:12:48.900,,-63,1150,189
19:12:48.937,,-80,995,113
19:12:48.974,,-39,1035,94
19:12:49.011,,157,1359,232
19:12:49.048,,117,620,-63
19:12:49.084,,167,922,184
19:12:49.121,,273,805,113
19:12:49.158,,205,688,164
19:12:49.195,,244,1010,131
19:12:49.232,,43,1016,49
19:12:49.269,,64,1196,202
19:12:49.306,,24,788,177
19:12:49.343,,26,973,251
19:12:49.380,,31,1137,293
19:12:49.417,,149,626,150
19:12:49.454,,105,1215,285
19:12:49.491,,258,899,233
19:12:49.528,,366,899,187
19:12:49.565,,364,770,39
19:12:49.602,,262,808,98
19:12:49.639,,302,848,98
19:12:49.676,,376,879,-2
19:12:49.713,,393,969,-69
19:12:49.750,,31,936,60
19:12:49.787,,96,1136,192
19:12:49.824,,47,893,245
19:12:49.861,,-27,920,244
19:12:49.898,,-81,1202,260
19:12:49.935,,-75,859,154
19:12:49.972,,-72,1117,269
19:12:50.009,,-48,997,90
19:12:50.046,,119,944,43
19:12:50.083,,42,1197,21
19:12:50.120,,101,784,42
19:12:50.157,,148,968,130
19:12:50.194,,184,695,88
19:12:50.231,,271,787,172
19:12:50.268,,139,876,155
19:12:50.305,,69,939,104
19:12:50.342,,53,1081,189
19:12:50.379,,62,914,75
19:12:50.416,,85,1091,173
19:12:50.453,,86,1096,116
19:12:50.490,,110,914,73
19:12:50.527,,119,1116,238
19:12:50.564,,242,993,114
19:12:50.601,,319,802,75
19:12:50.638,,285,1021,256
19:12:50.675,,244,702,86
19:12:50.711,,239,836,213
19:12:50.748,,294,949,48
19:12:50.785,,137,796,96
19:12:50.822,,161,1138,156
19:12:50.859,,75,870,137
19:12:50.896,,-75,1011,187
19:12:50.933,,-118,1182,143
19:12:50.970,,-99,984,187
19:12:51.007,,-114,1015,156
19:12:51.044,,-43,1032,128
19:12:51.081,,32,998,8
19:12:51.118,,71,938,-2
19:12:51.155,,14,1173,97
19:12:51.192,,91,714,39
19:12:51.229,,120,904,191
19:12:51.266,,283,734,173
19:12:51.303,,184,685,62
19:12:51.340,,61,1242,263
19:12:51.377,,47,882,95
19:12:51.414,,0,978,226
19:12:51.451,,-50,1238,233
19:12:51.488,,-23,852,119
19:12:51.525,,69,1241,85
19:12:51.562,,8,881,58
19:12:51.599,,83,792,192
19:12:51.636,,279,1228,217
19:12:51.673,,287,622,161
19:12:51.710,,431,915,181
19:12:51.747,,268,610,8
19:12:51.784,,352,911,294
19:12:51.821,,443,1188,26
19:12:51.858,,161,569,-114
19:12:51.895,,-59,803,153
19:12:51.932,,64,1304,320
19:12:51.969,,32,1135,51
19:12:52.005,,25,1025,-10
19:12:52.042,,-22,913,44
19:12:52.079,,-56,1204,-2
19:12:52.116,,-44,1099,105
19:12:52.153,,3,1003,36
19:12:52.190,,59,921,70
19:12:52.227,,149,889,23
19:12:52.264,,230,735,-24
19:12:52.301,,254,930,81
19:12:52.338,,279,874,-65
19:12:52.375,,167,700,-85
19:12:52.412,,188,1216,83
19:12:52.449,,177,898,-116
19:12:52.486,,135,1073,-2
19:12:52.523,,91,1095,-39
19:12:52.560,,96,827,64
19:12:52.597,,53,1434,264
19:12:52.634,,100,704,167
19:12:52.671,,259,880,337
19:12:52.708,,495,727,-100
19:12:52.745,,262,1133,398
19:12:52.782,,276,698,45
19:12:52.819,,99,701,21
19:12:52.856,,284,1156,139
19:12:52.893,,240,833,182
19:12:52.930,,216,971,31
19:12:52.967,,52,838,165
19:12:53.004,,14,1285,267
19:12:53.041,,-25,977,81
19:12:53.078,,-58,1180,262
19:12:53.115,,-82,877,180
19:12:53.152,,12,1128,113
19:12:53.189,,76,806,8
19:12:53.226,,86,939,126
19:12:53.262,,137,985,80
19:12:53.299,,190,887,-100
19:12:53.336,,181,620,-94
19:12:53.373,,280,1193,-180
19:12:53.410,,250,956,-94
19:12:53.447,,37,1020,-45
19:12:53.484,,24,1073,-34
19:12:53.521,,40,880,-46
19:12:53.558,,58,1164,55
19:12:53.595,,74,840,-47
19:12:53.632,,68,1262,88
19:12:53.669,,85,989,131
19:12:53.706,,225,929,15
19:12:53.743,,256,701,117
19:12:53.780,,245,1090,187
19:12:53.817,,316,724,-110
19:12:53.854,,233,652,206
19:12:53.891,,289,994,-8
19:12:53.928,,156,958,-6
19:12:53.965,,184,895,38
19:12:54.002,,12,913,129
19:12:54.039,,-97,1066,99
19:12:54.076,,-75,971,71
19:12:54.113,,-138,1255,71
19:12:54.150,,-116,737,84
19:12:54.187,,-238,1226,283
19:12:54.224,,-81,871,-31
19:12:54.261,,0,986,105
19:12:54.298,,-5,952,-110
19:12:54.335,,81,1032,19
19:12:54.372,,41,805,6
19:12:54.409,,103,999,-66
19:12:54.446,,144,943,19
19:12:54.483,,32,747,-126
19:12:54.520,,53,871,-263
19:12:54.557,,-184,1387,129
19:12:54.593,,-191,693,-239
19:12:54.630,,1,1380,19
19:12:54.667,,-143,1184,-58
19:12:54.704,,88,527,98
19:12:54.741,,76,1619,190
19:12:54.778,,253,538,67
19:12:54.815,,373,636,102
19:12:54.852,,351,894,19
19:12:54.889,,313,753,110
19:12:54.926,,350,653,69
19:12:54.963,,420,1034,27
19:12:55.000,,274,779,-8
19:12:55.037,,128,997,227
19:12:55.074,,143,1032,98
19:12:55.111,,146,946,146
19:12:55.148,,138,964,-30
19:12:55.185,,112,980,122
19:12:55.222,,206,1226,-52
19:12:55.259,,220,889,-141
19:12:55.296,,279,1064,-340
19:12:55.333,,251,819,-354
19:12:55.370,,261,1104,-230
19:12:55.407,,218,810,-208
19:12:55.444,,176,777,-40
19:12:55.481,,214,720,-17
19:12:55.518,,192,1171,-169
19:12:55.555,,276,763,-227
19:12:55.592,,426,1227,-407
19:12:55.629,,187,818,-396
19:12:55.666,,412,1081,-438
19:12:55.703,,47,1043,-210
19:12:55.740,,-80,501,-238
19:12:55.777,,109,1669,-460
19:12:55.814,,287,449,-65
19:12:55.851,,261,711,-376
19:12:55.888,,221,833,137
19:12:55.925,,297,1132,-282
19:12:55.962,,212,444,-70
19:12:55.999,,293,833,-312
19:12:56.035,,287,664,-153
19:12:56.072,,308,1287,-135
19:12:56.109,,64,737,-158
19:12:56.146,,53,1173,-9
19:12:56.183,,-14,857,-258
19:12:56.220,,-143,1267,66
19:12:56.257,,-1,584,-326
19:12:56.294,,54,1591,6
19:12:56.331,,78,636,-236
19:12:56.368,,189,878,-31
19:12:56.405,,307,1157,-130
19:12:56.442,,239,397,-128
19:12:56.479,,234,971,-275
19:12:56.516,,196,983,-252
19:12:56.553,,198,976,-210
19:12:56.590,,43,877,-305
19:12:56.627,,102,1128,-316
19:12:56.664,,76,1053,-182
19:12:56.701,,47,962,-189
19:12:56.738,,39,1040,60
19:12:56.775,,103,1086,54
19:12:56.812,,279,862,193
19:12:56.849,,370,698,142
19:12:56.886,,359,901,111
19:12:56.923,,299,711,-31
19:12:56.960,,243,694,-52
19:12:56.997,,355,954,-101
19:12:57.034,,298,855,-21
19:12:57.071,,269,1254,7
19:12:57.108,,102,565,-106
19:12:57.145,,39,1291,41
19:12:57.182,,-115,1274,-21
19:12:57.219,,-135,783,-150
19:12:57.256,,25,1261,31
19:12:57.293,,26,1128,-12
19:12:57.330,,150,824,-68
19:12:57.367,,162,1074,38
19:12:57.404,,100,775,103
19:12:57.440,,180,823,148
19:12:57.477,,272,670,135
19:12:57.514,,291,927,-31
19:12:57.551,,196,845,-88
19:12:57.588,,194,1300,89
19:12:57.625,,112,748,-9
19:12:57.662,,84,1031,66
19:12:57.699,,3,1212,179
19:12:57.736,,149,802,27
19:12:57.773,,0,1150,288
19:12:57.810,,69,1004,218
19:12:57.847,,226,944,241
19:12:57.884,,265,911,287
19:12:57.921,,299,794,62
19:12:57.958,,216,710,194
19:12:57.995,,424,1120,-7
19:12:58.032,,181,565,28
19:12:58.069,,236,1132,126
19:12:58.106,,175,1211,176
19:12:58.143,,176,786,86
19:12:58.180,,-148,461,160
19:12:58.217,,-165,1347,521
19:12:58.254,,-54,1038,278
19:12:58.291,,-114,598,259
19:12:58.328,,201,1245,476
19:12:58.365,,245,687,34
19:12:58.402,,137,961,231
19:12:58.439,,216,921,85
19:12:58.476,,155,801,174
19:12:58.513,,222,779,118
19:12:58.550,,318,1025,124
19:12:58.587,,181,808,-255
19:12:58.624,,96,1380,7
19:12:58.661,,97,974,-44
19:12:58.698,,51,1075,-30
19:12:58.735,,86,1072,-76
19:12:58.772,,7,959,24
19:12:58.809,,84,1090,145
19:12:58.846,,128,1104,259
19:12:58.883,,284,494,-32
19:12:58.920,,330,1292,314
19:12:58.957,,416,578,-3
19:12:58.994,,111,610,102
19:12:59.030,,415,1057,337
19:12:59.067,,219,434,-23
19:12:59.104,,425,1405,372
19:12:59.141,,165,648,-211
19:12:59.178,,60,1108,103
19:12:59.215,,-53,1482,201
19:12:59.252,,-20,833,108
19:12:59.289,,-47,1060,311
19:12:59.326,,13,918,217
19:12:59.363,,74,899,342
19:12:59.400,,130,1038,285
19:12:59.437,,131,842,228
19:12:59.474,,150,847,223
19:12:59.511,,250,816,254
19:12:59.548,,238,771,159
19:12:59.585,,238,929,108
19:12:59.622,,179,997,56
19:12:59.659,,117,1000,36
19:12:59.696,,103,1066,105
19:12:59.733,,134,1063,148
19:12:59.770,,158,988,113
19:12:59.807,,125,1030,223
19:12:59.844,,146,1131,285
19:12:59.881,,156,653,257
19:12:59.918,,271,754,405
19:12:59.955,,476,1131,473
19:12:59.992,,99,473,101
19:13:00.029,,346,1037,456
19:13:00.066,,271,693,75
19:13:00.103,,298,932,214
19:13:00.140,,223,827,111
19:13:00.177,,129,1092,276
19:13:00.214,,57,970,201
19:13:00.251,,19,869,278
19:13:00.288,,-17,1108,349
19:13:00.325,,63,963,328
19:13:00.362,,151,1094,407
19:13:00.399,,182,951,139
19:13:00.436,,100,771,27
19:13:00.473,,195,1358,203
19:13:00.509,,26,621,40
19:13:00.546,,227,1159,524
19:13:00.583,,244,726,87
19:13:00.620,,71,678,131
19:13:00.657,,212,1359,274
19:13:00.694,,12,644,180
19:13:00.731,,76,1212,57
19:13:00.768,,86,1590,-69
19:13:00.805,,-72,1589,-139
19:13:00.842,,-43,1569,-277
19:13:00.879,,-86,1212,-320
19:13:00.916,,-19,983,-414
19:13:00.953,,-11,723,-370
19:13:00.990,,-40,504,-234
19:13:01.027,,-63,617,-152
19:13:01.064,,-127,609,-112
19:13:01.101,,-224,420,-43
19:13:01.138,,-282,615,-56
19:13:01.175,,-371,744,0
19:13:01.212,,-478,776,-7
19:13:01.249,,-461,1009,-92
19:13:01.286,,-551,952,-19
19:13:01.323,,-548,1019,-123
19:13:01.360,,-501,1172,-249
19:13:01.397,,-588,839,-105
19:13:01.434,,-621,854,-225
19:13:01.471,,-532,910,-154
19:13:01.508,,-546,624,94
19:13:01.545,,-458,647,-2
19:13:01.582,,-417,570,-25
19:13:01.619,,-444,522,22
19:13:01.656,,-509,623,51
19:13:01.692,,-570,817,40
19:13:01.729,,-630,874,65
19:13:01.766,,-574,1046,60
19:13:01.803,,-669,1060,120
19:13:01.840,,-655,995,217
19:13:01.877,,-580,898,148
19:13:01.914,,-490,997,118
19:13:01.951,,-398,861,185
19:13:01.988,,-376,769,155
19:13:02.025,,-372,714,116
19:13:02.062,,-378,571,138
19:13:02.099,,-424,527,134
19:13:02.136,,-480,600,63
19:13:02.173,,-596,686,98
19:13:02.210,,-688,807,34
19:13:02.247,,-704,907,-100
19:13:02.284,,-760,1052,-16
19:13:02.321,,-795,980,-50
19:13:02.358,,-717,1102,-175
19:13:02.395,,-682,929,-141
19:13:02.432,,-715,818,-162
19:13:02.469,,-663,747,-208
19:13:02.506,,-624,612,-26
19:13:02.543,,-553,567,-7
19:13:02.580,,-485,508,8
19:13:02.617,,-440,405,43
19:13:02.654,,-521,531,40
19:13:02.691,,-620,753,-45
19:13:02.728,,-579,976,-69
19:13:02.765,,-607,980,-8
19:13:02.801,,-614,999,16
19:13:02.838,,-575,873,-5
19:13:02.875,,-383,757,-162
19:13:02.912,,-181,696,-189
19:13:02.949,,-103,476,-126
19:13:02.986,,-92,311,-119
19:13:03.023,,-232,193,-130
19:13:03.060,,-364,370,-39
19:13:03.097,,-513,657,24
19:13:03.134,,-346,1205,180
19:13:03.171,,-330,1371,278
19:13:03.208,,-127,1580,337
19:13:03.245,,57,1394,324
19:13:03.282,,289,1166,-13
19:13:03.319,,390,1779,-680
19:13:03.356,,126,1176,58
19:13:03.393,,287,1105,87
19:13:03.430,,81,747,44
19:13:03.467,,36,1373,284
19:13:03.504,,134,628,160
19:13:03.541,,45,931,0
19:13:03.578,,4,1058,2
19:13:03.615,,70,1006,-64
19:13:03.652,,120,1019,-132
19:13:03.689,,-7,1140,-34
19:13:03.726,,41,866,-125
19:13:03.763,,-35,1167,-5
19:13:03.800,,75,931,-120
19:13:03.837,,166,986,38
19:13:03.874,,123,976,6
19:13:03.911,,283,890,54
19:13:03.948,,375,932,22
19:13:03.985,,335,796,37
19:13:04.021,,264,767,8
19:13:04.058,,220,904,60
19:13:04.095,,148,742,-26
19:13:04.132,,306,1072,92
19:13:04.169,,262,1021,-13
19:13:04.206,,88,875,93
19:13:04.243,,2,1108,62
19:13:04.280,,8,1029,36
19:13:04.317,,-35,1020,1
19:13:04.354,,-52,1088,6
19:13:04.391,,14,954,-28
19:13:04.428,,80,967,-42
19:13:04.465,,80,1144,-14
19:13:04.502,,127,794,-17
19:13:04.539,,229,849,-31
19:13:04.576,,177,846,-46
19:13:04.613,,191,957,-26
19:13:04.650,,203,1019,-12
19:13:04.687,,122,941,47
19:13:04.724,,94,1016,7
19:13:04.761,,94,917,21
19:13:04.798,,76,1119,-28
19:13:04.835,,48,872,-50
19:13:04.872,,68,1080,40
19:13:04.909,,158,1005,23
19:13:04.946,,265,940,15
19:13:04.983,,362,963,-94
19:13:05.020,,300,768,-39
19:13:05.057,,245,758,-45
19:13:05.094,,293,978,-30
19:13:05.131,,300,852,-151
19:13:05.168,,248,991,-38
19:13:05.205,,201,1089,-77
19:13:05.242,,126,846,-4
19:13:05.279,,81,1097,-8
19:13:05.316,,-13,1018,104
19:13:05.353,,-15,978,17
19:13:05.389,,-83,1060,120
19:13:05.426,,-21,1072,13
19:13:05.463,,45,1084,58
19:13:05.500,,-19,1108,14
19:13:05.537,,145,804,-14
19:13:05.574,,177,907,8
19:13:05.611,,196,921,-87
19:13:05.648,,159,956,68
19:13:05.685,,140,1112,-35
19:13:05.722,,-35,578,294
19:13:05.759,,-113,1054,122
19:13:05.796,,-187,1078,254
19:13:05.833,,-23,469,328
19:13:05.870,,-44,1607,191
19:13:05.907,,27,663,339
19:13:05.944,,150,771,248
19:13:05.981,,246,1147,212
19:13:06.018,,333,635,74
19:13:06.055,,273,1057,84
19:13:06.092,,232,651,104
19:13:06.129,,256,981,57
19:13:06.166,,294,944,20
19:13:06.203,,372,1328,6
19:13:06.240,,42,614,130
19:13:06.277,,177,1507,127
19:13:06.314,,-55,532,180
19:13:06.351,,-156,778,222
19:13:06.388,,-147,1470,268
19:13:06.425,,44,737,105
19:13:06.462,,104,994,-57
19:13:06.499,,2,1096,101
19:13:06.536,,100,857,-141
19:13:06.573,,77,1164,308
19:13:06.610,,81,840,17
19:13:06.647,,149,737,173
19:13:06.684,,142,1100,132
19:13:06.721,,61,901,124
19:13:06.758,,63,1095,211
19:13:06.795,,2,858,159
19:13:06.832,,-83,917,166
19:13:06.868,,-31,970,198
19:13:06.905,,36,972,135
19:13:06.942,,-2,1038,128
19:13:06.979,,209,889,-113
19:13:07.016,,227,1178,287
19:13:07.053,,55,717,-350
19:13:07.090,,240,640,65
19:13:07.127,,276,926,181
19:13:07.164,,111,913,-178
19:13:07.201,,339,1119,64
19:13:07.238,,316,857,-277
19:13:07.275,,177,961,-23
19:13:07.312,,59,931,-211
19:13:07.349,,16,1060,-213
19:13:07.386,,26,1223,-153
19:13:07.423,,-21,1030,-88
19:13:07.460,,-30,1014,-140
19:13:07.497,,-11,1017,-229
19:13:07.534,,-1,918,-118
19:13:07.571,,0,1085,-78
19:13:07.608,,85,891,-43
19:13:07.645,,101,622,-46
19:13:07.682,,218,1231,-253
19:13:07.719,,145,844,25
19:13:07.756,,31,929,-234
19:13:07.793,,-49,1152,-73
19:13:07.830,,-56,854,-117
19:13:07.867,,-55,1111,-11
19:13:07.904,,-15,930,-51
19:13:07.941,,-21,1048,172
19:13:07.978,,97,901,67
19:13:08.015,,193,845,34
19:13:08.052,,335,1071,-54
19:13:08.089,,318,853,16
19:13:08.126,,241,662,-33
19:13:08.163,,281,836,-7
19:13:08.200,,266,777,-51
19:13:08.237,,232,1031,-84
19:13:08.273,,233,972,-10
19:13:08.310,,94,1029,50
19:13:08.347,,67,1187,-11
19:13:08.384,,-16,896,170
19:13:08.421,,-258,1236,223
19:13:08.458,,-91,757,328
19:13:08.495,,-262,667,473
19:13:08.532,,57,1429,293
19:13:08.569,,218,540,175
19:13:08.606,,236,1293,70
19:13:08.643,,219,697,75
19:13:08.680,,209,756,1
19:13:08.717,,163,1136,113
19:13:08.754,,195,863,-51
19:13:08.791,,55,1300,23
19:13:08.828,,117,1040,24
19:13:08.865,,-92,879,166
19:13:08.902,,-143,876,203
19:13:08.939,,-43,1064,274
19:13:08.976,,2,729,200
19:13:09.013,,68,1161,351
19:13:09.050,,231,1084,308
19:13:09.087,,346,788,114
19:13:09.124,,337,803,56
19:13:09.161,,223,690,49
19:13:09.198,,223,793,102
19:13:09.235,,233,1213,93
19:13:09.272,,187,864,54
19:13:09.309,,177,1265,172
19:13:09.346,,-45,567,265
19:13:09.383,,-11,1140,330
19:13:09.420,,-149,1123,374
19:13:09.457,,-77,675,333
19:13:09.494,,-89,1116,395
19:13:09.531,,66,948,235
19:13:09.568,,53,763,216
19:13:09.604,,203,1060,17
19:13:09.641,,203,1072,117
19:13:09.678,,111,733,48
19:13:09.715,,140,955,117
19:13:09.752,,68,917,257
19:13:09.789,,127,852,149
19:13:09.826,,60,1163,256
19:13:09.863,,109,910,-88
19:13:09.900,,-27,1187,294
19:13:09.937,,-30,1005,159
19:13:09.974,,-31,1019,222
19:13:10.011,,-8,883,281
19:13:10.048,,144,1186,365
19:13:10.085,,171,531,151
19:13:10.122,,315,1081,144
19:13:10.159,,246,915,134
19:13:10.196,,153,500,109
19:13:10.233,,170,1407,324
19:13:10.270,,165,623,110
19:13:10.307,,137,1172,201
19:13:10.344,,23,1001,285
19:13:10.381,,-36,649,401
19:13:10.418,,-227,1231,373
19:13:10.455,,-274,783,663
19:13:10.492,,-168,946,500
19:13:10.529,,-137,773,438
19:13:10.566,,-126,970,522
19:13:10.603,,-39,944,359
19:13:10.640,,45,705,452
19:13:10.677,,27,861,275
19:13:10.714,,114,778,356
19:13:10.751,,110,821,333
19:13:10.788,,23,845,289
19:13:10.825,,19,945,196
19:13:10.862,,-141,1104,428
19:13:10.899,,-64,819,217
19:13:10.936,,-26,1165,483
19:13:10.973,,33,843,262
19:13:11.010,,208,940,264
19:13:11.047,,85,1034,560
19:13:11.084,,305,738,246
19:13:11.121,,312,832,407
19:13:11.158,,261,773,183
19:13:11.195,,153,760,199
19:13:11.232,,323,1040,286
19:13:11.269,,174,723,192
19:13:11.305,,203,1032,331
19:13:11.342,,75,908,270
19:13:11.379,,102,1120,437
19:13:11.416,,46,945,374
19:13:11.453,,-73,1019,374
19:13:11.490,,-101,1166,442
19:13:11.527,,-21,899,345
19:13:11.564,,-84,838,399
19:13:11.601,,112,912,229
19:13:11.638,,175,1000,350
19:13:11.675,,251,827,109
19:13:11.712,,226,851,223
19:13:11.749,,270,806,192
19:13:11.786,,280,822,158
19:13:11.823,,276,840,132
19:13:11.860,,243,1050,-23
19:13:11.897,,170,978,40
19:13:11.934,,90,1098,166
19:13:11.971,,146,968,163
19:13:12.008,,68,815,206
19:13:12.045,,42,1126,236
19:13:12.082,,96,1019,226
19:13:12.119,,82,983,377
19:13:12.156,,197,971,237
19:13:12.193,,308,918,126
19:13:12.230,,179,726,219
19:13:12.267,,291,932,163
19:13:12.304,,280,871,231
19:13:12.341,,214,682,20
19:13:12.378,,245,1198,171
19:13:12.415,,107,1006,89
19:13:12.452,,33,849,184
19:13:12.489,,81,1145,219
19:13:12.526,,30,996,397
19:13:12.563,,-78,768,296
19:13:12.600,,57,1139,426
19:13:12.637,,169,822,275
19:13:12.674,,142,917,228
19:13:12.711,,237,950,142
19:13:12.748,,171,821,141
19:13:12.785,,163,894,171
19:13:12.822,,203,817,25
19:13:12.859,,112,1048,278
19:13:12.896,,56,993,20
19:13:12.933,,31,1133,168
19:13:12.970,,50,915,23
19:13:13.006,,-6,1209,272
19:13:13.043,,124,797,192
19:13:13.080,,103,1033,318
19:13:13.117,,97,918,290
19:13:13.154,,205,906,359
19:13:13.191,,366,800,177
19:13:13.228,,389,858,87
19:13:13.265,,281,730,62
19:13:13.302,,236,686,67
19:13:13.339,,341,1015,271
19:13:13.376,,329,789,-152
19:13:13.413,,216,1247,65
19:13:13.450,,113,941,9
19:13:13.487,,129,1116,52
19:13:13.524,,-26,898,118
19:13:13.561,,-78,1355,169
19:13:13.598,,52,839,157
19:13:13.635,,-40,1048,134
19:13:13.672,,93,1139,-27
19:13:13.709,,120,888,165
19:13:13.746,,201,983,-7
19:13:13.783,,151,665,37
19:13:13.820,,230,1057,22
19:13:13.857,,159,762,-124
19:13:13.894,,158,1068,-37
19:13:13.931,,202,995,-59
19:13:13.968,,63,776,14
19:13:14.005,,183,1134,-11
19:13:14.042,,84,897,104
19:13:14.079,,98,1002,4
19:13:14.116,,125,959,132
19:13:14.153,,244,1102,-4
19:13:14.190,,356,937,-5
19:13:14.227,,276,795,-85
19:13:14.264,,321,929,-132
19:13:14.301,,325,875,-5
19:13:14.338,,255,674,-91
19:13:14.375,,297,860,-45
19:13:14.412,,307,1114,-156
19:13:14.449,,238,1019,-11
19:13:14.486,,9,673,11
19:13:14.523,,119,1415,-17
19:13:14.560,,-13,894,2
19:13:14.597,,36,1121,-110
19:13:14.633,,29,1113,-103
19:13:14.670,,86,827,-143
19:13:14.707,,192,1139,-110
19:13:14.744,,190,959,-141
19:13:14.781,,273,788,-111
19:13:14.818,,214,843,-86
19:13:14.855,,214,840,-35
19:13:14.892,,225,738,-32
19:13:14.929,,191,717,-128
19:13:14.966,,202,1142,-335
19:13:15.003,,203,1021,-185
19:13:15.040,,295,1126,-298
19:13:15.077,,80,875,-194
19:13:15.114,,47,1172,-29
19:13:15.151,,22,1044,-136
19:13:15.188,,153,944,71
19:13:15.225,,332,1041,-45
19:13:15.262,,377,871,7
19:13:15.299,,203,518,3
19:13:15.336,,374,1190,-104
19:13:15.373,,234,477,-58
19:13:15.410,,427,1070,-162
19:13:15.447,,269,752,-32
19:13:15.484,,148,1029,-79
19:13:15.521,,67,1104,5
19:13:15.558,,33,964,-29
19:13:15.595,,-58,998,64
19:13:15.632,,24,1161,-1
19:13:15.669,,-54,897,162
19:13:15.706,,118,1082,9
19:13:15.743,,109,909,92
19:13:15.780,,189,922,55
19:13:15.817,,174,748,-94
19:13:15.854,,231,997,-74
19:13:15.891,,194,793,-142
19:13:15.928,,182,1007,-176
19:13:15.965,,175,1032,-101
19:13:16.002,,115,943,-165
19:13:16.039,,115,1219,10
19:13:16.075,,118,860,-126
19:13:16.112,,110,974,80
19:13:16.149,,129,1054,18
19:13:16.186,,209,858,94
19:13:16.223,,340,1101,160
19:13:16.260,,364,641,-6
19:13:16.297,,310,858,48
19:13:16.334,,321,836,-25
19:13:16.371,,262,829,-123
19:13:16.408,,366,1060,-29
19:13:16.445,,301,843,-160
19:13:16.482,,226,928,-72
19:13:16.519,,67,1051,23
19:13:16.556,,-17,1007,39
19:13:16.593,,33,1147,20
19:13:16.630,,-23,982,41
19:13:16.667,,-13,1085,63
19:13:16.704,,111,970,43
19:13:16.741,,104,892,9
19:13:16.778,,161,978,13
19:13:16.815,,201,843,-13
19:13:16.852,,204,998,35
19:13:16.889,,244,850,-123
19:13:16.926,,239,880,-77
19:13:16.963,,105,983,-49
19:13:17.000,,169,1043,-53
19:13:17.037,,125,886,-58
19:13:17.074,,145,1080,-107
19:13:17.111,,85,937,-36
19:13:17.148,,107,1004,-38
19:13:17.185,,134,1041,22
19:13:17.222,,214,928,90
19:13:17.259,,390,914,-14
19:13:17.296,,339,813,-3
19:13:17.333,,365,782,-29
19:13:17.370,,385,875,4
19:13:17.407,,338,684,-91
19:13:17.444,,395,1158,-85
19:13:17.481,,241,875,-25
19:13:17.517,,132,1035,44
19:13:17.554,,6,998,128
19:13:17.591,,-37,1117,170
19:13:17.628,,-54,1119,173
19:13:17.665,,-20,890,136
19:13:17.702,,-14,1008,80
19:13:17.739,,134,1067,74
19:13:17.776,,169,856,12
19:13:17.813,,221,1029,-13
19:13:17.850,,246,900,41
19:13:17.887,,260,938,-26
19:13:17.924,,215,835,9
19:13:17.961,,189,1041,34
19:13:17.998,,98,932,45
19:13:18.035,,109,1000,12
19:13:18.072,,121,1059,63
19:13:18.109,,80,973,65
19:13:18.146,,157,1009,41
19:13:18.183,,124,995,159
19:13:18.220,,199,909,128
19:13:18.257,,310,932,87
19:13:18.294,,381,863,5
19:13:18.331,,364,871,-3
19:13:18.368,,289,762,17
19:13:18.405,,318,827,0
19:13:18.442,,338,981,-40
19:13:18.479,,279,985,-96
19:13:18.516,,143,1057,77
19:13:18.553,,84,1037,70
19:13:18.590,,4,1057,147
19:13:18.627,,-10,1084,142
19:13:18.664,,-25,926,213
19:13:18.701,,61,1009,195
19:13:18.738,,62,899,148
19:13:18.775,,144,990,71
19:13:18.812,,221,1032,83
19:13:18.849,,167,794,25
19:13:18.886,,179,880,137
19:13:18.923,,212,891,30
19:13:18.959,,214,928,-48
19:13:18.996,,206,1053,-30
19:13:19.033,,110,989,-12
19:13:19.070,,89,1058,110
19:13:19.107,,135,952,17
19:13:19.144,,137,1122,181
19:13:19.181,,167,845,68
19:13:19.218,,179,945,190
19:13:19.255,,209,918,250
19:13:19.292,,234,827,179
19:13:19.329,,388,941,169
19:13:19.366,,349,884,86
19:13:19.403,,306,758,120
19:13:19.440,,298,773,-11
19:13:19.477,,368,1005,59
19:13:19.514,,297,943,-32
19:13:19.551,,169,1063,170
19:13:19.588,,135,953,173
19:13:19.625,,66,1017,242
19:13:19.662,,77,888,309
19:13:19.699,,69,1082,347
19:13:19.736,,46,790,282
19:13:19.773,,38,929,267
19:13:19.810,,93,1022,247
19:13:19.847,,214,909,49
19:13:19.884,,158,1026,168
19:13:19.921,,162,839,70
19:13:19.958,,188,862,127
19:13:19.995,,239,913,48
19:13:20.032,,233,946,26
19:13:20.069,,82,1097,100
19:13:20.106,,26,939,102
19:13:20.143,,-11,1185,211
19:13:20.180,,64,943,99
19:13:20.217,,12,1041,212
19:13:20.253,,90,915,115
19:13:20.290,,213,870,238
19:13:20.327,,270,1090,398
19:13:20.364,,318,675,104
19:13:20.401,,333,788,305
19:13:20.438,,347,760,234
19:13:20.475,,352,741,157
19:13:20.512,,368,820,112
19:13:20.549,,395,1052,19
19:13:20.586,,207,920,83
19:13:20.623,,81,1120,203
19:13:20.660,,-12,937,215
19:13:20.697,,-54,1178,216
19:13:20.734,,-46,1018,207
19:13:20.771,,-101,928,251
19:13:20.808,,108,1210,265
19:13:20.845,,107,793,124
19:13:20.882,,127,1037,119
19:13:20.919,,120,873,165
19:13:20.956,,121,738,99
19:13:20.993,,223,1069,207
19:13:21.030,,225,729,-38
19:13:21.067,,33,1046,187
19:13:21.104,,141,1128,57
19:13:21.141,,40,681,-46
19:13:21.178,,17,1499,-103
19:13:21.215,,-12,1094,-69
19:13:21.252,,-8,923,-147
19:13:21.289,,-197,1000,93
19:13:21.326,,126,686,-20
19:13:21.363,,95,974,211
19:13:21.400,,460,1339,-59
19:13:21.437,,431,479,38
19:13:21.474,,310,572,8
19:13:21.511,,326,811,46
19:13:21.548,,409,1074,-104
19:13:21.585,,397,695,-151
19:13:21.622,,372,832,-193
19:13:21.658,,45,1337,-97
19:13:21.695,,125,823,-212
19:13:21.732,,-129,1200,23
19:13:21.769,,-113,1172,-170
19:13:21.806,,-43,1097,-195
19:13:21.843,,-53,904,-24
19:13:21.880,,-257,1043,81
19:13:21.917,,31,1003,-135
19:13:21.954,,68,1055,108
19:13:21.991,,56,882,-118
19:13:22.028,,137,818,-109
19:13:22.065,,236,1035,-134
19:13:22.102,,152,596,-235
19:13:22.139,,107,1151,71
19:13:22.176,,-2,1289,-18
19:13:22.213,,126,451,-77
19:13:22.250,,118,1385,-178
19:13:22.287,,-85,824,225
19:13:22.324,,-7,830,58
19:13:22.361,,66,1267,94
19:13:22.398,,178,636,-87
19:13:22.435,,438,1297,91
19:13:22.472,,200,616,-87
19:13:22.509,,280,605,-52
19:13:22.546,,266,1265,321
19:13:22.583,,226,542,-332
19:13:22.620,,348,587,-72
19:13:22.657,,577,1631,38
19:13:22.694,,86,565,-164
19:13:22.731,,128,1100,-56
19:13:22.768,,-53,1278,104
19:13:22.805,,-106,592,-60
19:13:22.842,,-51,1353,31
19:13:22.879,,190,1425,-5
19:13:22.916,,-268,297,98
19:13:22.953,,54,1410,23
19:13:22.990,,-73,1260,195
19:13:23.027,,197,684,-99
19:13:23.063,,164,722,-6
19:13:23.100,,276,1314,-206
19:13:23.137,,219,1019,17
19:13:23.174,,31,284,-77
19:13:23.211,,107,1415,93
19:13:23.248,,65,679,-75
19:13:23.285,,67,580,196
19:13:23.322,,122,1666,-3
19:13:23.359,,131,474,99
19:13:23.396,,-26,1264,164
19:13:23.433,,87,810,176
19:13:23.470,,236,1010,190
19:13:23.507,,400,947,-154
19:13:23.544,,242,834,81
19:13:23.581,,170,720,19
19:13:23.618,,214,980,136
19:13:23.655,,169,610,-25
19:13:23.692,,356,1432,-335
19:13:23.729,,194,955,154
19:13:23.766,,101,1104,-42
19:13:23.803,,-54,766,123
19:13:23.840,,-160,1525,237
19:13:23.877,,-58,735,-28
19:13:23.914,,61,818,109
19:13:23.951,,-33,1253,94
19:13:23.988,,77,904,-72
19:13:24.025,,216,1053,116
19:13:24.062,,80,905,84
19:13:24.099,,118,682,-8
19:13:24.136,,195,969,188
19:13:24.173,,220,841,-214
19:13:24.210,,167,1107,171
19:13:24.247,,63,958,-102
19:13:24.284,,59,1109,84
19:13:24.321,,19,860,87
19:13:24.358,,45,1256,70
19:13:24.395,,88,802,137
19:13:24.432,,72,874,128
19:13:24.469,,119,1099,291
19:13:24.506,,216,837,198
19:13:24.543,,349,846,170
19:13:24.580,,335,903,83
19:13:24.616,,250,820,142
19:13:24.653,,225,766,99
19:13:24.690,,274,966,189
19:13:24.727,,327,1038,-114
19:13:24.764,,168,979,93
19:13:24.801,,72,1019,180
19:13:24.838,,0,1044,238
19:13:24.875,,-67,989,207
19:13:24.912,,-118,1083,478
19:13:24.949,,-38,914,236
19:13:24.986,,2,863,302
19:13:25.023,,98,954,323
19:13:25.060,,159,902,168
19:13:25.097,,123,934,235
19:13:25.134,,192,830,113
19:13:25.171,,263,743,179
19:13:25.208,,217,925,69
19:13:25.245,,162,1045,131
19:13:25.282,,135,933,-86
19:13:25.319,,74,1147,180
19:13:25.356,,126,994,6
19:13:25.393,,11,1024,189
19:13:25.430,,21,1138,255
19:13:25.467,,90,857,85
19:13:25.504,,137,978,379
19:13:25.541,,297,1204,243
19:13:25.578,,400,1177,184
19:13:25.615,,461,716,192
19:13:25.652,,285,549,83
19:13:25.689,,92,276,198
19:13:25.726,,134,524,281
19:13:25.763,,255,1189,546
19:13:25.800,,332,1037,340
19:13:25.837,,160,771,101
19:13:25.874,,-10,1305,165
19:13:25.911,,-126,978,155
19:13:25.948,,-76,1162,263
19:13:25.985,,-78,911,222
19:13:26.021,,-63,1172,228
19:13:26.058,,62,689,94
19:13:26.095,,52,1243,220
19:13:26.132,,39,1028,69
19:13:26.169,,93,787,163
19:13:26.206,,94,981,196
19:13:26.243,,225,678,120
19:13:26.280,,160,1062,293
19:13:26.317,,264,821,-61
19:13:26.354,,34,982,221
19:13:26.391,,116,899,5
19:13:26.428,,121,1102,176
19:13:26.465,,105,935,22
19:13:26.502,,102,1137,84
19:13:26.539,,49,976,119
19:13:26.576,,144,936,177
19:13:26.613,,205,1128,246
19:13:26.650,,308,739,-10
19:13:26.687,,259,987,199
19:13:26.724,,353,720,30
19:13:26.761,,277,687,47
19:13:26.798,,410,825,6
19:13:26.835,,278,971,73
19:13:26.872,,317,873,-131
19:13:26.909,,131,1113,182
19:13:26.946,,140,1061,190
19:13:26.983,,26,867,-64
19:13:27.020,,130,1229,116
19:13:27.057,,123,982,-15
19:13:27.094,,52,888,-66
19:13:27.131,,221,1087,-83
19:13:27.168,,101,878,-258
19:13:27.205,,146,1065,-292
19:13:27.242,,99,1093,-54
19:13:27.279,,94,755,-110
19:13:27.315,,1,762,253
19:13:27.352,,358,1351,157
19:13:27.389,,-128,767,55
19:13:27.426,,98,1231,136
19:13:27.463,,-77,911,-42
19:13:27.500,,-193,789,24
19:13:27.537,,161,1473,128
19:13:27.574,,29,645,-81
19:13:27.611,,242,1067,-81
19:13:27.648,,221,856,72
19:13:27.685,,394,1048,43
19:13:27.722,,174,648,111
19:13:27.759,,356,888,280
19:13:27.796,,146,676,142
19:13:27.833,,292,970,202
19:13:27.870,,194,987,111
19:13:27.907,,307,1078,98
19:13:27.944,,6,679,103
19:13:27.981,,-149,738,-44
19:13:28.018,,65,1604,-146
19:13:28.055,,-267,846,-165
19:13:28.092,,113,1125,-198
19:13:28.129,,28,1026,157
19:13:28.166,,282,866,-257
19:13:28.203,,211,956,-12
19:13:28.240,,149,1016,-135
19:13:28.277,,51,660,-242
19:13:28.314,,-27,1062,-214
19:13:28.351,,44,1002,-233
19:13:28.388,,28,765,-418
19:13:28.425,,202,1298,-362
19:13:28.462,,20,709,-203
19:13:28.499,,30,1084,-407
19:13:28.536,,21,863,-367
19:13:28.572,,74,1137,-395
19:13:28.609,,38,897,-329
19:13:28.646,,169,805,-244
19:13:28.683,,223,1179,-208
19:13:28.720,,343,484,-313
19:13:28.757,,472,559,-88
19:13:28.794,,316,1188,-84
19:13:28.831,,357,1292,-284
19:13:28.868,,287,504,-271
19:13:28.905,,194,1193,-224
19:13:28.942,,110,878,-326
19:13:28.979,,-45,903,-64
19:13:29.016,,-107,1322,-339
19:13:29.053,,-56,727,-115
19:13:29.090,,-76,1225,-300
19:13:29.127,,-41,1028,-402
19:13:29.164,,132,879,-269
19:13:29.201,,114,1007,-303
19:13:29.238,,113,941,-213
19:13:29.275,,162,642,-211
19:13:29.312,,269,951,-349
19:13:29.349,,326,676,-62
19:13:29.386,,117,711,-358
19:13:29.423,,295,1330,-247
19:13:29.460,,22,491,-204
19:13:29.497,,141,1234,-437
19:13:29.534,,-46,1074,-173
19:13:29.570,,113,803,-438
19:13:29.607,,74,1417,-223
19:13:29.644,,90,613,-282
19:13:29.681,,175,1079,-174
19:13:29.718,,191,973,-132
19:13:29.755,,274,811,-108
19:13:29.792,,273,790,-57
19:13:29.829,,301,847,-90
19:13:29.866,,271,1030,-36
19:13:29.903,,187,701,-147
19:13:29.940,,138,1091,-42
19:13:29.977,,39,933,-28
19:13:30.014,,27,882,-8
19:13:30.051,,-25,1275,-33
19:13:30.088,,23,846,-98
19:13:30.125,,69,909,-8
19:13:30.162,,-50,1098,-163
19:13:30.199,,111,862,-113
19:13:30.236,,98,1024,-182
19:13:30.273,,93,934,-115
19:13:30.310,,128,1049,-94
19:13:30.347,,147,802,-144
19:13:30.384,,181,648,-63
19:13:30.421,,85,1388,-160
19:13:30.458,,122,638,-181
19:13:30.495,,12,995,-160
19:13:30.532,,-108,1259,-186
19:13:30.569,,-12,862,-155
19:13:30.606,,-8,1209,-196
19:13:30.642,,50,715,-120
19:13:30.679,,127,927,-18
19:13:30.716,,235,1450,-220
19:13:30.753,,343,312,-60
19:13:30.790,,202,994,-77
19:13:30.827,,310,979,-66
19:13:30.864,,167,476,22
19:13:30.901,,348,1325,-182
19:13:30.938,,359,686,-216
19:13:30.975,,47,860,-163
19:13:31.012,,38,1282,-91
19:13:31.049,,-9,778,-89
19:13:31.086,,-44,1297,-98
19:13:31.123,,-79,761,-20
19:13:31.160,,-11,1529,-4
19:13:31.197,,26,666,-155
19:13:31.234,,-3,574,108
19:13:31.271,,46,1473,-266
19:13:31.308,,-47,684,101
19:13:31.345,,206,1059,-50
19:13:31.382,,312,596,-156
19:13:31.419,,122,1188,-55
19:13:31.456,,226,875,-203
19:13:31.493,,141,511,-134
19:13:31.530,,-30,1450,-18
19:13:31.567,,130,528,-250
19:13:31.604,,53,1469,159
19:13:31.641,,130,597,-376
19:13:31.678,,152,841,-25
19:13:31.715,,47,1200,-43
19:13:31.752,,278,1035,-82
19:13:31.788,,325,970,-144
19:13:31.825,,470,1161,-197
19:13:31.862,,379,821,-122
19:13:31.899,,92,456,-89
19:13:31.936,,96,553,-23
19:13:31.973,,-26,642,12
19:13:32.010,,-140,1475,164
19:13:32.047,,44,825,-247
19:13:32.084,,-241,1637,-255
19:13:32.121,,-24,566,-157
19:13:32.158,,-27,1364,-62
19:13:32.195,,-82,981,-240
19:13:32.232,,-13,953,22
19:13:32.269,,69,1073,-215
19:13:32.306,,95,910,98
19:13:32.343,,141,738,-7
19:13:32.380,,189,807,-22
19:13:32.417,,155,716,-37
19:13:32.454,,133,927,-214
19:13:32.491,,113,977,-337
19:13:32.528,,76,839,-301
19:13:32.565,,0,1072,-329
19:13:32.602,,71,995,-286
19:13:32.638,,88,980,-264
19:13:32.675,,120,1229,-320
19:13:32.712,,114,703,-121
19:13:32.749,,300,1119,-114
19:13:32.786,,189,961,-152
19:13:32.823,,395,764,-248
19:13:32.860,,231,965,-57
19:13:32.897,,461,775,-248
19:13:32.934,,174,607,-6
19:13:32.971,,408,1162,-371
19:13:33.008,,202,596,-144
19:13:33.045,,64,1040,-320
19:13:33.082,,48,1096,-193
19:13:33.119,,-14,945,-227
19:13:33.156,,12,1339,-280
19:13:33.193,,-71,891,-204
19:13:33.230,,59,782,-230
19:13:33.267,,15,1209,-171
19:13:33.304,,204,982,-246
19:13:33.341,,138,683,-88
19:13:33.378,,221,1083,-309
19:13:33.414,,134,659,-72
19:13:33.451,,182,798,-362
19:13:33.488,,229,1170,-78
19:13:33.525,,215,471,-326
19:13:33.562,,110,1468,-176
19:13:33.599,,83,755,-253
19:13:33.636,,180,796,-194
19:13:33.673,,128,1288,-217
19:13:33.710,,253,724,-95
19:13:33.747,,157,1078,-135
19:13:33.784,,224,901,-147
19:13:33.821,,228,888,-32
19:13:33.858,,313,1094,-239
19:13:33.895,,343,741,-105
19:13:33.932,,327,737,-105
19:13:33.969,,259,865,-182
19:13:34.006,,307,841,-142
19:13:34.043,,232,1048,-241
19:13:34.080,,43,887,-132
19:13:34.117,,-1,985,-113
19:13:34.154,,-23,1232,-231
19:13:34.191,,81,876,-143
19:13:34.228,,2,1169,-230
19:13:34.264,,27,1122,-152
19:13:34.301,,176,753,-164
19:13:34.338,,144,904,-252
19:13:34.375,,194,1045,-194
19:13:34.412,,255,709,-141
19:13:34.449,,135,864,-174
19:13:34.486,,308,970,-149
19:13:34.523,,214,803,-164
19:13:34.560,,112,944,-203
19:13:34.597,,163,1040,-185
19:13:34.634,,70,906,-182
19:13:34.671,,132,1023,-290
19:13:34.708,,139,920,-181
19:13:34.745,,194,1190,-266
19:13:34.782,,114,729,-162
19:13:34.819,,146,1175,45
19:13:34.856,,336,934,-163
19:13:34.893,,157,657,-35
19:13:34.930,,365,1144,-122
19:13:34.967,,219,736,95
19:13:35.004,,209,952,-42
19:13:35.041,,294,813,-64
19:13:35.078,,161,966,-9
19:13:35.114,,113,1126,-7
19:13:35.151,,118,802,80
19:13:35.188,,56,1230,46
19:13:35.225,,174,881,105
19:13:35.262,,119,986,122
19:13:35.299,,10,960,-19
19:13:35.336,,119,986,-81
19:13:35.373,,287,997,-190
19:13:35.410,,249,903,-165
19:13:35.447,,193,932,-51
19:13:35.484,,190,1014,55
19:13:35.521,,267,771,49
19:13:35.558,,170,888,118
19:13:35.595,,219,870,47
19:13:35.632,,68,1195,-41
19:13:35.669,,99,953,-54
19:13:35.706,,93,1141,49
19:13:35.743,,77,1008,0
19:13:35.780,,-12,862,59
19:13:35.817,,-70,1110,-275
19:13:35.854,,92,1215,-44
19:13:35.891,,139,967,113
19:13:35.928,,240,880,114
19:13:35.965,,371,761,176
19:13:36.001,,356,969,89
19:13:36.038,,642,895,-57
19:13:36.075,,447,716,-79
19:13:36.112,,35,592,-29
19:13:36.149,,41,1310,194
19:13:36.186,,13,767,415
19:13:36.223,,18,1074,310
19:13:36.260,,28,949,359
19:13:36.297,,-14,860,290
19:13:36.334,,-19,1051,395
19:13:36.371,,28,899,319
19:13:36.408,,3,853,184
19:13:36.445,,17,1048,278
19:13:36.482,,26,961,237
19:13:36.519,,29,903,282
19:13:36.556,,19,959,220
19:13:36.593,,16,1031,198
19:13:36.630,,62,992,211
19:13:36.667,,52,903,104
19:13:36.704,,31,828,133
19:13:36.741,,22,1081,260
19:13:36.778,,44,933,205
19:13:36.815,,42,929,266
19:13:36.852,,89,1032,214
19:13:36.889,,109,965,204
19:13:36.925,,145,951,144
19:13:36.962,,166,873,180
19:13:36.999,,197,1009,245
19:13:37.036,,247,965,109
19:13:37.073,,292,862,105
19:13:37.110,,287,817,15
19:13:37.147,,356,974,52
19:13:37.184,,420,701,-176
19:13:37.221,,373,902,62
19:13:37.258,,294,891,64
19:13:37.295,,228,906,221
19:13:37.332,,196,1096,170
19:13:37.369,,224,849,33
19:13:37.406,,176,1054,132
19:13:37.443,,228,831,184
19:13:37.480,,332,979,185
19:13:37.517,,354,964,-9
19:13:37.554,,548,944,116
19:13:37.591,,466,961,-88
19:13:37.628,,382,953,-35
19:13:37.665,,240,720,-16
19:13:37.702,,249,648,-5
19:13:37.738,,409,723,-87
19:13:37.775,,531,681,-225
19:13:37.812,,554,862,-273
19:13:37.849,,643,765,-339
19:13:37.886,,612,884,-383
19:13:37.923,,609,876,-99
19:13:37.960,,617,618,-93
19:13:37.997,,803,624,-115
19:13:38.034,,626,576,-353
19:13:38.071,,525,771,-216
19:13:38.108,,296,856,-266
19:13:38.145,,341,1032,-129
19:13:38.182,,456,1074,-259
19:13:38.219,,682,911,-137
19:13:38.256,,686,743,-258
19:13:38.293,,742,649,-148
19:13:38.330,,538,816,-281
19:13:38.367,,603,771,-480
19:13:38.404,,449,895,-367
19:13:38.441,,366,701,-528
19:13:38.477,,357,823,-459
19:13:38.514,,322,805,-424
19:13:38.551,,299,819,-458
19:13:38.588,,297,913,-351
19:13:38.625,,252,805,-451
19:13:38.662,,237,938,-286
19:13:38.699,,209,952,-294
19:13:38.736,,210,915,-238
19:13:38.773,,146,962,-318
19:13:38.810,,153,786,-256
19:13:38.847,,-34,932,-127
19:13:38.884,,76,989,-204
19:13:38.921,,-15,895,-240
19:13:38.958,,168,784,-210
19:13:38.995,,49,813,-273
19:13:39.032,,254,1078,-239
19:13:39.069,,509,1315,-175
19:13:39.106,,362,746,-262
19:13:39.143,,377,1337,28
19:13:39.179,,543,686,-773
19:13:39.216,,192,677,169
19:13:39.253,,581,877,-150
19:13:39.290,,474,656,-19
19:13:39.327,,286,596,-112
19:13:39.364,,544,1013,-285
19:13:39.401,,658,721,-226
19:13:39.438,,134,837,-97
19:13:39.475,,-56,975,-311
19:13:39.512,,442,518,-181
19:13:39.549,,-109,843,-105
19:13:39.586,,36,1244,-230
19:13:39.623,,359,972,-274
19:13:39.660,,250,775,-153
19:13:39.697,,346,687,-138
19:13:39.734,,-7,1072,41
19:13:39.771,,-162,1138,-1
19:13:39.808,,76,847,-335
19:13:39.845,,59,884,-289
19:13:39.882,,-68,1024,-254
19:13:39.919,,266,787,-262
19:13:39.955,,-131,948,-108
19:13:39.992,,198,896,-330
19:13:40.029,,139,922,-156
19:13:40.066,,126,944,-246
19:13:40.103,,121,976,-192
19:13:40.140,,202,942,-188
19:13:40.177,,147,854,-118
19:13:40.214,,189,1042,-161
19:13:40.251,,206,786,-99
19:13:40.288,,83,1085,-98
19:13:40.325,,289,770,-181
19:13:40.362,,186,1075,-189
19:13:40.399,,250,868,-231
19:13:40.436,,171,867,-155
19:13:40.473,,285,1020,-282
19:13:40.510,,227,827,-134
19:13:40.547,,224,931,-180
19:13:40.584,,293,1004,-257
19:13:40.621,,128,823,-91
19:13:40.658,,114,936,-184
19:13:40.695,,279,1056,-267
19:13:40.732,,158,861,-220
19:13:40.769,,279,1081,-213
19:13:40.805,,82,769,-222
19:13:40.842,,437,860,-313
19:13:40.879,,346,1039,-416
19:13:40.916,,276,857,-191
19:13:40.953,,312,909,-303
19:13:40.990,,171,1170,-236
19:13:41.027,,241,834,-79
19:13:41.064,,292,840,-47
19:13:41.101,,218,1069,3
19:13:41.138,,321,936,-150
19:13:41.175,,305,1029,-41
19:13:41.212,,124,898,-60
19:13:41.249,,273,931,-64
19:13:41.286,,473,926,-83
19:13:41.323,,508,907,-146
19:13:41.360,,422,828,-18
19:13:41.397,,134,685,135
19:13:41.434,,253,843,145
19:13:41.471,,713,978,18
19:13:41.508,,605,869,-39
19:13:41.545,,559,648,-225
19:13:41.582,,745,894,-504
19:13:41.619,,9,985,200
19:13:41.655,,412,1057,119
19:13:41.692,,223,632,257
19:13:41.729,,388,940,298
19:13:41.766,,227,677,365
19:13:41.803,,445,955,269
19:13:41.840,,216,857,284
19:13:41.877,,397,984,204
19:13:41.914,,109,814,267
19:13:41.951,,382,1048,162
19:13:41.988,,166,842,196
19:13:42.025,,289,1024,110
19:13:42.062,,144,909,203
19:13:42.099,,330,1122,-9
19:13:42.136,,705,1075,2
19:13:42.173,,578,1028,-139
19:13:42.210,,247,817,-75
19:13:42.247,,7,449,129
19:13:42.284,,-10,797,135
19:13:42.321,,-68,981,250
19:13:42.358,,81,739,302
19:13:42.395,,259,1372,350
19:13:42.432,,465,999,113
19:13:42.469,,226,864,-25
19:13:42.506,,337,780,68
19:13:42.543,,452,1128,118
19:13:42.580,,308,979,64
19:13:42.617,,-180,760,108
19:13:42.653,,195,1190,201
19:13:42.690,,66,974,392
19:13:42.727,,207,700,165
19:13:42.764,,275,1420,333
19:13:42.801,,158,1094,197
19:13:42.838,,256,628,-11
19:13:42.875,,191,864,113
19:13:42.912,,279,779,95
19:13:42.949,,581,1228,126
19:13:42.986,,296,756,66
19:13:43.023,,255,701,33
19:13:43.060,,440,1060,280
19:13:43.097,,196,560,125
19:13:43.134,,90,883,64
19:13:43.171,,234,1077,375
19:13:43.208,,208,1051,348
19:13:43.245,,471,1325,193
19:13:43.282,,237,1013,-6
19:13:43.319,,83,628,-185
19:13:43.356,,-128,1064,252
19:13:43.393,,109,946,258
19:13:43.430,,255,968,323
19:13:43.467,,145,852,209
19:13:43.504,,331,935,191
19:13:43.541,,439,847,55
19:13:43.577,,237,987,309
19:13:43.614,,340,538,0
19:13:43.651,,358,1052,242
19:13:43.688,,223,675,352
19:13:43.725,,236,1011,163
19:13:43.762,,258,1137,284
19:13:43.799,,272,780,-60
19:13:43.836,,-54,954,171
19:13:43.873,,175,1226,137
19:13:43.910,,117,1030,223
19:13:43.947,,261,997,119
19:13:43.984,,44,942,205
19:13:44.021,,102,1056,-8
19:13:44.058,,2,871,199
19:13:44.095,,175,1012,218
19:13:44.132,,254,813,293
19:13:44.169,,381,1014,255
19:13:44.206,,211,872,211
19:13:44.243,,257,420,223
19:13:44.280,,281,1337,338
19:13:44.317,,399,340,78
19:13:44.354,,151,1296,205
19:13:44.391,,143,1035,189
19:13:44.428,,209,757,154
19:13:44.465,,16,1018,298
19:13:44.501,,191,1115,261
19:13:44.538,,142,745,325
19:13:44.575,,169,1291,256
19:13:44.612,,235,522,123
19:13:44.649,,170,1326,213
19:13:44.686,,337,756,-60
19:13:44.723,,156,894,29
19:13:44.760,,200,874,108
19:13:44.797,,316,1105,173
19:13:44.834,,246,734,184
19:13:44.871,,206,1036,164
19:13:44.908,,171,904,94
19:13:44.945,,185,1040,141
19:13:44.982,,172,1118,190
19:13:45.019,,138,852,262
19:13:45.056,,246,984,290
19:13:45.093,,259,731,214
19:13:45.130,,236,1214,351
19:13:45.167,,426,620,247
19:13:45.204,,528,899,37
19:13:45.241,,465,1034,207
19:13:45.278,,316,354,109
19:13:45.315,,329,1027,356
19:13:45.352,,531,819,329
19:13:45.388,,286,677,181
19:13:45.425,,405,933,265
19:13:45.462,,318,762,171
19:13:45.499,,335,902,176
19:13:45.536,,456,1092,189
19:13:45.573,,322,813,43
19:13:45.610,,248,1136,59
19:13:45.647,,206,859,183
19:13:45.684,,193,1081,260
19:13:45.721,,194,891,163
19:13:45.758,,188,1063,65
19:13:45.795,,317,1178,210
19:13:45.832,,131,681,265
19:13:45.869,,359,907,90
19:13:45.906,,394,931,154
19:13:45.943,,310,728,144
19:13:45.980,,342,846,110
19:13:46.017,,380,866,135
19:13:46.054,,249,852,93
19:13:46.091,,154,1164,164
19:13:46.128,,260,828,32
19:13:46.165,,282,726,267
19:13:46.202,,222,1184,41
19:13:46.238,,271,914,168
19:13:46.275,,281,944,58
19:13:46.312,,126,934,110
19:13:46.349,,275,1140,281
19:13:46.386,,277,840,105
19:13:46.423,,371,848,52
19:13:46.460,,275,834,103
19:13:46.497,,298,889,134
19:13:46.534,,332,779,172
19:13:46.571,,353,1039,136
19:13:46.608,,303,759,88
19:13:46.645,,303,1172,30
19:13:46.682,,183,881,150
19:13:46.719,,286,937,84
19:13:46.756,,105,911,124
19:13:46.793,,214,1015,254
19:13:46.830,,252,1019,193
19:13:46.867,,264,790,103
19:13:46.904,,378,1033,79
19:13:46.941,,254,899,167
19:13:46.978,,280,814,44
19:13:47.015,,330,904,69
19:13:47.052,,393,850,39
19:13:47.088,,318,978,8
19:13:47.125,,289,898,44
19:13:47.162,,268,916,26
19:13:47.199,,223,1008,95
19:13:47.236,,211,1008,57
19:13:47.273,,217,1134,3
19:13:47.310,,99,902,72
19:13:47.347,,131,1112,143
19:13:47.384,,239,859,114
19:13:47.421,,219,1092,121
19:13:47.458,,183,801,117
19:13:47.495,,247,1021,327
19:13:47.532,,420,799,130
19:13:47.569,,379,717,87
19:13:47.606,,458,941,120
19:13:47.643,,349,711,181
19:13:47.680,,425,986,246
19:13:47.717,,274,807,153
19:13:47.754,,242,922,80
19:13:47.791,,246,1011,178
19:13:47.828,,122,1010,277
19:13:47.865,,195,846,297
19:13:47.902,,175,1007,319
19:13:47.938,,273,860,210
19:13:47.975,,275,811,182
19:13:48.012,,266,980,203
19:13:48.049,,287,961,62
19:13:48.086,,296,1158,76
19:13:48.123,,249,702,1
19:13:48.160,,324,1023,-21
19:13:48.197,,302,1033,55
19:13:48.234,,266,775,52
19:13:48.271,,318,887,52
19:13:48.308,,311,872,-11
19:13:48.345,,288,1026,31
19:13:48.382,,265,926,27
19:13:48.419,,239,849,10
19:13:48.456,,261,1143,45
19:13:48.493,,245,906,80
19:13:48.530,,308,1004,30
19:13:48.567,,229,988,29
19:13:48.604,,256,855,18
19:13:48.641,,175,963,120
19:13:48.677,,276,1021,276
19:13:48.714,,343,856,204
19:13:48.751,,362,876,194
19:13:48.788,,352,720,14
19:13:48.825,,375,910,2
19:13:48.862,,305,831,21
19:13:48.899,,259,866,70
19:13:48.936,,160,706,62
19:13:48.973,,131,930,189
19:13:49.010,,197,843,283
19:13:49.047,,658,1601,609
19:13:49.084,,327,641,-162
19:13:49.121,,307,1034,-97
19:13:49.158,,271,1017,-56
19:13:49.195,,240,948,183
19:13:49.232,,290,1010,121
19:13:49.269,,269,873,83
19:13:49.306,,229,890,188
19:13:49.343,,164,637,107
19:13:49.380,,390,1096,281
19:13:49.417,,501,850,74
19:13:49.454,,360,934,-202
19:13:49.490,,223,863,-10
19:13:49.527,,169,989,47
19:13:49.564,,191,912,136
19:13:49.601,,276,967,89
19:13:49.638,,281,987,24
19:13:49.675,,220,920,52
19:13:49.712,,230,960,131
19:13:49.749,,238,1022,199
19:13:49.786,,220,795,160
19:13:49.823,,321,1020,61
19:13:49.860,,219,1028,218
19:13:49.897,,245,800,259
19:13:49.934,,329,819,190
19:13:49.971,,384,936,59
19:13:50.008,,354,814,-25
19:13:50.045,,401,852,0
19:13:50.082,,258,844,73
19:13:50.119,,331,935,179
19:13:50.156,,192,946,168
19:13:50.193,,220,1088,182
19:13:50.230,,125,1021,273
19:13:50.267,,219,861,185
19:13:50.304,,284,1110,245
19:13:50.341,,197,820,127
19:13:50.377,,293,995,38
19:13:50.414,,258,934,77
19:13:50.451,,293,889,85
19:13:50.488,,329,1097,146
19:13:50.525,,275,733,138
19:13:50.562,,251,843,197
19:13:50.599,,293,820,25
19:13:50.636,,236,1018,-24
19:13:50.673,,356,926,-59
19:13:50.710,,324,837,-51
19:13:50.747,,266,1036,95
19:13:50.784,,248,957,141
19:13:50.821,,236,1090,77
19:13:50.858,,103,928,118
19:13:50.895,,155,1081,133
19:13:50.932,,173,916,204
19:13:50.969,,238,955,223
19:13:51.006,,213,733,177
19:13:51.043,,309,1204,233
19:13:51.080,,275,696,91
19:13:51.117,,265,1130,167
19:13:51.154,,260,809,125
19:13:51.191,,271,818,135
19:13:51.228,,339,934,160
19:13:51.265,,418,845,145
19:13:51.302,,384,859,46
19:13:51.339,,368,887,128
19:13:51.376,,399,927,159
19:13:51.412,,254,888,180
19:13:51.449,,325,875,171
19:13:51.486,,195,937,213
19:13:51.523,,281,938,175
19:13:51.560,,304,906,223
19:13:51.597,,332,885,148
19:13:51.634,,287,966,186
19:13:51.671,,305,827,61
19:13:51.708,,322,1046,192
19:13:51.745,,231,890,121
19:13:51.782,,269,1070,276
19:13:51.819,,177,831,213
19:13:51.856,,188,786,244
19:13:51.893,,355,1009,238
19:13:51.930,,310,859,40
19:13:51.967,,427,1014,-33
19:13:52.004,,298,907,54
19:13:52.041,,400,915,61
19:13:52.078,,309,891,204
19:13:52.115,,352,784,72
19:13:52.152,,283,944,184
19:13:52.189,,307,916,98
19:13:52.226,,266,911,126
19:13:52.263,,303,956,67
19:13:52.300,,274,952,93
19:13:52.337,,274,980,118
19:13:52.373,,249,860,146
19:13:52.410,,306,990,74
19:13:52.447,,270,915,187
19:13:52.484,,332,976,235
19:13:52.521,,287,793,236
19:13:52.558,,387,911,195
19:13:52.595,,351,806,-2
19:13:52.632,,455,944,-53
19:13:52.669,,373,884,-12
19:13:52.706,,390,900,56
19:13:52.743,,348,881,165
19:13:52.780,,407,846,227
19:13:52.817,,327,758,179
19:13:52.854,,433,948,78
19:13:52.891,,323,1029,-3
19:13:52.928,,359,812,-62
19:13:52.965,,371,1062,184
19:13:53.002,,292,776,186
19:13:53.039,,355,1027,209
19:13:53.076,,278,840,235
19:13:53.113,,360,948,146
19:13:53.150,,256,909,231
19:13:53.187,,308,940,195
19:13:53.224,,294,917,189
19:13:53.261,,329,904,137
19:13:53.297,,293,880,129
19:13:53.334,,300,894,73
19:13:53.371,,294,983,92
19:13:53.408,,313,874,74
19:13:53.445,,285,844,50
19:13:53.482,,347,870,-10
19:13:53.519,,336,964,-11
19:13:53.556,,329,967,-26
19:13:53.593,,325,987,-16
19:13:53.630,,268,955,48
19:13:53.667,,201,802,126
19:13:53.704,,244,1037,151
19:13:53.741,,332,868,181
19:13:53.778,,226,875,175
19:13:53.815,,288,991,147
19:13:53.852,,235,855,148
19:13:53.889,,239,1039,123
19:13:53.926,,262,883,158
19:13:53.963,,228,998,143
19:13:54.000,,217,986,192
19:13:54.037,,205,945,203
19:13:54.074,,230,1031,197
19:13:54.111,,242,853,155
19:13:54.148,,260,992,215
19:13:54.184,,258,778,261
19:13:54.221,,328,892,254
19:13:54.258,,429,762,145
19:13:54.295,,423,962,84
19:13:54.332,,416,787,69
19:13:54.369,,382,937,115
19:13:54.406,,310,891,208
19:13:54.443,,312,895,215
19:13:54.480,,282,858,203
19:13:54.517,,287,1031,243
19:13:54.554,,252,820,149
19:13:54.591,,307,992,180
19:13:54.628,,219,977,204
19:13:54.665,,281,899,171
19:13:54.702,,306,938,243
19:13:54.739,,244,878,155
19:13:54.776,,239,982,198
19:13:54.813,,234,908,263
19:13:54.850,,252,883,259
19:13:54.887,,214,986,300
19:13:54.924,,247,833,209
19:13:54.961,,245,995,261
19:13:54.998,,324,802,155
19:13:55.035,,319,903,112
19:13:55.071,,339,857,86
19:13:55.108,,394,886,96
19:13:55.145,,324,827,182
19:13:55.182,,346,896,242
19:13:55.219,,313,810,219
19:13:55.256,,300,912,171
19:13:55.293,,206,1008,201
19:13:55.330,,200,912,183
19:13:55.367,,216,985,148
19:13:55.404,,204,981,142
19:13:55.441,,186,1061,178
19:13:55.478,,170,877,124
19:13:55.515,,186,1070,89
19:13:55.552,,160,965,128
19:13:55.589,,184,1050,141
19:13:55.626,,252,949,227
19:13:55.663,,387,766,176
19:13:55.700,,376,874,245
19:13:55.737,,424,793,105
19:13:55.774,,382,852,37
19:13:55.811,,435,786,78
19:13:55.848,,408,861,124
19:13:55.885,,343,868,64
19:13:55.922,,336,1012,80
19:13:55.959,,314,932,20
19:13:55.996,,287,985,37
19:13:56.033,,249,1006,57
19:13:56.070,,231,961,161
19:13:56.106,,248,963,175
19:13:56.143,,280,928,121
19:13:56.180,,266,926,197
19:13:56.217,,264,921,187
19:13:56.254,,220,1072,224
19:13:56.291,,378,742,75
19:13:56.328,,326,966,-6
19:13:56.365,,342,898,124
19:13:56.402,,317,902,32
19:13:56.439,,353,845,172
19:13:56.476,,199,1163,194
19:13:56.513,,215,621,253
19:13:56.550,,403,999,129
19:13:56.587,,418,873,61
19:13:56.624,,379,869,-45
19:13:56.661,,342,963,47
19:13:56.698,,318,842,99
19:13:56.735,,326,828,212
19:13:56.772,,309,944,208
19:13:56.809,,286,869,179
19:13:56.846,,291,905,200
19:13:56.883,,335,892,207
19:13:56.920,,458,863,94
19:13:56.957,,391,895,72
19:13:56.994,,363,947,74
19:13:57.031,,460,775,95
19:13:57.068,,441,750,7
19:13:57.104,,440,795,57
19:13:57.141,,467,834,76
19:13:57.178,,369,874,92
19:13:57.215,,446,961,-10
19:13:57.252,,330,959,157
19:13:57.289,,154,906,-4
19:13:57.326,,139,981,215
19:13:57.363,,149,1047,219
19:13:57.400,,11,1019,102
19:13:57.437,,80,1198,219
19:13:57.474,,132,1085,36
19:13:57.511,,216,905,21
19:13:57.548,,285,1078,-83
19:13:57.585,,281,826,-162
19:13:57.622,,199,758,-58
19:13:57.659,,440,1066,-276
19:13:57.696,,434,814,-60
19:13:57.733,,152,894,8
19:13:57.770,,230,1123,-129
19:13:57.807,,142,591,-39
19:13:57.844,,186,1157,-334
19:13:57.880,,167,1129,-84
19:13:57.917,,188,906,-72
19:13:57.954,,138,977,-180
19:13:57.991,,741,1306,-900
19:13:58.028,,317,517,31
19:13:58.065,,163,556,-467
19:13:58.102,,326,1231,-346
19:13:58.139,,198,408,31
19:13:58.176,,219,918,-368
19:13:58.213,,489,819,-211
19:13:58.250,,318,724,-66
19:13:58.287,,241,1316,-227
19:13:58.324,,139,519,-35
19:13:58.361,,132,1490,10
19:13:58.398,,-79,623,-278
19:13:58.435,,67,1002,131
19:13:58.472,,118,1511,-328
19:13:58.509,,47,176,-305
19:13:58.546,,301,1683,460
19:13:58.582,,387,197,-255
19:13:58.619,,-75,461,-100
19:13:58.656,,475,731,209
19:13:58.693,,551,758,-387
19:13:58.730,,87,1148,-40
19:13:58.767,,520,1007,-335
19:13:58.804,,236,903,-76
19:13:58.841,,419,921,-214
19:13:58.878,,409,891,-148
19:13:58.915,,440,899,-180
19:13:58.952,,590,958,-224
19:13:58.989,,549,947,-185
19:13:59.026,,652,805,-44
19:13:59.063,,107,714,-3
19:13:59.100,,310,695,-202
19:13:59.137,,434,864,-218
19:13:59.173,,516,809,-87
19:13:59.210,,498,903,-157
19:13:59.247,,380,909,-173
19:13:59.284,,85,1006,16
19:13:59.321,,86,1119,-177
19:13:59.358,,-38,1224,-152
19:13:59.395,,124,1060,-410
19:13:59.432,,286,1183,-249
19:13:59.469,,222,635,-334
19:13:59.506,,330,772,-170
19:13:59.543,,408,658,-71
19:13:59.580,,424,501,-233
19:13:59.617,,409,817,-278
19:13:59.654,,592,650,-319
19:13:59.691,,423,891,-112
19:13:59.728,,373,838,-310
19:13:59.765,,332,940,-212
19:13:59.801,,412,1047,-326
19:13:59.838,,429,916,-67
19:13:59.875,,540,917,-131
19:13:59.912,,637,674,-282
19:13:59.949,,453,884,-205
19:13:59.986,,417,664,-327
19:14:00.023,,288,806,-220
19:14:00.060,,389,831,-358
19:14:00.097,,468,778,-183
19:14:00.134,,605,986,-263
19:14:00.171,,344,816,-215
19:14:00.208,,222,1103,-258
19:14:00.245,,166,1072,-168
19:14:00.282,,72,868,-114
19:14:00.319,,379,1182,-574
19:14:00.355,,445,740,-363
19:14:00.392,,385,769,-349
19:14:00.429,,292,789,-284
19:14:00.466,,415,615,-314
19:14:00.503,,372,612,-254
19:14:00.540,,508,728,-258
19:14:00.577,,546,705,-270
19:14:00.614,,510,820,-316
19:14:00.651,,377,736,-173
19:14:00.688,,388,877,-443
19:14:00.725,,383,996,-348
19:14:00.762,,301,808,-316
19:14:00.799,,360,1082,-450
19:14:00.836,,478,874,-215
19:14:00.873,,424,813,-248
19:14:00.910,,534,707,-383
19:14:00.947,,320,633,-130
19:14:00.984,,407,653,-361
19:14:01.020,,780,900,-310
19:14:01.057,,536,662,-282
19:14:01.094,,360,935,-323
19:14:01.131,,182,901,-160
19:14:01.168,,30,916,-146
19:14:01.205,,74,1376,-282
19:14:01.242,,19,750,-179
19:14:01.279,,192,1204,-496
19:14:01.316,,87,1191,-247
19:14:01.353,,209,790,-295
19:14:01.390,,151,831,-188
19:14:01.427,,372,628,-53
19:14:01.464,,212,617,-40
19:14:01.501,,447,810,-168
19:14:01.538,,489,695,-126
19:14:01.575,,413,841,-388
19:14:01.612,,421,1014,-207
19:14:01.648,,353,769,-298
19:14:01.685,,303,1084,-196
19:14:01.722,,351,693,-158
19:14:01.759,,403,990,-162
19:14:01.796,,461,843,-134
19:14:01.833,,660,669,-406
19:14:01.870,,445,632,-254
19:14:01.907,,446,690,-285
19:14:01.944,,398,811,-241
19:14:01.981,,600,835,-242
19:14:02.018,,668,866,-281
19:14:02.055,,444,941,-122
19:14:02.092,,255,1038,-302
19:14:02.129,,183,1024,-300
19:14:02.166,,32,979,-283
19:14:02.203,,158,1063,-380
19:14:02.240,,180,852,-538
19:14:02.276,,246,821,-512
19:14:02.313,,296,912,-452
19:14:02.350,,325,615,-337
19:14:02.387,,375,657,-381
19:14:02.424,,368,490,-300
19:14:02.461,,383,601,-109
19:14:02.498,,538,729,-822
19:14:02.535,,566,746,-124
19:14:02.572,,431,852,-591
19:14:02.609,,419,897,-590
19:14:02.646,,358,935,-240
19:14:02.683,,289,885,-730
19:14:02.720,,318,837,-293
19:14:02.757,,428,947,-296
19:14:02.794,,524,663,-289
19:14:02.831,,596,649,-400
19:14:02.868,,471,559,-297
19:14:02.905,,448,570,-213
19:14:02.942,,472,702,-363
19:14:02.979,,475,758,-314
19:14:03.015,,600,825,-316
19:14:03.052,,454,898,-282
19:14:03.089,,347,919,-211
19:14:03.126,,292,892,-385
19:14:03.163,,145,1349,-203
19:14:03.200,,189,795,-381
19:14:03.237,,222,992,-353
19:14:03.274,,187,860,-700
19:14:03.311,,316,796,-237
19:14:03.348,,310,911,-418
19:14:03.385,,361,527,-250
19:14:03.422,,429,696,-182
19:14:03.459,,429,520,-312
19:14:03.496,,536,786,-277
19:14:03.533,,578,791,-365
19:14:03.570,,444,797,-284
19:14:03.607,,390,820,-369
19:14:03.644,,441,1005,-396
19:14:03.681,,361,792,-423
19:14:03.718,,374,923,-422
19:14:03.755,,386,871,-387
19:14:03.792,,462,853,-294
19:14:03.829,,555,811,-314
19:14:03.865,,557,583,-393
19:14:03.902,,448,596,-225
19:14:03.939,,454,599,-356
19:14:03.976,,443,813,-322
19:14:04.013,,485,795,-341
19:14:04.050,,454,948,-302
19:14:04.087,,349,740,-267
19:14:04.124,,311,1156,-289
19:14:04.161,,189,872,-291
19:14:04.198,,151,1068,-236
19:14:04.235,,200,988,-311
19:14:04.272,,194,769,-317
19:14:04.309,,270,995,-449
19:14:04.346,,282,835,-309
19:14:04.383,,316,793,-260
19:14:04.420,,294,722,-262
19:14:04.457,,330,701,-232
19:14:04.494,,358,730,-267
19:14:04.531,,359,812,-323
19:14:04.568,,398,882,-324
19:14:04.605,,316,781,-365
19:14:04.642,,302,984,-390
19:14:04.679,,309,998,-413
19:14:04.716,,306,837,-383
19:14:04.753,,324,868,-381
19:14:04.790,,361,1062,-242
19:14:04.827,,434,744,-243
19:14:04.863,,486,771,-247
19:14:04.900,,495,818,-293
19:14:04.937,,409,619,-183
19:14:04.974,,353,784,-445
19:14:05.011,,331,823,-289
19:14:05.048,,433,898,-300
19:14:05.085,,348,818,-265
19:14:05.122,,246,929,-194
19:14:05.159,,154,894,-236
19:14:05.196,,179,1296,-333
19:14:05.233,,160,853,-173
19:14:05.270,,142,888,-264
19:14:05.307,,134,1066,-342
19:14:05.344,,237,729,-320
19:14:05.381,,282,970,-421
19:14:05.418,,230,864,-240
19:14:05.455,,277,692,-307
19:14:05.492,,280,875,-331
19:14:05.529,,287,770,-175
19:14:05.566,,262,804,-212
19:14:05.603,,228,1013,-295
19:14:05.640,,178,880,-221
19:14:05.677,,165,921,-255
19:14:05.714,,264,1180,-357
19:14:05.751,,250,760,-217
19:14:05.788,,296,939,-252
19:14:05.825,,254,879,-210
19:14:05.862,,310,852,-72
19:14:05.899,,357,896,-188
