Sensors' Acquisition [Hz]: Acc@26.0 
hh:mm:ss.ms, Annotation , AccX [mg], AccY, AccZ
02:49:08.656,,-703,798,180
02:49:08.693,,-663,844,202
02:49:08.717,>Walk,,,
02:49:08.730,,-724,789,192
02:49:08.767,,-884,842,75
02:49:08.804,,-898,1022,44
02:49:08.841,,-742,963,141
02:49:08.878,,-763,867,109
02:49:08.915,,-707,838,61
02:49:08.953,,-658,727,53
02:49:08.990,,-616,573,43
02:49:09.027,,-581,517,72
02:49:09.064,,-564,471,108
02:49:09.101,,-621,412,61
02:49:09.138,,-662,459,118
02:49:09.175,,-685,500,218
02:49:09.212,,-780,516,226
02:49:09.336,,-926,779,246
02:49:09.336,,-926,779,246
02:49:09.337,,-926,779,246
02:49:09.360,,-886,887,249
02:49:09.397,,-736,907,293
02:49:09.434,,-569,826,281
02:49:09.471,,-524,788,231
02:49:09.508,,-504,793,224
02:49:09.545,,-527,712,251
02:49:09.583,,-588,573,278
02:49:09.620,,-613,526,293
02:49:09.657,,-643,491,284
02:49:09.694,,-651,444,268
02:49:09.731,,-687,411,313
02:49:09.768,,-726,460,362
02:49:09.805,,-760,485,392
02:49:09.842,,-818,588,388
02:49:09.879,,-787,674,395
02:49:09.916,,-863,652,430
02:49:10.003,,-1034,702,307
02:49:10.003,,-1034,702,307
02:49:10.027,,-837,651,253
02:49:10.064,,-776,516,193
02:49:10.101,,-823,630,125
02:49:10.138,,-685,721,224
02:49:10.175,,-586,631,274
02:49:10.213,,-577,460,287
02:49:10.250,,-597,453,294
02:49:10.287,,-631,459,267
02:49:10.324,,-676,429,239
02:49:10.361,,-688,459,288
02:49:10.398,,-769,510,299
02:49:10.435,,-876,541,314
02:49:10.472,,-904,607,381
02:49:10.509,,-1037,697,400
02:49:10.546,,-947,817,398
02:49:10.583,,-811,853,363
02:49:10.620,,-617,762,332
02:49:10.711,,-493,654,241
02:49:10.712,,-493,654,241
02:49:10.731,,-540,609,221
02:49:10.768,,-654,541,248
02:49:10.805,,-753,526,294
02:49:10.843,,-771,437,275
02:49:10.880,,-767,448,260
02:49:10.917,,-730,463,280
02:49:10.954,,-699,449,321
02:49:10.991,,-687,415,338
02:49:11.028,,-769,480,307
02:49:11.065,,-823,585,254
02:49:11.102,,-777,659,256
02:49:11.139,,-873,665,281
02:49:11.176,,-1056,666,274
02:49:11.213,,-1080,738,166
02:49:11.250,,-858,566,88
02:49:11.287,,-868,532,-6
02:49:11.324,,-825,641,-58
02:49:11.411,,-743,598,-11
02:49:11.411,,-743,598,-11
02:49:11.435,,-712,576,35
02:49:11.473,,-710,552,140
02:49:11.510,,-738,520,138
02:49:11.547,,-749,486,139
02:49:11.584,,-773,464,186
02:49:11.621,,-826,429,174
02:49:11.658,,-954,468,126
02:49:11.695,,-944,614,144
02:49:11.732,,-881,680,173
02:49:11.769,,-801,719,194
02:49:11.806,,-753,781,203
02:49:11.843,,-642,758,210
02:49:11.880,,-593,694,221
02:49:11.917,,-629,624,171
02:49:11.954,,-730,567,137
02:49:11.991,,-737,604,155
02:49:12.028,,-733,563,200
02:49:12.118,,-706,499,200
02:49:12.118,,-706,499,200
02:49:12.140,,-724,457,153
02:49:12.177,,-738,515,98
02:49:12.214,,-704,565,144
02:49:12.251,,-708,605,161
02:49:12.288,,-775,697,121
02:49:12.325,,-821,811,118
02:49:12.362,,-854,822,203
02:49:12.399,,-932,766,170
02:49:12.436,,-976,777,24
02:49:12.473,,-820,691,-22
02:49:12.510,,-800,638,-56
02:49:12.547,,-758,742,-113
02:49:12.584,,-627,797,-65
02:49:12.621,,-518,751,9
02:49:12.658,,-521,615,59
02:49:12.695,,-557,571,83
02:49:12.732,,-609,583,99
02:49:12.822,,-680,635,151
02:49:12.823,,-680,635,151
02:49:12.844,,-705,661,214
02:49:12.881,,-738,644,220
02:49:12.918,,-770,657,168
02:49:12.955,,-781,770,139
02:49:12.992,,-733,1004,221
02:49:13.029,,-690,1001,294
02:49:13.066,,-714,1048,189
02:49:13.103,,-547,943,173
02:49:13.140,,-513,745,197
02:49:13.177,,-547,621,64
02:49:13.214,,-575,561,14
02:49:13.251,,-641,580,65
02:49:13.288,,-669,561,104
02:49:13.325,,-659,549,183
02:49:13.362,,-659,570,217
02:49:13.399,,-662,559,174
02:49:13.437,,-645,599,164
02:49:13.523,,-612,727,181
02:49:13.524,,-612,727,181
02:49:13.548,,-578,732,121
02:49:13.585,,-601,742,90
02:49:13.622,,-644,749,90
02:49:13.659,,-750,795,100
02:49:13.696,,-853,866,141
02:49:13.733,,-968,1019,188
02:49:13.770,,-889,1141,246
02:49:13.807,,-728,850,220
02:49:13.844,,-700,665,91
02:49:13.881,,-730,694,9
02:49:13.918,,-715,740,-36
02:49:13.955,,-633,743,-96
02:49:13.992,,-542,749,-95
02:49:14.029,,-501,607,-18
02:49:14.066,,-504,583,13
02:49:14.103,,-521,629,51
02:49:14.141,,-510,632,119
02:49:14.232,,-639,850,278
02:49:14.232,,-639,850,278
02:49:14.252,,-639,850,278
02:49:14.289,,-701,904,280
02:49:14.326,,-743,969,231
02:49:14.363,,-699,1102,228
02:49:14.400,,-519,1102,284
02:49:14.437,,-425,816,299
02:49:14.474,,-438,729,220
02:49:14.511,,-491,723,107
02:49:14.548,,-533,731,67
02:49:14.585,,-560,712,118
02:49:14.622,,-572,687,194
02:49:14.659,,-614,621,192
02:49:14.696,,-651,572,184
02:49:14.733,,-662,595,212
02:49:14.770,,-649,652,224
02:49:14.808,,-642,765,175
02:49:14.845,,-601,933,142
02:49:14.882,,-578,944,141
02:49:14.919,,-688,1016,103
02:49:14.956,,-701,1189,87
02:49:14.993,,-540,939,127
02:49:15.030,,-560,746,122
02:49:15.067,,-606,904,144
02:49:15.104,,-519,882,134
02:49:15.141,,-456,722,111
02:49:15.178,,-464,626,104
02:49:15.215,,-485,538,122
02:49:15.252,,-548,515,107
02:49:15.289,,-612,549,108
02:49:15.326,,-641,591,122
02:49:15.363,,-670,658,127
02:49:15.400,,-716,779,146
02:49:15.438,,-729,891,200
02:49:15.475,,-720,937,238
02:49:15.512,,-663,1137,214
02:49:15.549,,-536,1296,212
02:49:15.586,,-350,1112,250
02:49:15.623,,-307,926,209
02:49:15.660,,-369,910,157
02:49:15.697,,-420,756,150
02:49:15.734,,-491,740,165
02:49:15.771,,-532,732,214
02:49:15.808,,-552,622,255
02:49:15.845,,-545,562,261
02:49:15.882,,-556,550,286
02:49:15.919,,-581,499,320
02:49:15.956,,-610,550,330
02:49:15.993,,-708,687,329
02:49:16.030,,-710,751,320
02:49:16.068,,-789,772,295
02:49:16.105,,-948,789,242
02:49:16.142,,-971,805,161
02:49:16.179,,-793,759,159
02:49:16.216,,-765,683,105
02:49:16.253,,-768,619,65
02:49:16.290,,-706,609,98
02:49:16.327,,-650,576,122
02:49:16.364,,-651,518,143
02:49:16.401,,-647,456,164
02:49:16.438,,-680,397,168
02:49:16.475,,-719,390,172
02:49:16.512,,-749,446,166
02:49:16.549,,-877,584,142
02:49:16.586,,-863,685,208
02:49:16.623,,-900,644,288
02:49:16.661,,-1012,743,284
02:49:16.698,,-852,1043,350
02:49:16.735,,-609,953,353
02:49:16.772,,-590,755,250
02:49:16.809,,-576,692,247
02:49:16.846,,-645,603,237
02:49:16.883,,-716,578,266
02:49:16.920,,-662,559,330
02:49:16.957,,-652,416,321
02:49:16.994,,-654,435,340
02:49:17.031,,-638,400,405
02:49:17.068,,-667,329,380
02:49:17.105,,-708,533,398
02:49:17.142,,-737,752,443
02:49:17.179,,-722,671,445
02:49:17.216,,-749,618,474
02:49:17.253,,-842,642,502
02:49:17.291,,-914,697,464
02:49:17.328,,-897,716,361
02:49:17.365,,-822,619,294
02:49:17.402,,-778,476,256
02:49:17.439,,-810,401,156
02:49:17.476,,-789,426,128
02:49:17.513,,-783,500,115
02:49:17.550,,-756,495,151
02:49:17.587,,-776,478,193
02:49:17.624,,-766,375,233
02:49:17.661,,-754,419,273
02:49:17.698,,-731,484,321
02:49:17.735,,-734,526,341
02:49:17.772,,-735,505,365
02:49:17.809,,-723,521,383
02:49:17.846,,-737,532,387
02:49:17.883,,-744,571,381
02:49:17.921,,-756,659,402
02:49:17.958,,-745,705,441
02:49:17.995,,-722,708,465
02:49:18.032,,-730,684,415
02:49:18.069,,-796,763,295
02:49:18.106,,-827,932,267
02:49:18.143,,-772,904,270
02:49:18.180,,-672,798,225
02:49:18.217,,-556,711,193
02:49:18.254,,-495,671,183
02:49:18.291,,-494,672,193
02:49:18.328,,-550,681,205
02:49:18.365,,-573,689,256
02:49:18.402,,-603,660,292
02:49:18.439,,-611,640,303
02:49:18.476,,-605,616,316
02:49:18.513,,-628,591,306
02:49:18.550,,-653,575,283
02:49:18.588,,-706,591,252
02:49:18.625,,-782,684,230
02:49:18.662,,-777,703,221
02:49:18.699,,-822,665,242
02:49:18.736,,-834,757,264
02:49:18.773,,-854,576,174
02:49:18.810,,-952,606,72
02:49:18.847,,-899,643,27
02:49:18.884,,-810,610,109
02:49:18.921,,-748,578,172
02:49:18.958,,-717,513,202
02:49:18.995,,-713,446,176
02:49:19.032,,-706,409,150
02:49:19.069,,-722,392,139
02:49:19.106,,-755,380,118
02:49:19.143,,-775,398,121
02:49:19.180,,-829,454,140
02:49:19.218,,-875,506,164
02:49:19.255,,-898,514,173
02:49:19.292,,-873,537,175
02:49:19.329,,-855,592,178
02:49:19.366,,-854,652,178
02:49:19.403,,-892,775,161
02:49:19.440,,-881,787,148
02:49:19.477,,-933,924,134
02:49:19.514,,-807,1065,183
02:49:19.551,,-583,982,253
02:49:19.588,,-454,901,192
02:49:19.625,,-368,927,165
02:49:19.662,,-302,897,202
02:49:19.699,,-350,770,198
02:49:19.736,,-435,784,235
02:49:19.773,,-471,748,305
02:49:19.810,,-474,731,334
02:49:19.848,,-451,638,363
02:49:19.885,,-453,504,342
02:49:19.922,,-507,433,281
02:49:19.959,,-560,451,287
02:49:19.996,,-608,593,295
02:49:20.033,,-695,757,288
02:49:20.070,,-755,911,287
02:49:20.107,,-875,1068,310
02:49:20.144,,-903,1097,279
02:49:20.181,,-805,908,199
02:49:20.218,,-715,794,197
02:49:20.255,,-747,744,182
02:49:20.292,,-737,574,77
02:49:20.329,,-667,605,104
02:49:20.366,,-632,535,144
02:49:20.403,,-626,418,145
02:49:20.440,,-622,363,165
02:49:20.478,,-637,340,174
02:49:20.515,,-644,380,182
02:49:20.552,,-626,461,230
02:49:20.589,,-678,517,255
02:49:20.626,,-767,603,296
02:49:20.663,,-806,781,366
02:49:20.700,,-888,825,377
02:49:20.737,,-967,913,329
02:49:20.774,,-844,1092,314
02:49:20.811,,-560,1036,338
02:49:20.848,,-357,843,358
02:49:20.885,,-414,864,307
02:49:20.922,,-425,775,298
02:49:20.959,,-468,704,329
02:49:20.996,,-540,647,326
02:49:21.033,,-549,599,322
02:49:21.070,,-548,519,304
02:49:21.108,,-572,513,284
02:49:21.145,,-567,479,303
02:49:21.182,,-598,413,302
02:49:21.219,,-617,455,310
02:49:21.256,,-680,647,316
02:49:21.293,,-693,810,328
02:49:21.330,,-781,754,318
02:49:21.367,,-976,930,276
02:49:21.404,,-997,944,190
02:49:21.441,,-871,809,137
02:49:21.478,,-804,662,114
02:49:21.515,,-835,677,44
02:49:21.552,,-746,663,4
02:49:21.589,,-636,630,61
02:49:21.626,,-595,548,124
02:49:21.663,,-596,486,190
02:49:21.701,,-623,443,214
02:49:21.738,,-663,370,177
02:49:21.775,,-695,368,161
02:49:21.812,,-710,436,172
02:49:21.849,,-747,487,194
02:49:21.886,,-840,620,195
02:49:21.923,,-926,804,197
02:49:21.960,,-903,849,276
02:49:21.997,,-974,929,218
02:49:22.034,,-926,1076,158
02:49:22.071,,-651,1042,226
02:49:22.108,,-467,764,230
02:49:22.145,,-499,748,146
02:49:22.182,,-507,706,138
02:49:22.219,,-576,669,149
02:49:22.256,,-629,649,190
02:49:22.293,,-620,587,225
02:49:22.331,,-589,501,250
02:49:22.368,,-572,505,273
02:49:22.405,,-564,503,295
02:49:22.442,,-576,536,316
02:49:22.479,,-602,580,338
02:49:22.516,,-640,626,347
02:49:22.553,,-704,751,328
02:49:22.590,,-707,734,327
02:49:22.627,,-863,739,292
02:49:22.664,,-1057,904,219
02:49:22.701,,-930,979,165
02:49:22.738,,-702,802,175
02:49:22.775,,-709,646,103
02:49:22.812,,-752,634,19
02:49:22.849,,-695,607,22
02:49:22.887,,-684,597,45
02:49:22.924,,-658,553,97
02:49:22.961,,-632,494,159
02:49:22.998,,-634,421,154
02:49:23.035,,-650,414,151
02:49:23.072,,-671,455,164
02:49:23.109,,-682,501,181
02:49:23.146,,-759,564,166
02:49:23.183,,-831,748,178
02:49:23.220,,-797,859,301
02:49:23.257,,-884,826,351
02:49:23.294,,-926,1075,240
02:49:23.331,,-714,1213,280
02:49:23.368,,-409,1003,354
02:49:23.405,,-271,737,303
02:49:23.442,,-317,743,188
02:49:23.479,,-387,762,197
02:49:23.517,,-470,737,190
02:49:23.554,,-512,672,217
02:49:23.591,,-499,637,258
02:49:23.628,,-486,611,282
02:49:23.665,,-469,583,277
02:49:23.702,,-463,587,279
02:49:23.739,,-479,631,279
02:49:23.776,,-499,664,264
02:49:23.813,,-554,742,214
02:49:23.850,,-566,857,199
02:49:23.887,,-574,878,185
02:49:23.924,,-690,1008,130
02:49:23.961,,-745,1144,55
02:49:23.998,,-683,1158,69
02:49:24.035,,-582,900,109
02:49:24.072,,-648,870,40
02:49:24.109,,-622,930,21
02:49:24.147,,-544,894,23
02:49:24.184,,-483,785,50
02:49:24.221,,-451,643,63
02:49:24.258,,-439,565,68
02:49:24.295,,-439,536,70
02:49:24.332,,-456,577,65
02:49:24.369,,-474,638,89
02:49:24.406,,-551,734,107
02:49:24.443,,-629,1018,122
02:49:24.480,,-595,1076,226
02:49:24.517,,-605,1049,278
02:49:24.554,,-590,1231,204
02:49:24.591,,-369,1296,280
02:49:24.628,,-75,1101,356
02:49:24.665,,-114,961,254
02:49:24.702,,-186,817,186
02:49:24.739,,-246,779,236
02:49:24.777,,-303,824,269
02:49:24.814,,-314,762,255
02:49:24.851,,-312,666,255
02:49:24.888,,-329,604,270
02:49:24.925,,-360,570,266
02:49:24.962,,-406,652,280
02:49:24.999,,-453,863,298
02:49:25.036,,-457,1000,323
02:49:25.073,,-454,1057,336
02:49:25.110,,-510,1126,313
02:49:25.147,,-510,1111,258
02:49:25.184,,-456,957,202
02:49:25.221,,-432,739,150
02:49:25.258,,-483,643,111
02:49:25.295,,-518,757,92
02:49:25.332,,-474,883,57
02:49:25.369,,-458,922,45
02:49:25.406,,-454,847,63
02:49:25.443,,-522,696,50
02:49:25.481,,-558,631,73
02:49:25.518,,-557,641,120
02:49:25.555,,-586,690,89
02:49:25.592,,-588,793,116
02:49:25.629,,-585,861,143
02:49:25.666,,-609,877,143
02:49:25.703,,-602,916,164
02:49:25.740,,-567,874,174
02:49:25.777,,-591,827,108
02:49:25.814,,-606,1048,85
02:49:25.851,,-478,1190,134
02:49:25.888,,-299,1047,205
02:49:25.925,,-258,1013,280
02:49:25.962,,-256,905,265
02:49:25.999,,-254,843,234
02:49:26.036,,-316,843,234
02:49:26.073,,-369,808,223
02:49:26.110,,-395,730,217
02:49:26.147,,-396,665,221
02:49:26.185,,-393,628,214
02:49:26.222,,-395,608,217
02:49:26.259,,-406,610,228
02:49:26.296,,-442,645,235
02:49:26.333,,-488,727,236
02:49:26.370,,-497,832,217
02:49:26.407,,-502,854,183
02:49:26.444,,-564,995,171
02:49:26.481,,-644,1202,121
02:49:26.518,,-612,1319,67
02:49:26.555,,-484,1246,134
02:49:26.592,,-480,1048,104
02:49:26.629,,-455,996,50
02:49:26.666,,-407,939,22
02:49:26.703,,-362,816,29
02:49:26.740,,-334,682,44
02:49:26.777,,-339,616,64
02:49:26.814,,-357,624,117
02:49:26.852,,-399,628,118
02:49:26.889,,-470,680,101
02:49:26.926,,-545,778,101
02:49:26.963,,-634,915,106
02:49:27.000,,-663,1054,151
02:49:27.037,,-688,970,179
02:49:27.074,,-738,972,128
02:49:27.111,,-684,1147,118
02:49:27.148,,-505,1296,175
02:49:27.185,,-374,958,241
02:49:27.222,,-371,900,152
02:49:27.259,,-376,927,82
02:49:27.296,,-394,782,103
02:49:27.333,,-423,710,116
02:49:27.370,,-438,638,138
02:49:27.407,,-446,564,140
02:49:27.444,,-478,513,153
02:49:27.481,,-501,504,179
02:49:27.518,,-529,549,256
02:49:27.556,,-559,600,318
02:49:27.593,,-600,734,327
02:49:27.630,,-634,874,319
02:49:27.667,,-610,887,337
02:49:27.704,,-735,819,260
02:49:27.741,,-907,867,122
02:49:27.778,,-843,945,71
02:49:27.815,,-682,769,107
02:49:27.852,,-760,671,2
02:49:27.889,,-728,702,-50
02:49:27.926,,-603,778,22
02:49:27.963,,-529,702,87
02:49:28.000,,-538,585,147
02:49:28.037,,-542,513,206
02:49:28.074,,-590,454,206
02:49:28.111,,-631,477,140
02:49:28.148,,-677,560,120
02:49:28.185,,-684,638,118
02:49:28.222,,-727,720,113
02:49:28.260,,-746,843,148
02:49:28.297,,-737,871,221
02:49:28.334,,-765,877,223
02:49:28.371,,-788,1144,147
02:49:28.408,,-565,1361,239
02:49:28.445,,-374,1033,253
02:49:28.482,,-381,937,164
02:49:28.519,,-358,921,155
02:49:28.556,,-324,781,167
02:49:28.593,,-356,760,194
02:49:28.630,,-379,713,250
02:49:28.667,,-421,655,296
02:49:28.704,,-452,601,309
02:49:28.741,,-459,589,320
02:49:28.778,,-486,520,322
02:49:28.815,,-525,520,335
02:49:28.852,,-681,619,335
02:49:28.889,,-746,802,334
02:49:28.926,,-751,854,360
02:49:28.964,,-833,891,330
02:49:29.001,,-919,938,275
02:49:29.038,,-912,950,203
02:49:29.075,,-754,842,148
02:49:29.112,,-754,590,12
02:49:29.149,,-788,565,-50
02:49:29.186,,-707,536,-2
02:49:29.223,,-672,465,3
02:49:29.260,,-633,460,73
02:49:29.297,,-620,414,146
02:49:29.334,,-608,376,147
02:49:29.371,,-615,416,164
02:49:29.408,,-650,514,199
02:49:29.445,,-745,664,190
02:49:29.482,,-799,905,241
02:49:29.519,,-790,846,352
02:49:29.556,,-960,808,368
02:49:29.593,,-916,1091,266
02:49:29.631,,-569,1024,304
02:49:29.668,,-409,922,318
02:49:29.705,,-408,917,287
02:49:29.742,,-516,691,232
02:49:29.779,,-602,581,216
02:49:29.816,,-587,582,243
02:49:29.853,,-555,475,218
02:49:29.890,,-530,425,225
02:49:29.927,,-547,468,245
02:49:29.964,,-589,551,273
02:49:30.001,,-671,775,304
02:49:30.038,,-654,895,337
02:49:30.075,,-738,757,376
02:49:30.112,,-995,889,256
02:49:30.149,,-1099,949,103
02:49:30.186,,-861,864,54
02:49:30.223,,-732,654,44
02:49:30.260,,-766,636,-33
02:49:30.297,,-699,656,-54
02:49:30.335,,-657,646,-34
02:49:30.372,,-611,643,8
02:49:30.409,,-577,564,85
02:49:30.446,,-560,481,136
02:49:30.483,,-555,437,148
02:49:30.520,,-595,431,135
02:49:30.557,,-612,505,140
02:49:30.594,,-655,612,131
02:49:30.631,,-788,855,103
02:49:30.668,,-770,1003,148
02:49:30.705,,-791,947,205
02:49:30.742,,-772,1110,89
02:49:30.779,,-470,1224,-54
02:49:30.816,,-260,1126,132
02:49:30.853,,-346,1056,147
02:49:30.890,,-437,1032,119
02:49:30.927,,-486,917,204
02:49:30.964,,-477,832,166
02:49:31.001,,-467,690,84
02:49:31.039,,-462,600,92
02:49:31.076,,-481,569,120
02:49:31.113,,-497,524,147
02:49:31.150,,-539,510,177
02:49:31.187,,-601,531,191
02:49:31.224,,-685,639,172
02:49:31.261,,-723,790,157
02:49:31.298,,-737,788,177
02:49:31.335,,-870,883,156
02:49:31.372,,-933,999,85
02:49:31.409,,-782,969,19
02:49:31.446,,-702,805,-11
02:49:31.483,,-725,800,-51
02:49:31.520,,-693,739,-40
02:49:31.557,,-629,647,-16
02:49:31.594,,-589,610,13
02:49:31.631,,-557,540,53
02:49:31.668,,-562,506,79
02:49:31.706,,-588,496,92
02:49:31.743,,-610,508,135
02:49:31.780,,-654,589,153
02:49:31.817,,-764,730,138
02:49:31.854,,-761,791,165
02:49:31.891,,-780,789,206
02:49:31.928,,-823,860,146
02:49:31.965,,-733,1141,59
02:49:32.002,,-468,1108,136
02:49:32.039,,-344,996,117
02:49:32.076,,-344,977,63
02:49:32.113,,-363,864,71
02:49:32.150,,-410,781,103
02:49:32.187,,-429,701,127
02:49:32.224,,-437,613,123
02:49:32.261,,-463,538,103
02:49:32.298,,-483,603,158
02:49:32.336,,-502,635,204
02:49:32.373,,-491,602,191
02:49:32.410,,-510,688,225
02:49:32.447,,-549,871,235
02:49:32.484,,-507,978,235
02:49:32.521,,-531,970,227
02:49:32.558,,-604,1067,211
02:49:32.595,,-615,1163,185
02:49:32.632,,-488,1076,149
02:49:32.669,,-478,960,81
02:49:32.706,,-466,1007,76
02:49:32.743,,-420,981,85
02:49:32.780,,-384,825,50
02:49:32.817,,-373,728,64
02:49:32.854,,-372,668,97
02:49:32.891,,-384,620,92
02:49:32.928,,-403,637,82
02:49:32.965,,-409,708,109
02:49:33.003,,-453,804,111
02:49:33.040,,-513,926,96
02:49:33.077,,-482,1031,126
02:49:33.114,,-483,1053,196
02:49:33.151,,-522,1081,188
02:49:33.188,,-437,1275,171
02:49:33.225,,-219,1357,253
02:49:33.262,,-141,1051,212
02:49:33.299,,-165,950,158
02:49:33.336,,-124,843,144
02:49:33.373,,-150,801,116
02:49:33.410,,-191,800,149
02:49:33.447,,-219,722,174
02:49:33.484,,-264,639,186
02:49:33.521,,-293,655,225
02:49:33.558,,-319,657,243
02:49:33.595,,-372,684,221
02:49:33.633,,-447,796,221
02:49:33.670,,-490,1002,241
02:49:33.707,,-483,1096,229
02:49:33.744,,-538,1156,198
02:49:33.781,,-567,1233,182
02:49:33.818,,-505,1161,148
02:49:33.855,,-456,946,83
02:49:33.892,,-490,903,46
02:49:33.929,,-473,914,28
02:49:33.966,,-410,856,12
02:49:34.003,,-376,773,31
02:49:34.040,,-368,679,75
02:49:34.077,,-398,610,95
02:49:34.114,,-441,599,111
02:49:34.151,,-487,650,131
02:49:34.188,,-524,729,157
02:49:34.225,,-571,804,157
02:49:34.263,,-601,880,144
02:49:34.300,,-579,938,170
02:49:34.337,,-573,996,193
02:49:34.374,,-562,1141,185
02:49:34.411,,-408,1279,186
02:49:34.448,,-225,1157,219
02:49:34.485,,-156,927,191
02:49:34.522,,-175,751,127
02:49:34.559,,-216,734,92
02:49:34.596,,-291,772,91
02:49:34.633,,-343,803,138
02:49:34.670,,-380,751,193
02:49:34.707,,-416,672,213
02:49:34.744,,-443,686,232
02:49:34.781,,-451,694,260
02:49:34.818,,-488,768,256
02:49:34.855,,-492,902,257
02:49:34.893,,-509,979,248
02:49:34.930,,-514,971,228
02:49:34.967,,-564,995,207
02:49:35.004,,-631,1086,171
02:49:35.041,,-587,1010,131
02:49:35.078,,-552,779,70
02:49:35.115,,-592,718,25
02:49:35.152,,-627,794,0
02:49:35.189,,-576,887,-10
02:49:35.226,,-514,866,-17
02:49:35.263,,-489,734,0
02:49:35.300,,-509,651,25
02:49:35.337,,-540,603,41
02:49:35.374,,-569,622,47
02:49:35.411,,-582,682,63
02:49:35.448,,-599,755,74
02:49:35.485,,-628,826,85
02:49:35.522,,-650,870,88
02:49:35.560,,-648,896,116
02:49:35.597,,-643,945,147
02:49:35.634,,-594,1008,156
02:49:35.671,,-496,1141,191
02:49:35.708,,-350,1035,235
02:49:35.745,,-291,822,181
02:49:35.782,,-298,729,120
02:49:35.819,,-325,732,87
02:49:35.856,,-344,798,101
02:49:35.893,,-383,873,120
02:49:35.930,,-408,865,158
02:49:35.967,,-424,859,222
02:49:36.004,,-437,851,263
02:49:36.041,,-411,818,275
02:49:36.078,,-384,784,272
02:49:36.115,,-370,767,258
02:49:36.152,,-363,764,241
02:49:36.190,,-378,780,223
02:49:36.227,,-407,883,211
02:49:36.264,,-409,933,205
02:49:36.301,,-491,1013,168
02:49:36.338,,-562,1150,140
02:49:36.375,,-578,1153,108
02:49:36.412,,-565,994,129
02:49:36.449,,-586,852,140
02:49:36.486,,-616,827,83
02:49:36.523,,-584,841,36
02:49:36.560,,-528,789,55
02:49:36.597,,-467,676,103
02:49:36.634,,-491,578,118
02:49:36.671,,-541,573,102
02:49:36.708,,-579,586,105
02:49:36.746,,-570,608,127
02:49:36.783,,-591,618,144
02:49:36.820,,-649,675,110
02:49:36.857,,-717,785,82
02:49:36.894,,-730,958,159
02:49:36.931,,-736,937,304
02:49:36.968,,-852,876,171
02:49:37.005,,-860,1073,131
02:49:37.042,,-522,1068,249
02:49:37.079,,-472,819,161
02:49:37.116,,-491,658,81
02:49:37.153,,-472,612,87
02:49:37.190,,-517,650,79
02:49:37.227,,-538,681,141
02:49:37.264,,-505,606,225
02:49:37.301,,-512,546,247
02:49:37.338,,-573,526,254
02:49:37.376,,-635,499,272
02:49:37.413,,-762,710,252
02:49:37.450,,-803,954,247
02:49:37.487,,-749,937,245
02:49:37.524,,-784,931,202
02:49:37.561,,-818,940,182
02:49:37.598,,-780,804,115
02:49:37.635,,-732,608,102
02:49:37.672,,-810,645,48
02:49:37.709,,-796,645,-33
02:49:37.746,,-677,631,49
02:49:37.783,,-610,567,142
02:49:37.820,,-596,527,192
02:49:37.857,,-589,462,212
02:49:37.894,,-597,438,186
02:49:37.931,,-631,478,152
02:49:37.969,,-727,647,124
02:49:38.006,,-788,773,119
02:49:38.043,,-761,780,200
02:49:38.080,,-830,727,248
02:49:38.117,,-894,863,192
02:49:38.154,,-741,1092,223
02:49:38.191,,-460,1055,321
02:49:38.228,,-339,801,329
02:49:38.265,,-327,769,252
02:49:38.302,,-367,746,245
02:49:38.339,,-472,778,267
02:49:38.376,,-540,684,283
02:49:38.413,,-531,599,336
02:49:38.450,,-541,524,353
02:49:38.487,,-559,528,335
02:49:38.524,,-575,509,332
02:49:38.562,,-617,540,316
02:49:38.599,,-688,717,312
02:49:38.636,,-703,831,311
02:49:38.673,,-744,785,295
02:49:38.710,,-887,871,316
02:49:38.747,,-997,897,229
02:49:38.784,,-902,858,96
02:49:38.821,,-813,679,56
02:49:38.858,,-799,706,-29
02:49:38.895,,-678,697,6
02:49:38.932,,-584,624,82
02:49:38.969,,-587,546,155
02:49:39.006,,-597,498,191
02:49:39.043,,-615,450,189
02:49:39.080,,-630,447,182
02:49:39.117,,-648,463,198
02:49:39.154,,-679,473,219
02:49:39.192,,-786,545,223
02:49:39.229,,-824,635,258
02:49:39.266,,-865,720,319
02:49:39.303,,-880,818,356
02:49:39.340,,-876,906,323
02:49:39.377,,-762,995,268
02:49:39.414,,-555,987,284
02:49:39.451,,-424,808,251
02:49:39.488,,-462,807,183
02:49:39.525,,-472,729,209
02:49:39.562,,-527,692,257
02:49:39.599,,-576,648,260
02:49:39.636,,-558,567,263
02:49:39.673,,-540,527,272
02:49:39.710,,-549,522,276
02:49:39.747,,-573,504,293
02:49:39.784,,-603,514,317
02:49:39.822,,-675,578,318
02:49:39.859,,-758,758,300
02:49:39.896,,-735,817,305
02:49:39.933,,-804,780,279
02:49:39.970,,-958,892,262
02:49:40.007,,-985,927,164
02:49:40.044,,-796,852,62
02:49:40.081,,-729,703,23
02:49:40.118,,-713,679,11
02:49:40.155,,-640,654,25
02:49:40.192,,-558,598,74
02:49:40.229,,-528,601,141
02:49:40.266,,-516,533,208
02:49:40.303,,-524,504,209
02:49:40.340,,-547,462,175
02:49:40.377,,-556,559,193
02:49:40.414,,-582,642,183
02:49:40.452,,-621,701,144
02:49:40.489,,-578,783,182
02:49:40.526,,-561,962,248
02:49:40.563,,-534,1031,253
02:49:40.600,,-272,1190,289
02:49:40.637,,-157,1167,236
02:49:40.674,,-137,1174,257
02:49:40.711,,-113,1038,246
02:49:40.748,,-109,912,229
02:49:40.785,,-146,768,236
02:49:40.822,,-174,768,288
02:49:40.859,,-205,722,329
02:49:40.896,,-223,650,319
02:49:40.933,,-239,665,324
02:49:40.970,,-259,678,333
02:49:41.007,,-294,714,302
02:49:41.045,,-323,893,312
02:49:41.082,,-294,1087,325
02:49:41.119,,-321,1204,288
02:49:41.156,,-327,1319,289
02:49:41.193,,-306,1342,265
02:49:41.230,,-244,1115,215
02:49:41.267,,-278,963,156
02:49:41.304,,-260,1013,167
02:49:41.341,,-211,943,128
02:49:41.378,,-190,801,96
02:49:41.415,,-209,720,121
02:49:41.452,,-236,674,125
02:49:41.489,,-251,648,123
02:49:41.526,,-263,699,149
02:49:41.563,,-260,784,186
02:49:41.601,,-289,843,219
02:49:41.638,,-332,989,229
02:49:41.675,,-306,1126,275
02:49:41.712,,-254,1201,311
02:49:41.749,,-249,1246,275
02:49:41.786,,-139,1358,283
02:49:41.823,,32,1185,303
02:49:41.860,,-18,978,223
02:49:41.897,,-6,907,139
02:49:41.934,,-16,859,145
02:49:41.971,,-51,820,180
02:49:42.008,,-106,768,218
02:49:42.045,,-150,674,242
02:49:42.082,,-197,622,243
02:49:42.119,,-237,655,261
02:49:42.156,,-254,723,283
02:49:42.193,,-290,789,282
02:49:42.231,,-303,988,298
02:49:42.268,,-250,1102,305
02:49:42.305,,-293,1097,281
02:49:42.342,,-349,1161,256
02:49:42.379,,-369,1240,244
02:49:42.416,,-309,1103,200
02:49:42.453,,-331,1077,152
02:49:42.490,,-253,1048,142
02:49:42.527,,-198,866,124
02:49:42.564,,-207,717,118
02:49:42.601,,-226,667,127
02:49:42.638,,-248,637,134
02:49:42.675,,-271,678,150
02:49:42.712,,-311,739,160
02:49:42.749,,-345,805,179
02:49:42.786,,-397,895,188
02:49:42.823,,-450,1031,194
02:49:42.860,,-395,1120,224
02:49:42.898,,-357,1132,210
02:49:42.935,,-328,1211,211
02:49:42.972,,-214,1363,244
02:49:43.009,,-60,1215,262
02:49:43.046,,-61,890,181
02:49:43.083,,-101,809,103
02:49:43.120,,-108,827,74
02:49:43.157,,-139,794,52
02:49:43.194,,-172,787,59
02:49:43.231,,-209,754,117
02:49:43.268,,-249,714,146
02:49:43.305,,-273,704,156
02:49:43.342,,-273,757,194
02:49:43.379,,-284,797,221
02:49:43.416,,-322,852,227
02:49:43.453,,-356,978,232
02:49:43.490,,-320,1138,244
02:49:43.528,,-289,1093,264
02:49:43.565,,-341,994,232
02:49:43.602,,-437,1101,198
02:49:43.639,,-386,1156,198
02:49:43.676,,-340,970,171
02:49:43.713,,-374,956,147
02:49:43.750,,-352,1002,122
02:49:43.787,,-308,933,91
02:49:43.824,,-283,869,77
02:49:43.861,,-275,790,69
02:49:43.898,,-285,673,53
02:49:43.935,,-294,684,68
02:49:43.972,,-308,723,81
02:49:44.009,,-299,729,95
02:49:44.046,,-317,776,106
02:49:44.083,,-397,904,136
02:49:44.120,,-406,1051,204
02:49:44.157,,-451,1155,210
02:49:44.195,,-526,1459,213
02:49:44.232,,-343,1572,370
02:49:44.269,,-103,1262,367
02:49:44.306,,-97,931,160
02:49:44.343,,-83,837,101
02:49:44.380,,-67,724,114
02:49:44.417,,-110,686,98
02:49:44.454,,-143,769,136
02:49:44.491,,-176,759,182
02:49:44.528,,-240,727,206
02:49:44.565,,-285,715,233
02:49:44.602,,-328,697,278
02:49:44.639,,-414,687,304
02:49:44.676,,-486,806,298
02:49:44.713,,-501,1051,282
02:49:44.750,,-497,1186,261
02:49:44.788,,-528,1268,201
02:49:44.825,,-458,1183,151
02:49:44.862,,-470,964,96
02:49:44.899,,-495,979,54
02:49:44.936,,-456,992,64
02:49:44.973,,-364,832,81
02:49:45.010,,-348,741,102
02:49:45.047,,-336,626,122
02:49:45.084,,-351,547,139
02:49:45.121,,-395,550,130
02:49:45.158,,-438,615,122
02:49:45.195,,-457,756,127
02:49:45.232,,-485,897,149
02:49:45.269,,-517,1006,167
02:49:45.306,,-528,1080,224
02:49:45.343,,-553,1049,252
02:49:45.380,,-570,1104,175
02:49:45.418,,-508,1307,170
02:49:45.455,,-342,1290,224
02:49:45.492,,-228,969,303
02:49:45.529,,-274,923,213
02:49:45.566,,-279,866,143
02:49:45.603,,-312,801,145
02:49:45.640,,-356,774,161
02:49:45.677,,-347,785,220
02:49:45.714,,-363,674,240
02:49:45.751,,-388,566,240
02:49:45.788,,-450,512,303
02:49:45.825,,-517,546,368
02:49:45.862,,-617,634,363
02:49:45.899,,-662,670,387
02:49:45.936,,-660,762,384
02:49:45.973,,-732,818,358
02:49:46.010,,-835,857,330
02:49:46.048,,-826,846,275
02:49:46.085,,-715,803,244
02:49:46.122,,-707,733,149
02:49:46.159,,-684,682,125
02:49:46.196,,-651,638,117
02:49:46.233,,-623,599,136
02:49:46.270,,-615,557,186
02:49:46.307,,-621,509,215
02:49:46.344,,-636,460,224
02:49:46.381,,-673,439,258
02:49:46.418,,-721,508,260
02:49:46.455,,-736,554,266
02:49:46.492,,-738,706,305
02:49:46.529,,-853,723,323
02:49:46.566,,-1000,800,283
02:49:46.603,,-780,1023,273
02:49:46.640,,-561,891,347
02:49:46.678,,-521,785,327
02:49:46.715,,-540,719,282
02:49:46.752,,-665,620,276
02:49:46.789,,-702,586,264
02:49:46.826,,-637,545,312
02:49:46.863,,-620,495,308
02:49:46.900,,-578,447,291
02:49:46.937,,-635,465,333
02:49:46.974,,-672,539,354
02:49:47.011,,-715,553,361
02:49:47.048,,-772,645,305
02:49:47.085,,-786,771,296
02:49:47.122,,-830,782,276
02:49:47.159,,-933,765,168
02:49:47.196,,-846,614,122
02:49:47.233,,-772,550,154
02:49:47.271,,-796,580,159
02:49:47.308,,-802,567,64
02:49:47.345,,-763,537,41
02:49:47.382,,-720,564,90
02:49:47.419,,-725,527,140
02:49:47.456,,-742,523,199
02:49:47.493,,-752,526,240
02:49:47.530,,-728,511,256
02:49:47.567,,-733,553,253
02:49:47.604,,-784,668,208
02:49:47.641,,-755,763,211
02:49:47.678,,-729,696,244
02:49:47.715,,-889,588,208
02:49:47.752,,-902,840,208
02:49:47.789,,-669,1156,369
02:49:47.826,,-541,812,417
02:49:47.864,,-568,677,299
02:49:47.901,,-630,571,231
02:49:47.938,,-643,573,263
02:49:47.975,,-589,603,300
02:49:48.012,,-551,459,282
02:49:48.049,,-560,479,292
02:49:48.086,,-581,475,302
02:49:48.123,,-604,488,313
02:49:48.160,,-678,528,326
02:49:48.197,,-735,620,323
02:49:48.234,,-737,724,321
02:49:48.271,,-754,759,303
02:49:48.308,,-880,772,267
02:49:48.345,,-1043,849,227
02:49:48.382,,-902,828,93
02:49:48.419,,-746,856,70
02:49:48.456,,-737,717,6
02:49:48.494,,-688,669,-19
02:49:48.531,,-710,712,24
02:49:48.568,,-687,632,62
02:49:48.605,,-655,546,128
02:49:48.642,,-646,466,165
02:49:48.679,,-652,415,174
02:49:48.716,,-654,454,210
02:49:48.753,,-694,450,193
02:49:48.790,,-781,530,144
02:49:48.827,,-842,662,150
02:49:48.864,,-876,720,226
02:49:48.901,,-978,718,282
02:49:48.938,,-998,915,226
02:49:48.975,,-735,1131,233
02:49:49.012,,-458,941,303
02:49:49.049,,-414,680,260
02:49:49.086,,-530,775,166
02:49:49.123,,-579,634,190
02:49:49.161,,-580,565,220
02:49:49.198,,-554,515,232
02:49:49.235,,-555,394,210
02:49:49.272,,-596,495,243
02:49:49.309,,-633,492,256
02:49:49.346,,-679,488,281
02:49:49.383,,-773,651,269
02:49:49.420,,-819,828,263
02:49:49.457,,-859,791,285
02:49:49.494,,-1072,778,208
02:49:49.531,,-1215,827,17
02:49:49.568,,-923,854,-45
02:49:49.605,,-770,745,-19
02:49:49.642,,-691,721,13
02:49:49.679,,-631,613,71
02:49:49.716,,-621,515,115
02:49:49.753,,-610,476,163
02:49:49.790,,-604,444,176
02:49:49.828,,-620,409,161
02:49:49.865,,-646,397,178
02:49:49.902,,-719,432,184
02:49:49.939,,-860,557,148
02:49:49.976,,-895,721,220
02:49:50.013,,-890,615,305
02:49:50.050,,-954,645,301
02:49:50.087,,-953,933,276
02:49:50.124,,-762,1029,283
02:49:50.161,,-538,867,268
02:49:50.198,,-526,749,208
02:49:50.235,,-519,749,197
02:49:50.272,,-524,651,213
02:49:50.309,,-549,564,250
02:49:50.346,,-542,542,267
02:49:50.383,,-507,487,291
02:49:50.420,,-529,460,292
02:49:50.457,,-555,469,312
02:49:50.495,,-584,506,317
02:49:50.532,,-708,601,287
02:49:50.569,,-815,787,253
02:49:50.606,,-825,868,250
02:49:50.643,,-880,843,221
02:49:50.680,,-1034,922,173
02:49:50.717,,-942,954,89
02:49:50.754,,-747,743,41
02:49:50.791,,-743,753,8
02:49:50.828,,-695,729,-22
02:49:50.865,,-621,669,22
02:49:50.902,,-620,607,43
02:49:50.939,,-608,533,94
02:49:50.976,,-599,475,140
02:49:51.013,,-610,441,145
02:49:51.050,,-630,448,153
02:49:51.087,,-680,521,167
02:49:51.124,,-798,711,173
02:49:51.162,,-833,848,219
02:49:51.199,,-949,834,285
02:49:51.236,,-988,922,264
02:49:51.273,,-821,1040,309
02:49:51.310,,-396,867,296
02:49:51.347,,-403,746,194
02:49:51.384,,-450,663,186
02:49:51.421,,-527,603,199
02:49:51.458,,-545,549,188
02:49:51.495,,-539,500,208
02:49:51.532,,-552,463,209
02:49:51.569,,-565,488,223
02:49:51.606,,-582,512,270
02:49:51.643,,-615,566,324
02:49:51.680,,-710,748,346
02:49:51.717,,-714,875,342
02:49:51.754,,-772,880,322
02:49:51.791,,-915,943,251
02:49:51.829,,-912,931,157
02:49:51.866,,-712,767,92
02:49:51.903,,-688,698,19
02:49:51.940,,-701,705,-20
02:49:51.977,,-642,752,-27
02:49:52.014,,-557,663,-27
02:49:52.051,,-538,521,11
02:49:52.088,,-541,491,35
02:49:52.125,,-560,482,47
02:49:52.162,,-607,482,38
02:49:52.199,,-680,536,33
02:49:52.236,,-742,599,-5
02:49:52.273,,-864,884,4
02:49:52.310,,-737,944,176
02:49:52.347,,-652,1067,230
02:49:52.384,,-591,1274,107
02:49:52.421,,-278,1404,226
02:49:52.458,,-53,1264,276
02:49:52.496,,-186,1099,145
02:49:52.533,,-221,978,177
02:49:52.570,,-245,907,290
02:49:52.607,,-287,788,278
02:49:52.644,,-310,678,221
02:49:52.681,,-345,590,184
02:49:52.718,,-400,559,193
02:49:52.755,,-457,547,227
02:49:52.792,,-514,522,266
02:49:52.829,,-607,509,249
02:49:52.866,,-718,582,191
02:49:52.903,,-701,971,139
02:49:52.940,,-794,1121,194
02:49:52.977,,-838,1260,166
02:49:53.014,,-750,1321,129
02:49:53.051,,-555,998,154
02:49:53.088,,-526,827,123
02:49:53.125,,-499,774,74
02:49:53.162,,-446,659,37
02:49:53.200,,-403,575,41
02:49:53.237,,-426,537,102
02:49:53.274,,-481,582,144
02:49:53.311,,-572,583,135
02:49:53.348,,-643,610,159
02:49:53.385,,-720,679,214
02:49:53.422,,-785,747,226
02:49:53.459,,-793,837,222
02:49:53.496,,-709,880,261
02:49:53.533,,-671,946,237
02:49:53.570,,-648,1129,199
02:49:53.607,,-396,1254,307
02:49:53.644,,-340,952,337
02:49:53.681,,-419,899,247
02:49:53.718,,-387,865,260
02:49:53.755,,-425,769,266
02:49:53.792,,-490,709,262
02:49:53.830,,-511,644,286
02:49:53.867,,-531,561,287
02:49:53.904,,-522,450,290
02:49:53.941,,-529,399,304
02:49:53.978,,-549,438,324
02:49:54.015,,-599,482,337
02:49:54.052,,-710,617,348
02:49:54.089,,-765,720,367
02:49:54.126,,-849,677,396
02:49:54.163,,-991,686,361
02:49:54.200,,-1051,784,247
02:49:54.237,,-933,768,148
02:49:54.274,,-865,635,95
02:49:54.311,,-853,648,55
02:49:54.348,,-742,580,61
02:49:54.385,,-652,528,128
02:49:54.422,,-611,459,225
02:49:54.459,,-634,363,223
02:49:54.497,,-664,332,141
02:49:54.534,,-681,320,99
02:49:54.571,,-684,385,133
02:49:54.608,,-737,421,145
02:49:54.645,,-848,578,126
02:49:54.682,,-871,787,223
02:49:54.719,,-930,779,348
02:49:54.756,,-1023,971,295
02:49:54.793,,-861,1179,330
02:49:54.830,,-614,1061,414
02:49:54.867,,-471,864,330
02:49:54.904,,-444,814,239
02:49:54.941,,-414,737,211
02:49:54.978,,-447,666,214
02:49:55.015,,-521,597,221
02:49:55.052,,-556,546,267
02:49:55.089,,-582,477,290
02:49:55.126,,-593,445,301
02:49:55.164,,-572,447,316
02:49:55.201,,-579,469,310
02:49:55.238,,-631,571,284
02:49:55.275,,-694,783,307
02:49:55.312,,-703,828,359
02:49:55.349,,-848,720,356
02:49:55.386,,-987,836,241
02:49:55.423,,-1009,912,170
02:49:55.460,,-838,920,135
02:49:55.497,,-752,630,50
02:49:55.534,,-738,621,65
02:49:55.571,,-680,614,52
02:49:55.608,,-641,593,76
02:49:55.645,,-643,539,142
02:49:55.682,,-640,485,180
02:49:55.719,,-619,399,162
02:49:55.756,,-626,405,143
02:49:55.794,,-635,447,167
02:49:55.831,,-691,472,155
02:49:55.868,,-822,644,148
02:49:55.905,,-858,936,274
02:49:55.942,,-893,872,404
02:49:55.979,,-969,954,342
02:49:56.016,,-830,1201,260
02:49:56.053,,-501,1070,349
02:49:56.090,,-355,788,369
02:49:56.127,,-389,798,215
02:49:56.164,,-406,787,200
02:49:56.201,,-438,713,234
02:49:56.238,,-448,625,244
02:49:56.275,,-435,549,255
02:49:56.312,,-461,485,252
02:49:56.349,,-513,486,247
02:49:56.386,,-562,513,269
02:49:56.423,,-632,561,281
02:49:56.461,,-723,683,270
02:49:56.498,,-775,846,267
02:49:56.535,,-819,814,298
02:49:56.572,,-1048,919,208
02:49:56.609,,-1013,1214,131
02:49:56.646,,-757,1121,150
02:49:56.683,,-637,947,78
02:49:56.720,,-554,805,50
02:49:56.757,,-538,594,114
02:49:56.794,,-518,493,152
02:49:56.831,,-490,402,161
02:49:56.868,,-480,370,142
02:49:56.905,,-485,381,131
02:49:56.942,,-503,444,146
02:49:56.979,,-537,513,171
02:49:57.016,,-687,606,147
02:49:57.053,,-768,833,182
02:49:57.091,,-765,920,324
02:49:57.128,,-796,1081,264
02:49:57.165,,-688,1389,222
02:49:57.202,,-402,1339,293
02:49:57.239,,-245,1107,297
02:49:57.276,,-268,955,180
02:49:57.313,,-327,815,136
02:49:57.350,,-373,645,183
02:49:57.387,,-410,597,213
02:49:57.424,,-447,567,242
02:49:57.461,,-472,552,254
02:49:57.498,,-481,524,255
02:49:57.535,,-498,504,237
02:49:57.572,,-524,593,222
02:49:57.609,,-600,857,226
02:49:57.646,,-582,1020,266
02:49:57.683,,-694,1010,257
02:49:57.721,,-768,1183,169
02:49:57.758,,-710,1136,130
02:49:57.795,,-631,921,118
02:49:57.832,,-669,948,59
02:49:57.869,,-591,956,11
02:49:57.906,,-473,795,17
02:49:57.943,,-413,626,35
02:49:57.980,,-404,501,39
02:49:58.017,,-413,450,31
02:49:58.054,,-434,460,26
02:49:58.091,,-474,566,47
02:49:58.128,,-523,671,109
02:49:58.165,,-647,877,128
02:49:58.202,,-659,1108,193
02:49:58.239,,-608,1125,287
02:49:58.276,,-617,1224,261
02:49:58.313,,-490,1463,282
02:49:58.351,,-181,1253,322
02:49:58.388,,-174,1025,226
02:49:58.425,,-200,935,157
02:49:58.462,,-222,779,176
02:49:58.499,,-278,757,200
02:49:58.536,,-299,717,222
02:49:58.573,,-310,596,243
02:49:58.610,,-346,537,256
02:49:58.647,,-389,546,275
02:49:58.684,,-420,549,272
02:49:58.721,,-527,655,284
02:49:58.758,,-566,906,310
02:49:58.795,,-530,916,321
02:49:58.832,,-637,950,278
02:49:58.869,,-683,1068,241
02:49:58.906,,-625,1119,222
02:49:58.943,,-510,985,209
02:49:58.981,,-569,915,125
02:49:59.018,,-548,941,78
02:49:59.055,,-480,862,43
02:49:59.092,,-435,766,38
02:49:59.129,,-445,646,59
02:49:59.166,,-477,565,55
02:49:59.203,,-517,500,38
02:49:59.240,,-587,505,23
02:49:59.277,,-629,573,38
02:49:59.314,,-643,671,56
02:49:59.351,,-692,868,58
02:49:59.388,,-660,1027,133
02:49:59.425,,-603,896,201
02:49:59.462,,-693,1091,147
02:49:59.499,,-587,1335,206
02:49:59.536,,-315,1204,307
02:49:59.573,,-266,1025,304
02:49:59.611,,-327,964,255
02:49:59.648,,-286,821,216
02:49:59.685,,-294,756,224
02:49:59.722,,-297,684,219
02:49:59.759,,-307,559,198
02:49:59.796,,-330,511,220
02:49:59.833,,-369,542,233
02:49:59.870,,-404,550,246
02:49:59.907,,-457,628,257
02:49:59.944,,-560,853,286
02:49:59.981,,-576,1042,315
02:50:00.018,,-610,1037,318
02:50:00.055,,-680,1162,272
02:50:00.092,,-669,1237,225
02:50:00.129,,-509,1059,180
02:50:00.166,,-462,830,126
02:50:00.204,,-489,790,61
02:50:00.241,,-468,770,29
02:50:00.278,,-434,708,-1
02:50:00.315,,-432,659,27
02:50:00.352,,-474,628,73
02:50:00.389,,-513,599,70
02:50:00.426,,-560,595,81
02:50:00.463,,-582,644,111
02:50:00.500,,-610,732,113
02:50:00.537,,-674,1002,111
02:50:00.574,,-594,1196,221
02:50:00.611,,-512,1035,292
02:50:00.648,,-566,1124,223
02:50:00.685,,-441,1256,329
02:50:00.722,,-286,1035,391
02:50:00.760,,-349,943,308
02:50:00.797,,-376,871,242
02:50:00.834,,-387,786,242
02:50:00.871,,-373,701,234
02:50:00.908,,-339,574,248
02:50:00.945,,-353,463,222
02:50:00.982,,-403,432,173
02:50:01.019,,-448,469,181
02:50:01.056,,-522,544,186
02:50:01.093,,-601,783,204
02:50:01.130,,-567,1055,268
02:50:01.167,,-629,950,314
02:50:01.204,,-745,1119,257
02:50:01.241,,-730,1295,201
02:50:01.278,,-523,1140,203
02:50:01.315,,-475,980,154
02:50:01.352,,-478,887,81
02:50:01.390,,-454,792,70
02:50:01.427,,-422,688,76
02:50:01.464,,-427,592,73
02:50:01.501,,-454,532,62
02:50:01.538,,-504,551,78
02:50:01.575,,-527,548,131
02:50:01.612,,-544,578,153
02:50:01.649,,-625,666,137
02:50:01.686,,-718,902,146
02:50:01.723,,-651,1085,243
02:50:01.760,,-637,1150,303
02:50:01.797,,-613,1326,285
02:50:01.834,,-396,1338,295
02:50:01.871,,-211,1059,310
02:50:01.908,,-242,930,227
02:50:01.945,,-255,798,174
02:50:01.983,,-266,670,191
02:50:02.020,,-336,559,197
02:50:02.057,,-376,513,195
02:50:02.094,,-420,562,226
02:50:02.131,,-464,586,254
02:50:02.168,,-508,635,251
02:50:02.205,,-600,791,267
02:50:02.242,,-636,1025,275
02:50:02.279,,-651,970,259
02:50:02.316,,-745,1004,246
02:50:02.353,,-784,1227,210
02:50:02.390,,-650,1229,196
02:50:02.427,,-523,966,163
02:50:02.464,,-494,924,114
02:50:02.501,,-415,772,99
02:50:02.538,,-360,582,92
02:50:02.576,,-354,509,116
02:50:02.613,,-380,471,132
02:50:02.650,,-425,455,116
02:50:02.687,,-489,482,106
02:50:02.724,,-569,565,125
02:50:02.761,,-660,702,164
02:50:02.798,,-804,976,205
02:50:02.835,,-727,1109,295
02:50:02.872,,-730,1103,313
02:50:02.909,,-707,1398,253
02:50:02.946,,-452,1429,271
02:50:02.983,,-216,1131,306
02:50:03.020,,-203,944,245
02:50:03.057,,-209,831,176
02:50:03.094,,-228,720,181
02:50:03.131,,-279,717,216
02:50:03.168,,-331,652,250
02:50:03.206,,-361,547,262
02:50:03.243,,-417,514,267
02:50:03.280,,-468,512,300
02:50:03.317,,-497,535,312
02:50:03.354,,-608,592,305
02:50:03.391,,-666,846,334
02:50:03.428,,-669,980,374
02:50:03.465,,-777,966,360
02:50:03.502,,-852,1098,321
02:50:03.539,,-706,1082,302
02:50:03.576,,-633,802,195
02:50:03.613,,-644,724,134
02:50:03.650,,-565,688,136
02:50:03.687,,-502,621,158
02:50:03.724,,-492,566,193
02:50:03.761,,-531,559,205
02:50:03.798,,-550,496,232
02:50:03.836,,-582,438,227
02:50:03.873,,-606,469,250
02:50:03.910,,-661,528,265
02:50:03.947,,-767,658,255
02:50:03.984,,-765,861,320
02:50:04.021,,-787,843,356
02:50:04.058,,-839,925,342
02:50:04.095,,-719,1223,317
02:50:04.132,,-485,1094,342
02:50:04.169,,-312,919,300
02:50:04.206,,-319,901,285
02:50:04.243,,-297,818,247
02:50:04.280,,-339,771,268
02:50:04.317,,-387,692,276
02:50:04.354,,-389,637,311
02:50:04.391,,-404,572,317
02:50:04.428,,-419,520,311
02:50:04.465,,-420,551,329
02:50:04.503,,-438,541,341
02:50:04.540,,-508,621,340
02:50:04.577,,-613,788,342
02:50:04.614,,-624,886,350
02:50:04.651,,-731,824,334
02:50:04.688,,-929,1038,263
02:50:04.725,,-876,1279,121
02:50:04.762,,-661,1043,122
02:50:04.799,,-607,788,97
02:50:04.836,,-599,892,36
02:50:04.873,,-522,789,27
02:50:04.910,,-478,599,67
02:50:04.947,,-488,566,133
02:50:04.984,,-496,508,162
02:50:05.021,,-520,495,147
02:50:05.058,,-547,505,130
02:50:05.095,,-559,581,161
02:50:05.132,,-607,622,180
02:50:05.170,,-752,822,191
02:50:05.207,,-750,1023,263
02:50:05.244,,-728,936,387
02:50:05.281,,-818,1016,305
02:50:05.318,,-747,1371,272
02:50:05.355,,-399,1195,321
02:50:05.392,,-253,812,300
02:50:05.429,,-287,852,208
02:50:05.466,,-271,817,183
02:50:05.503,,-314,684,201
02:50:05.540,,-365,677,251
02:50:05.577,,-385,602,290
02:50:05.614,,-389,485,281
02:50:05.651,,-397,464,265
02:50:05.688,,-421,494,280
02:50:05.725,,-502,583,290
02:50:05.762,,-702,838,326
02:50:05.799,,-749,1139,367
02:50:05.837,,-785,975,404
02:50:05.874,,-925,1078,308
02:50:05.911,,-889,1168,253
02:50:05.948,,-728,976,205
02:50:05.985,,-622,699,86
02:50:06.022,,-653,644,-7
02:50:06.059,,-607,629,-42
02:50:06.096,,-499,559,-11
02:50:06.133,,-436,472,62
02:50:06.170,,-435,414,97
02:50:06.207,,-463,420,142
02:50:06.244,,-518,467,164
02:50:06.281,,-570,553,189
02:50:06.318,,-701,765,203
02:50:06.355,,-788,1120,280
02:50:06.392,,-774,1083,392
02:50:06.429,,-849,1083,372
02:50:06.466,,-835,1276,342
02:50:06.504,,-550,1159,388
02:50:06.541,,-419,910,318
02:50:06.578,,-410,802,172
02:50:06.615,,-383,704,145
02:50:06.652,,-354,592,160
02:50:06.689,,-343,515,191
02:50:06.726,,-340,464,205
02:50:06.763,,-379,381,229
02:50:06.800,,-438,427,272
02:50:06.837,,-545,504,333
02:50:06.874,,-679,730,380
02:50:06.911,,-694,1094,432
02:50:06.948,,-642,934,369
02:50:06.985,,-737,916,247
02:50:07.022,,-763,1066,191
02:50:07.059,,-663,1062,153
02:50:07.096,,-621,817,89
02:50:07.134,,-648,885,42
02:50:07.171,,-585,845,82
02:50:07.208,,-505,672,102
02:50:07.245,,-489,546,107
02:50:07.282,,-492,582,165
02:50:07.319,,-520,525,188
02:50:07.356,,-545,526,141
02:50:07.393,,-544,596,163
02:50:07.430,,-544,648,170
02:50:07.467,,-616,796,142
02:50:07.504,,-645,1039,172
02:50:07.541,,-573,1168,287
02:50:07.578,,-539,1231,316
02:50:07.615,,-427,1326,276
02:50:07.652,,-198,1223,344
02:50:07.689,,-224,936,258
02:50:07.727,,-338,890,173
02:50:07.764,,-358,853,160
02:50:07.801,,-352,739,180
02:50:07.838,,-356,667,208
02:50:07.875,,-346,554,220
02:50:07.912,,-359,484,226
02:50:07.949,,-396,515,226
02:50:07.986,,-404,572,230
02:50:08.023,,-447,717,231
02:50:08.060,,-527,975,240
02:50:08.097,,-534,1006,255
02:50:08.134,,-638,1079,224
02:50:08.171,,-749,1170,121
02:50:08.208,,-724,1260,84
02:50:08.245,,-616,1024,117
02:50:08.282,,-618,882,34
02:50:08.319,,-592,750,13
02:50:08.357,,-568,700,28
02:50:08.394,,-564,662,3
02:50:08.431,,-548,625,27
02:50:08.468,,-567,619,70
02:50:08.505,,-635,678,119
02:50:08.542,,-740,706,200
02:50:08.579,,-787,710,243
02:50:08.616,,-712,723,178
02:50:08.653,,-651,940,298
02:50:08.690,,-506,941,328
02:50:08.727,,-442,869,325
02:50:08.764,,-400,990,298
02:50:08.801,,-411,914,243
02:50:08.838,,-351,1039,352
02:50:08.875,,-186,914,295
02:50:08.912,,-154,751,196
02:50:08.950,,-213,832,217
02:50:08.987,,-239,731,223
02:50:09.024,,-288,733,226
02:50:09.061,,-317,797,285
02:50:09.098,,-352,666,236
02:50:09.135,,-413,594,250
02:50:09.172,,-465,726,334
02:50:09.209,,-344,757,254
02:50:09.246,,-366,803,202
02:50:09.283,,-514,1014,285
02:50:09.320,,-571,1046,297
02:50:09.357,,-599,1035,184
02:50:09.394,,-688,1123,174
02:50:09.431,,-631,1143,203
02:50:09.468,,-569,979,122
02:50:09.505,,-510,880,112
02:50:09.542,,-487,809,162
02:50:09.580,,-451,701,218
02:50:09.617,,-384,632,276
02:50:09.654,,-312,589,281
02:50:09.691,,-305,480,223
02:50:09.728,,-336,484,194
02:50:09.765,,-354,498,152
02:50:09.802,,-456,561,118
02:50:09.839,,-610,854,220
02:50:09.876,,-639,1149,478
02:50:09.913,,-580,1230,412
02:50:09.950,,-527,1399,408
02:50:09.987,,-464,1402,483
02:50:10.024,,-397,1208,371
02:50:10.061,,-404,1005,248
02:50:10.098,,-403,872,239
02:50:10.135,,-385,727,226
02:50:10.173,,-354,564,223
02:50:10.210,,-323,497,221
02:50:10.247,,-307,441,202
02:50:10.284,,-323,443,205
02:50:10.321,,-394,496,222
02:50:10.358,,-517,633,245
02:50:10.395,,-480,791,328
02:50:10.432,,-537,792,312
02:50:10.469,,-558,828,217
02:50:10.506,,-599,933,187
02:50:10.543,,-680,1091,168
02:50:10.580,,-628,1144,172
02:50:10.617,,-603,951,185
02:50:10.654,,-605,937,154
02:50:10.691,,-591,817,140
02:50:10.728,,-547,749,129
02:50:10.766,,-533,680,94
02:50:10.803,,-548,594,80
02:50:10.840,,-554,614,108
02:50:10.877,,-551,605,95
02:50:10.914,,-592,618,81
02:50:10.951,,-695,765,69
02:50:10.988,,-713,1121,118
02:50:11.025,,-523,1410,219
02:50:11.062,,-398,1284,159
02:50:11.099,,-311,1543,161
02:50:11.136,,-114,1361,348
02:50:11.173,,-140,848,260
02:50:11.210,,-193,807,236
02:50:11.247,,-191,734,234
02:50:11.284,,-186,594,194
02:50:11.322,,-216,521,162
02:50:11.359,,-255,511,147
02:50:11.396,,-311,477,151
02:50:11.433,,-394,517,166
02:50:11.470,,-480,594,185
02:50:11.507,,-576,784,236
02:50:11.544,,-590,996,285
02:50:11.581,,-627,1163,304
02:50:11.618,,-728,1240,252
02:50:11.655,,-720,1436,218
02:50:11.692,,-564,1277,217
02:50:11.729,,-509,967,154
02:50:11.766,,-489,893,70
02:50:11.803,,-426,786,20
02:50:11.840,,-339,643,-2
02:50:11.878,,-308,570,0
02:50:11.915,,-303,515,10
02:50:11.952,,-306,485,0
02:50:11.989,,-315,496,-2
02:50:12.026,,-355,605,32
02:50:12.063,,-493,829,75
02:50:12.100,,-567,1162,153
02:50:12.137,,-580,1231,285
02:50:12.174,,-630,1356,289
02:50:12.211,,-551,1581,304
02:50:12.248,,-251,1398,351
02:50:12.285,,-98,1053,291
02:50:12.322,,-146,903,179
02:50:12.359,,-141,797,107
02:50:12.396,,-146,651,114
02:50:12.433,,-192,586,141
02:50:12.471,,-230,511,166
02:50:12.508,,-270,434,195
02:50:12.545,,-353,486,223
02:50:12.582,,-438,599,247
02:50:12.619,,-522,691,241
02:50:12.656,,-643,984,228
02:50:12.693,,-683,1293,241
02:50:12.730,,-735,1359,206
02:50:12.767,,-607,1346,178
02:50:12.804,,-481,932,121
02:50:12.841,,-505,875,97
02:50:12.878,,-458,800,80
02:50:12.915,,-393,634,64
02:50:12.952,,-395,550,73
02:50:12.989,,-421,508,121
02:50:13.026,,-451,458,134
02:50:13.063,,-504,436,130
02:50:13.101,,-586,474,197
02:50:13.138,,-620,498,240
02:50:13.175,,-722,555,236
02:50:13.212,,-789,738,260
02:50:13.249,,-729,952,342
02:50:13.286,,-696,1041,387
02:50:13.323,,-660,1172,359
02:50:13.360,,-503,1214,334
02:50:13.397,,-384,1051,303
02:50:13.434,,-427,986,249
02:50:13.471,,-393,943,198
02:50:13.508,,-392,776,187
02:50:13.545,,-413,648,200
02:50:13.582,,-395,553,222
02:50:13.619,,-392,460,231
02:50:13.656,,-420,417,225
02:50:13.694,,-445,448,267
02:50:13.731,,-486,504,315
02:50:13.768,,-649,620,313
02:50:13.805,,-745,887,326
02:50:13.842,,-782,1013,338
02:50:13.879,,-937,1076,323
02:50:13.916,,-976,1186,245
02:50:13.953,,-814,1131,162
02:50:13.990,,-626,906,132
02:50:14.027,,-639,746,47
02:50:14.064,,-602,704,6
02:50:14.101,,-515,597,17
02:50:14.138,,-470,482,73
02:50:14.175,,-468,432,134
02:50:14.212,,-487,408,184
02:50:14.249,,-510,415,207
02:50:14.287,,-581,460,218
02:50:14.324,,-628,514,248
02:50:14.361,,-757,628,236
02:50:14.398,,-858,901,230
02:50:14.435,,-777,997,351
02:50:14.472,,-803,902,378
02:50:14.509,,-808,964,232
02:50:14.546,,-657,1205,182
02:50:14.583,,-416,1092,215
02:50:14.620,,-381,895,169
02:50:14.657,,-383,985,152
02:50:14.694,,-390,904,202
02:50:14.731,,-438,709,203
02:50:14.768,,-434,598,235
02:50:14.805,,-415,501,246
02:50:14.842,,-436,424,229
02:50:14.880,,-460,448,237
02:50:14.917,,-520,489,262
02:50:14.954,,-612,616,284
02:50:14.991,,-738,883,294
02:50:15.028,,-775,947,289
02:50:15.065,,-901,1012,337
02:50:15.102,,-1015,1223,288
02:50:15.139,,-879,1134,201
02:50:15.176,,-645,801,134
02:50:15.213,,-593,537,74
02:50:15.250,,-617,533,48
02:50:15.287,,-575,557,32
02:50:15.324,,-552,557,53
02:50:15.361,,-540,552,108
02:50:15.398,,-530,514,200
02:50:15.435,,-557,464,249
02:50:15.472,,-619,409,253
02:50:15.509,,-677,451,259
02:50:15.547,,-686,527,287
02:50:15.584,,-723,598,282
02:50:15.621,,-834,733,266
02:50:15.658,,-809,853,288
02:50:15.695,,-817,941,240
02:50:15.732,,-798,1307,192
02:50:15.769,,-522,1331,232
02:50:15.806,,-346,1102,247
02:50:15.843,,-399,1030,142
02:50:15.880,,-343,942,132
02:50:15.917,,-372,763,156
02:50:15.954,,-429,646,158
02:50:15.991,,-397,583,214
02:50:16.028,,-393,480,227
02:50:16.065,,-427,480,238
02:50:16.103,,-477,513,289
02:50:16.140,,-590,682,361
02:50:16.177,,-661,854,407
02:50:16.214,,-732,904,379
02:50:16.251,,-839,902,301
02:50:16.288,,-975,981,209
02:50:16.325,,-929,997,105
02:50:16.362,,-731,840,33
02:50:16.399,,-714,702,42
02:50:16.436,,-722,690,16
02:50:16.473,,-652,589,36
02:50:16.510,,-556,493,98
02:50:16.547,,-500,482,195
02:50:16.584,,-500,424,240
02:50:16.621,,-543,351,225
02:50:16.658,,-590,381,197
02:50:16.696,,-632,455,217
02:50:16.733,,-715,512,238
02:50:16.770,,-865,689,218
02:50:16.807,,-856,897,298
02:50:16.844,,-884,887,339
02:50:16.881,,-951,1066,265
02:50:16.918,,-725,1247,349
02:50:16.955,,-448,1031,381
02:50:16.992,,-394,827,241
02:50:17.029,,-403,880,178
02:50:17.066,,-415,803,211
02:50:17.103,,-501,710,211
02:50:17.140,,-489,604,244
02:50:17.177,,-473,511,251
02:50:17.214,,-478,486,239
02:50:17.251,,-491,435,241
02:50:17.288,,-515,409,260
02:50:17.326,,-600,474,269
02:50:17.363,,-720,569,244
02:50:17.400,,-802,753,232
02:50:17.437,,-797,907,250
02:50:17.474,,-913,1026,217
02:50:17.511,,-964,1088,144
02:50:17.548,,-854,1030,96
02:50:17.585,,-725,800,57
02:50:17.622,,-745,733,-4
02:50:17.659,,-690,664,-56
02:50:17.696,,-619,661,-29
02:50:17.733,,-586,598,22
02:50:17.770,,-547,514,68
02:50:17.807,,-537,437,102
02:50:17.844,,-529,420,106
02:50:17.881,,-544,439,114
02:50:17.918,,-599,505,83
02:50:17.956,,-685,789,37
02:50:17.993,,-678,1028,85
02:50:18.030,,-650,917,215
02:50:18.067,,-748,998,161
02:50:18.104,,-746,1298,101
02:50:18.141,,-497,1249,191
02:50:18.178,,-332,1057,213
02:50:18.215,,-365,975,163
02:50:18.252,,-333,835,126
02:50:18.289,,-332,658,133
02:50:18.326,,-362,607,133
02:50:18.363,,-371,621,177
02:50:18.400,,-397,563,213
02:50:18.437,,-432,563,220
02:50:18.474,,-467,592,234
02:50:18.511,,-509,633,228
02:50:18.548,,-559,819,231
02:50:18.586,,-574,1011,248
02:50:18.623,,-564,960,293
02:50:18.660,,-651,983,254
02:50:18.697,,-678,1163,134
02:50:18.734,,-547,1155,146
02:50:18.771,,-427,953,155
02:50:18.808,,-442,967,88
02:50:18.845,,-411,953,40
02:50:18.882,,-351,852,68
02:50:18.919,,-341,746,126
02:50:18.956,,-352,660,141
02:50:18.993,,-365,597,147
02:50:19.030,,-401,600,122
02:50:19.067,,-448,677,117
02:50:19.104,,-485,811,115
02:50:19.141,,-528,1036,115
02:50:19.178,,-472,1160,148
02:50:19.216,,-433,1069,212
02:50:19.253,,-477,1106,166
02:50:19.290,,-460,1256,127
02:50:19.327,,-279,1266,216
02:50:19.364,,-148,1008,276
02:50:19.401,,-161,789,237
02:50:19.438,,-177,652,171
02:50:19.475,,-221,649,152
02:50:19.512,,-266,733,160
02:50:19.549,,-289,725,184
02:50:19.586,,-311,701,218
02:50:19.623,,-348,690,258
02:50:19.660,,-387,688,299
02:50:19.697,,-424,709,317
02:50:19.734,,-461,820,324
02:50:19.771,,-455,929,318
02:50:19.808,,-440,930,279
02:50:19.846,,-519,855,257
02:50:19.883,,-648,1046,181
02:50:19.920,,-559,1565,99
02:50:19.957,,-326,1266,149
02:50:19.994,,-349,925,101
02:50:20.031,,-345,937,73
02:50:20.068,,-319,887,81
02:50:20.105,,-307,736,87
02:50:20.142,,-309,632,104
02:50:20.179,,-340,611,142
02:50:20.216,,-399,584,171
02:50:20.253,,-442,577,189
02:50:20.290,,-489,646,211
02:50:20.327,,-523,748,220
02:50:20.364,,-598,931,231
02:50:20.401,,-556,1070,301
02:50:20.438,,-554,1090,342
02:50:20.475,,-587,1174,277
02:50:20.513,,-405,1284,252
02:50:20.550,,-245,1195,328
02:50:20.587,,-144,1101,301
02:50:20.624,,-179,901,166
02:50:20.661,,-228,749,146
02:50:20.698,,-265,639,183
02:50:20.735,,-324,620,240
02:50:20.772,,-379,602,284
02:50:20.809,,-402,584,301
02:50:20.846,,-396,618,350
02:50:20.883,,-388,614,356
02:50:20.920,,-466,698,330
02:50:20.957,,-470,952,332
02:50:20.994,,-442,980,316
02:50:21.031,,-560,976,288
02:50:21.068,,-660,1057,260
02:50:21.105,,-605,1100,217
02:50:21.143,,-549,1057,177
02:50:21.180,,-505,1144,158
02:50:21.217,,-335,1001,175
02:50:21.254,,-282,636,182
02:50:21.291,,-315,528,180
02:50:21.328,,-373,524,180
02:50:21.365,,-418,544,159
02:50:21.402,,-441,600,178
02:50:21.439,,-407,566,227
02:50:21.476,,-417,543,209
02:50:21.513,,-541,840,229
02:50:21.550,,-616,1272,281
02:50:21.587,,-663,1596,354
02:50:21.624,,-570,1326,342
02:50:21.661,,-736,1381,340
02:50:21.698,,-405,1334,320
02:50:21.735,,-202,970,219
02:50:21.773,,-251,986,86
02:50:21.810,,-142,1124,76
02:50:21.847,,-60,1053,116
02:50:21.884,,-172,812,141
02:50:21.921,,-240,693,171
02:50:21.958,,-322,670,272
02:50:21.995,,-366,616,324
02:50:22.032,,-364,525,307
02:50:22.069,,-381,463,310
02:50:22.106,,-431,479,328
02:50:22.143,,-501,441,324
02:50:22.180,,-578,462,315
02:50:22.217,,-634,523,314
02:50:22.254,,-718,724,332
02:50:22.291,,-770,966,375
02:50:22.328,,-745,977,361
02:50:22.365,,-747,981,324
02:50:22.402,,-688,983,284
02:50:22.440,,-602,734,175
02:50:22.477,,-637,709,109
02:50:22.514,,-632,778,94
02:50:22.551,,-566,796,71
02:50:22.588,,-475,793,80
02:50:22.625,,-439,743,132
02:50:22.662,,-460,627,158
02:50:22.699,,-489,597,202
02:50:22.736,,-512,622,237
02:50:22.773,,-518,663,288
02:50:22.810,,-534,732,325
02:50:22.847,,-574,787,332
02:50:22.884,,-607,850,336
02:50:22.921,,-621,944,358
02:50:22.958,,-615,1070,358
02:50:22.995,,-574,1266,361
02:50:23.032,,-404,1179,358
02:50:23.070,,-310,872,281
02:50:23.107,,-345,765,247
02:50:23.144,,-359,711,250
02:50:23.181,,-382,702,263
02:50:23.218,,-411,695,293
02:50:23.255,,-429,641,324
02:50:23.292,,-453,588,336
02:50:23.329,,-452,575,349
02:50:23.366,,-448,573,357
02:50:23.403,,-461,547,351
02:50:23.440,,-498,554,338
02:50:23.477,,-571,825,358
02:50:23.514,,-531,832,362
02:50:23.551,,-640,811,326
02:50:23.588,,-753,900,295
02:50:23.626,,-761,1171,266
02:50:23.663,,-598,1121,242
02:50:23.700,,-593,1056,217
02:50:23.737,,-532,1058,222
02:50:23.774,,-445,910,232
02:50:23.811,,-401,741,188
02:50:23.848,,-384,671,195
02:50:23.885,,-396,590,192
02:50:23.922,,-400,538,188
02:50:23.959,,-454,528,198
02:50:23.996,,-499,557,248
02:50:24.033,,-541,613,298
02:50:24.070,,-636,697,314
02:50:24.107,,-683,854,349
02:50:24.144,,-734,1000,405
02:50:24.181,,-681,1180,420
02:50:24.218,,-426,1254,394
02:50:24.255,,-188,1111,399
02:50:24.293,,-217,837,288
02:50:24.330,,-329,747,224
02:50:24.367,,-483,724,301
02:50:24.404,,-604,710,320
02:50:24.441,,-680,679,345
02:50:24.478,,-701,637,345
02:50:24.515,,-678,572,289
02:50:24.552,,-665,568,287
02:50:24.589,,-632,612,307
02:50:24.626,,-657,624,276
02:50:24.663,,-757,780,270
02:50:24.700,,-642,778,343
02:50:24.737,,-684,788,364
02:50:24.774,,-795,614,406
02:50:24.811,,-835,580,349
02:50:24.848,,-818,585,273
02:50:24.885,,-866,589,211
02:50:24.923,,-778,625,230
02:50:24.960,,-658,614,296
02:50:24.997,,-617,489,359
02:50:25.034,,-610,394,385
02:50:25.071,,-639,370,372
02:50:25.108,,-656,318,350
02:50:25.145,,-702,347,347
02:50:25.182,,-730,390,353
02:50:25.219,,-867,369,374
02:50:25.256,,-935,382,424
02:50:25.293,,-945,506,458
02:50:25.330,,-946,566,507
02:50:25.367,,-818,645,502
02:50:25.404,,-668,738,445
02:50:25.441,,-563,810,408
02:50:25.478,,-523,780,402
02:50:25.515,,-492,661,409
02:50:25.553,,-549,534,390
02:50:25.590,,-676,473,368
02:50:25.627,,-711,466,359
02:50:25.664,,-709,450,338
02:50:25.701,,-704,389,323
02:50:25.738,,-696,393,358
02:50:25.775,,-701,385,382
02:50:25.812,,-710,382,344
02:50:25.849,,-841,525,257
02:50:25.886,,-856,674,263
02:50:25.923,,-939,764,276
02:50:25.960,,-1133,790,274
02:50:25.997,,-1094,899,236
02:50:26.034,,-862,646,207
02:50:26.071,,-903,606,75
02:50:26.108,,-799,672,25
02:50:26.145,,-626,692,72
02:50:26.183,,-564,578,110
02:50:26.220,,-568,505,174
02:50:26.257,,-593,425,236
02:50:26.294,,-641,408,229
02:50:26.331,,-699,440,224
02:50:26.368,,-741,480,258
02:50:26.405,,-865,583,287
02:50:26.442,,-903,609,280
02:50:26.479,,-966,706,305
02:50:26.516,,-1061,846,323
02:50:26.553,,-866,1033,360
02:50:26.590,,-551,1051,366
02:50:26.627,,-454,784,298
02:50:26.664,,-456,726,274
02:50:26.701,,-511,672,290
02:50:26.738,,-597,510,290
02:50:26.776,,-674,477,292
02:50:26.813,,-677,423,278
02:50:26.850,,-670,381,242
02:50:26.887,,-667,400,278
02:50:26.924,,-691,432,333
02:50:26.961,,-726,434,352
02:50:26.998,,-830,522,303
02:50:27.035,,-864,734,303
02:50:27.072,,-832,763,335
02:50:27.109,,-957,667,380
02:50:27.146,,-1091,678,274
02:50:27.183,,-935,637,124
02:50:27.220,,-907,570,31
02:50:27.257,,-815,626,24
02:50:27.294,,-652,719,149
02:50:27.331,,-579,597,231
02:50:27.369,,-577,507,291
02:50:27.406,,-568,479,316
02:50:27.443,,-599,476,285
02:50:27.480,,-631,471,297
02:50:27.517,,-655,483,319
02:50:27.554,,-790,533,294
02:50:27.591,,-873,577,320
02:50:27.628,,-999,691,323
02:50:27.665,,-1114,796,371
02:50:27.702,,-806,1077,418
02:50:27.739,,-498,922,382
02:50:27.776,,-341,667,304
02:50:27.813,,-364,673,273
02:50:27.850,,-511,612,281
02:50:27.887,,-659,583,314
02:50:27.925,,-726,607,304
02:50:27.962,,-680,511,272
02:50:27.999,,-667,457,253
02:50:28.036,,-656,471,258
02:50:28.073,,-630,432,335
02:50:28.110,,-718,493,326
02:50:28.147,,-876,647,263
02:50:28.184,,-832,738,278
02:50:28.221,,-883,791,268
02:50:28.258,,-1063,810,236
02:50:28.295,,-947,836,190
02:50:28.332,,-764,569,104
02:50:28.369,,-762,552,9
02:50:28.406,,-671,678,38
02:50:28.443,,-548,779,63
02:50:28.480,,-484,652,90
02:50:28.517,,-486,564,153
02:50:28.555,,-514,519,209
02:50:28.592,,-600,488,180
02:50:28.629,,-675,557,140
02:50:28.666,,-673,657,148
02:50:28.703,,-708,666,122
02:50:28.740,,-777,751,108
02:50:28.777,,-776,923,138
02:50:28.814,,-797,1135,208
02:50:28.851,,-737,1208,224
02:50:28.888,,-473,1184,245
02:50:28.925,,-297,1099,265
02:50:28.962,,-324,971,226
02:50:28.999,,-284,798,184
02:50:29.036,,-313,619,152
02:50:29.073,,-380,522,156
02:50:29.110,,-430,569,203
02:50:29.148,,-479,557,226
02:50:29.185,,-514,574,239
02:50:29.222,,-521,610,278
02:50:29.259,,-541,631,286
02:50:29.296,,-598,681,260
02:50:29.333,,-657,966,288
02:50:29.370,,-571,1125,322
02:50:29.407,,-631,1005,333
02:50:29.444,,-697,942,301
02:50:29.481,,-701,993,204
02:50:29.518,,-687,1011,154
02:50:29.555,,-648,1108,95
02:50:29.592,,-460,1041,110
02:50:29.629,,-321,786,151
02:50:29.666,,-276,634,166
02:50:29.703,,-292,513,174
02:50:29.741,,-319,497,141
02:50:29.778,,-347,578,152
02:50:29.815,,-372,621,177
02:50:29.852,,-463,711,155
02:50:29.889,,-560,864,168
02:50:29.926,,-588,1007,237
02:50:29.963,,-656,1335,303
02:50:30.000,,-483,1534,398
02:50:30.037,,-187,1313,461
02:50:30.074,,-184,998,355
02:50:30.111,,-158,865,210
02:50:30.148,,-169,736,183
02:50:30.185,,-216,665,194
02:50:30.222,,-283,618,221
02:50:30.259,,-340,514,215
02:50:30.296,,-409,498,213
02:50:30.334,,-470,563,252
02:50:30.371,,-493,617,281
02:50:30.408,,-591,742,262
02:50:30.445,,-618,1164,306
02:50:30.482,,-551,1242,316
02:50:30.519,,-588,1206,256
02:50:30.556,,-597,1229,215
02:50:30.593,,-500,995,195
02:50:30.630,,-544,904,128
02:50:30.667,,-484,1051,116
02:50:30.704,,-355,921,116
02:50:30.741,,-284,700,133
02:50:30.778,,-268,593,162
02:50:30.815,,-282,534,164
02:50:30.852,,-324,501,153
02:50:30.889,,-392,567,170
02:50:30.927,,-453,677,220
02:50:30.964,,-535,731,238
02:50:31.001,,-638,859,249
02:50:31.038,,-658,1001,265
02:50:31.075,,-630,1242,285
02:50:31.112,,-524,1433,297
02:50:31.149,,-202,1331,336
02:50:31.186,,-69,1035,306
02:50:31.223,,-91,935,178
02:50:31.260,,-78,840,106
02:50:31.297,,-149,675,160
02:50:31.334,,-242,616,213
02:50:31.371,,-307,610,231
02:50:31.408,,-387,577,236
02:50:31.445,,-434,644,248
02:50:31.483,,-449,729,276
02:50:31.520,,-471,715,271
02:50:31.557,,-557,824,244
02:50:31.594,,-560,1157,264
02:50:31.631,,-482,1207,249
02:50:31.668,,-538,1184,217
02:50:31.705,,-556,1200,203
02:50:31.742,,-455,960,184
02:50:31.779,,-505,907,123
02:50:31.816,,-456,1062,91
02:50:31.853,,-343,994,86
02:50:31.890,,-303,759,122
02:50:31.927,,-290,663,157
02:50:31.964,,-282,561,160
02:50:32.001,,-301,500,153
02:50:32.038,,-337,554,171
02:50:32.076,,-370,631,199
02:50:32.113,,-462,749,201
02:50:32.150,,-541,920,216
02:50:32.187,,-556,1164,279
02:50:32.224,,-586,1359,330
02:50:32.261,,-447,1474,388
02:50:32.298,,-148,1359,407
02:50:32.335,,-78,1056,297
02:50:32.372,,-77,870,157
02:50:32.409,,-117,752,149
02:50:32.446,,-159,664,173
02:50:32.483,,-221,564,195
02:50:32.520,,-278,518,221
02:50:32.557,,-341,538,248
02:50:32.594,,-391,594,282
02:50:32.632,,-429,617,296
02:50:32.669,,-505,712,285
02:50:32.706,,-603,973,304
02:50:32.743,,-536,1313,330
02:50:32.780,,-510,1311,290
02:50:32.817,,-528,1354,261
02:50:32.854,,-435,1166,240
02:50:32.891,,-410,810,165
02:50:32.928,,-448,849,140
02:50:32.965,,-382,931,126
02:50:33.002,,-316,811,79
02:50:33.039,,-300,698,104
02:50:33.076,,-310,675,122
02:50:33.113,,-343,606,129
02:50:33.150,,-400,631,157
02:50:33.187,,-461,715,179
02:50:33.224,,-495,738,189
02:50:33.262,,-601,827,205
02:50:33.299,,-589,976,263
02:50:33.336,,-561,1034,301
02:50:33.373,,-529,1145,276
02:50:33.410,,-439,1293,278
02:50:33.447,,-288,1167,283
02:50:33.484,,-198,974,250
02:50:33.521,,-172,887,193
02:50:33.558,,-173,824,123
02:50:33.595,,-224,720,126
02:50:33.632,,-273,692,172
02:50:33.669,,-318,658,217
02:50:33.706,,-367,595,224
02:50:33.743,,-415,638,259
02:50:33.780,,-447,711,307
02:50:33.817,,-477,728,322
02:50:33.855,,-523,826,310
02:50:33.892,,-538,994,305
02:50:33.929,,-475,1127,302
02:50:33.966,,-509,1093,294
02:50:34.003,,-566,1105,253
02:50:34.040,,-496,1055,219
02:50:34.077,,-477,898,175
02:50:34.114,,-478,910,111
02:50:34.151,,-420,957,89
02:50:34.188,,-349,909,94
02:50:34.225,,-300,678,147
02:50:34.262,,-288,627,158
02:50:34.299,,-296,622,167
02:50:34.336,,-312,670,172
02:50:34.373,,-378,753,178
02:50:34.410,,-474,882,178
02:50:34.448,,-498,1026,233
02:50:34.485,,-541,1156,333
02:50:34.522,,-549,1463,366
02:50:34.559,,-315,1438,453
02:50:34.596,,-197,1095,447
02:50:34.633,,-147,901,327
02:50:34.670,,-144,722,211
02:50:34.707,,-196,584,166
02:50:34.744,,-265,557,180
02:50:34.781,,-323,544,195
02:50:34.818,,-404,509,202
02:50:34.855,,-458,600,245
02:50:34.892,,-481,689,333
02:50:34.929,,-500,709,390
02:50:34.966,,-595,795,380
02:50:35.003,,-623,1025,394
02:50:35.041,,-477,1066,373
02:50:35.078,,-563,949,330
02:50:35.115,,-657,939,269
02:50:35.152,,-616,942,212
02:50:35.189,,-563,814,185
02:50:35.226,,-594,865,154
02:50:35.263,,-520,1183,159
02:50:35.300,,-358,1076,149
02:50:35.337,,-270,834,165
02:50:35.374,,-272,713,194
02:50:35.411,,-297,561,205
02:50:35.448,,-364,470,189
02:50:35.485,,-410,511,218
02:50:35.522,,-462,573,259
02:50:35.559,,-548,676,244
02:50:35.596,,-617,846,260
02:50:35.634,,-603,1038,294
02:50:35.671,,-602,1239,339
02:50:35.708,,-414,1345,343
02:50:35.745,,-114,1172,374
02:50:35.782,,-97,920,310
02:50:35.819,,-102,975,183
02:50:35.856,,-118,848,155
02:50:35.893,,-233,728,237
02:50:35.930,,-311,746,284
02:50:35.967,,-348,689,307
02:50:36.004,,-377,584,285
02:50:36.041,,-399,625,293
02:50:36.078,,-419,637,297
02:50:36.115,,-477,656,258
02:50:36.152,,-539,884,273
02:50:36.190,,-556,1070,290
02:50:36.227,,-592,1395,277
02:50:36.264,,-510,1565,251
02:50:36.301,,-388,1142,225
02:50:36.338,,-452,947,142
02:50:36.375,,-472,1010,111
02:50:36.412,,-379,932,73
02:50:36.449,,-318,783,80
02:50:36.486,,-313,673,133
02:50:36.523,,-316,593,132
02:50:36.560,,-330,527,127
02:50:36.597,,-339,537,156
02:50:36.634,,-353,603,177
02:50:36.671,,-403,686,196
02:50:36.708,,-465,810,233
02:50:36.745,,-493,1023,335
02:50:36.783,,-537,1219,431
02:50:36.820,,-372,1358,468
02:50:36.857,,-99,1266,472
02:50:36.894,,-154,1117,431
02:50:36.931,,-167,1043,262
02:50:36.968,,-244,757,135
02:50:37.005,,-328,634,139
02:50:37.042,,-393,614,182
02:50:37.079,,-423,569,186
02:50:37.116,,-461,581,185
02:50:37.153,,-461,619,237
02:50:37.190,,-507,645,246
02:50:37.227,,-617,857,266
02:50:37.264,,-585,1178,312
02:50:37.301,,-605,1140,278
02:50:37.338,,-728,1059,238
02:50:37.376,,-643,964,196
02:50:37.413,,-656,777,157
02:50:37.450,,-695,837,96
02:50:37.487,,-594,926,103
02:50:37.524,,-517,886,160
02:50:37.561,,-512,724,176
02:50:37.598,,-494,564,197
02:50:37.635,,-495,521,258
02:50:37.672,,-504,486,270
02:50:37.709,,-509,448,256
02:50:37.746,,-612,554,271
02:50:37.783,,-645,662,333
02:50:37.820,,-670,761,354
02:50:37.857,,-771,880,432
02:50:37.894,,-652,1143,571
02:50:37.931,,-411,1159,574
02:50:37.969,,-439,891,527
02:50:38.006,,-443,706,453
02:50:38.043,,-524,653,402
02:50:38.080,,-552,578,411
02:50:38.117,,-529,491,402
02:50:38.154,,-546,400,375
02:50:38.191,,-553,388,373
02:50:38.228,,-563,384,386
02:50:38.265,,-600,384,413
02:50:38.302,,-691,465,424
02:50:38.339,,-774,670,474
02:50:38.376,,-685,681,483
02:50:38.413,,-798,647,472
02:50:38.450,,-1020,680,377
02:50:38.487,,-973,757,293
02:50:38.524,,-801,652,233
02:50:38.562,,-867,696,157
02:50:38.599,,-734,766,144
02:50:38.636,,-574,719,211
02:50:38.673,,-547,585,227
02:50:38.710,,-557,425,252
02:50:38.747,,-590,461,266
02:50:38.784,,-645,456,208
02:50:38.821,,-670,497,208
02:50:38.858,,-700,534,242
02:50:38.895,,-781,566,260
02:50:38.932,,-803,658,298
02:50:38.969,,-810,788,307
02:50:39.006,,-751,995,331
02:50:39.043,,-606,1141,363
02:50:39.080,,-496,1130,346
02:50:39.118,,-418,960,295
02:50:39.155,,-448,940,245
02:50:39.192,,-379,828,234
02:50:39.229,,-407,684,234
02:50:39.266,,-473,585,250
02:50:39.303,,-480,538,294
02:50:39.340,,-508,502,303
02:50:39.377,,-542,521,314
02:50:39.414,,-549,534,361
02:50:39.451,,-579,525,378
02:50:39.488,,-710,625,338
02:50:39.525,,-801,817,290
02:50:39.562,,-827,894,257
02:50:39.599,,-902,854,278
02:50:39.636,,-1015,828,218
02:50:39.674,,-849,809,146
02:50:39.711,,-813,756,109
02:50:39.748,,-714,797,88
02:50:39.785,,-536,803,121
02:50:39.822,,-467,624,145
02:50:39.859,,-504,499,164
02:50:39.896,,-518,473,190
02:50:39.933,,-569,462,172
02:50:39.970,,-627,479,170
02:50:40.007,,-644,566,231
02:50:40.044,,-803,690,252
02:50:40.081,,-806,791,300
02:50:40.118,,-862,848,338
02:50:40.155,,-873,992,307
02:50:40.192,,-654,1107,290
02:50:40.229,,-416,1017,287
02:50:40.267,,-392,936,247
02:50:40.304,,-392,902,228
02:50:40.341,,-386,776,272
02:50:40.378,,-436,613,304
02:50:40.415,,-459,557,316
02:50:40.452,,-462,514,315
02:50:40.489,,-464,526,306
02:50:40.526,,-511,549,345
02:50:40.563,,-518,591,403
02:50:40.600,,-643,632,385
02:50:40.637,,-724,818,343
02:50:40.674,,-652,859,322
02:50:40.711,,-803,821,246
02:50:40.748,,-940,979,221
02:50:40.785,,-830,972,185
02:50:40.823,,-792,839,92
02:50:40.860,,-701,835,40
02:50:40.897,,-510,776,102
02:50:40.934,,-409,617,145
02:50:40.971,,-438,530,173
02:50:41.008,,-480,551,185
02:50:41.045,,-503,577,171
02:50:41.082,,-547,609,178
02:50:41.119,,-594,662,213
02:50:41.156,,-660,702,244
02:50:41.193,,-751,789,253
02:50:41.230,,-757,817,264
02:50:41.267,,-806,887,252
02:50:41.304,,-730,1033,210
02:50:41.341,,-498,1163,253
02:50:41.378,,-294,993,332
02:50:41.416,,-330,926,326
02:50:41.453,,-302,908,286
02:50:41.490,,-333,790,289
02:50:41.527,,-396,664,298
02:50:41.564,,-418,584,315
02:50:41.601,,-427,533,292
02:50:41.638,,-432,569,260
02:50:41.675,,-416,628,285
02:50:41.712,,-423,601,315
02:50:41.749,,-496,679,304
02:50:41.786,,-562,867,279
02:50:41.823,,-593,1016,233
02:50:41.860,,-711,1132,189
02:50:41.897,,-751,1262,172
02:50:41.934,,-599,1094,107
02:50:41.972,,-617,1016,24
02:50:42.009,,-526,1001,14
02:50:42.046,,-462,791,70
02:50:42.083,,-446,610,137
02:50:42.120,,-449,529,158
02:50:42.157,,-456,505,139
02:50:42.194,,-475,569,121
02:50:42.231,,-467,635,156
02:50:42.268,,-530,716,161
02:50:42.305,,-616,876,162
02:50:42.342,,-604,905,220
02:50:42.379,,-714,903,251
02:50:42.416,,-809,1057,204
02:50:42.453,,-668,1199,188
02:50:42.490,,-349,1073,279
02:50:42.527,,-313,910,316
02:50:42.564,,-245,833,228
02:50:42.602,,-281,841,185
02:50:42.639,,-350,713,233
02:50:42.676,,-380,606,246
02:50:42.713,,-405,565,243
02:50:42.750,,-417,607,251
02:50:42.787,,-430,638,277
02:50:42.824,,-466,650,307
02:50:42.861,,-560,735,289
02:50:42.898,,-588,917,265
02:50:42.935,,-588,1021,227
02:50:42.972,,-707,1119,182
02:50:43.009,,-759,1207,172
02:50:43.046,,-616,1037,113
02:50:43.083,,-595,886,30
02:50:43.120,,-538,874,-10
02:50:43.157,,-478,774,7
02:50:43.194,,-476,679,57
02:50:43.232,,-486,607,94
02:50:43.269,,-502,576,108
02:50:43.306,,-500,601,131
02:50:43.343,,-487,592,160
02:50:43.380,,-514,590,187
02:50:43.417,,-613,669,187
02:50:43.454,,-699,815,186
02:50:43.491,,-742,904,201
02:50:43.528,,-792,1001,228
02:50:43.565,,-741,1009,206
02:50:43.602,,-555,995,167
02:50:43.639,,-403,952,203
02:50:43.676,,-360,1018,195
02:50:43.713,,-353,949,211
02:50:43.750,,-414,750,209
02:50:43.787,,-443,611,235
02:50:43.824,,-447,574,263
02:50:43.862,,-455,559,245
02:50:43.899,,-442,562,241
02:50:43.936,,-428,601,255
02:50:43.973,,-481,610,269
02:50:44.010,,-644,812,242
02:50:44.047,,-675,1028,246
02:50:44.084,,-769,988,230
02:50:44.121,,-860,1012,209
02:50:44.158,,-860,1082,163
02:50:44.195,,-723,866,47
02:50:44.232,,-734,843,-50
02:50:44.269,,-618,846,-33
02:50:44.306,,-503,692,30
02:50:44.343,,-482,557,79
02:50:44.380,,-478,489,121
02:50:44.417,,-487,470,142
02:50:44.455,,-496,504,158
02:50:44.492,,-502,612,204
02:50:44.529,,-608,734,229
02:50:44.566,,-649,861,255
02:50:44.603,,-699,890,299
02:50:44.640,,-787,1054,327
02:50:44.677,,-666,1206,315
02:50:44.714,,-406,1028,277
02:50:44.751,,-376,924,236
02:50:44.788,,-373,878,154
02:50:44.825,,-399,761,139
02:50:44.862,,-455,633,181
02:50:44.899,,-518,583,226
02:50:44.936,,-539,552,260
02:50:44.973,,-528,587,266
02:50:45.010,,-515,597,295
02:50:45.047,,-578,627,275
02:50:45.085,,-713,827,230
02:50:45.122,,-710,1010,196
02:50:45.159,,-754,909,176
02:50:45.196,,-939,1022,124
02:50:45.233,,-847,965,52
02:50:45.270,,-815,1011,3
02:50:45.307,,-539,969,73
02:50:45.344,,-374,619,152
02:50:45.381,,-331,386,154
02:50:45.418,,-358,440,208
02:50:45.455,,-421,604,271
02:50:45.492,,-484,689,228
02:50:45.529,,-471,692,249
02:50:45.566,,-404,737,297
02:50:45.603,,-425,805,305
02:50:45.640,,-354,940,315
02:50:45.678,,-325,1044,293
02:50:45.715,,-340,1223,279
02:50:45.752,,-262,1364,248
02:50:45.789,,-133,1323,214
02:50:45.826,,-140,1162,176
02:50:45.863,,-168,1119,95
02:50:45.900,,-155,996,65
02:50:45.937,,-199,827,101
02:50:45.974,,-278,698,153
02:50:46.011,,-358,639,183
02:50:46.048,,-401,580,189
02:50:46.085,,-430,576,182
02:50:46.122,,-443,601,186
02:50:46.159,,-507,641,174
02:50:46.196,,-569,862,199
02:50:46.233,,-592,995,193
02:50:46.271,,-674,1174,153
02:50:46.308,,-677,1313,54
02:50:46.345,,-562,1031,-21
02:50:46.382,,-579,1002,-83
02:50:46.419,,-493,1060,-74
02:50:46.456,,-388,886,-31
02:50:46.493,,-356,717,43
02:50:46.530,,-359,677,72
02:50:46.567,,-350,745,61
02:50:46.604,,-387,781,50
02:50:46.641,,-416,764,13
02:50:46.678,,-413,798,22
02:50:46.715,,-457,828,12
02:50:46.752,,-420,829,2
02:50:46.789,,-414,786,28
02:50:46.826,,-534,895,7
02:50:46.863,,-538,1140,-52
02:50:46.901,,-375,1266,40
02:50:46.938,,-303,1145,142
02:50:46.975,,-285,958,167
02:50:47.012,,-319,797,167
02:50:47.049,,-375,694,132
02:50:47.086,,-420,738,143
02:50:47.123,,-435,793,150
02:50:47.160,,-429,830,176
02:50:47.197,,-404,897,229
02:50:47.234,,-349,946,300
02:50:47.271,,-307,879,334
02:50:47.308,,-296,834,321
02:50:47.345,,-287,870,287
02:50:47.382,,-280,889,253
02:50:47.419,,-258,905,272
02:50:47.456,,-304,799,298
02:50:47.494,,-396,718,315
02:50:47.531,,-504,763,387
02:50:47.568,,-559,750,394
02:50:47.605,,-615,724,318
02:50:47.642,,-615,799,260
02:50:47.679,,-596,875,218
02:50:47.716,,-529,912,176
02:50:47.753,,-464,892,196
02:50:47.790,,-425,795,269
02:50:47.827,,-467,736,232
02:50:47.864,,-542,833,163
02:50:47.901,,-556,1003,150
02:50:47.938,,-535,1010,149
02:50:47.975,,-498,865,185
02:50:48.012,,-472,723,252
02:50:48.049,,-481,670,236
02:50:48.086,,-507,713,190
02:50:48.124,,-562,783,169
02:50:48.161,,-619,927,168
02:50:48.198,,-518,940,274
02:50:48.235,,-408,758,416
02:50:48.272,,-441,666,324
02:50:48.309,,-520,731,258
02:50:48.346,,-548,860,186
02:50:48.383,,-532,845,105
02:50:48.420,,-530,823,142
02:50:48.457,,-533,852,215
02:50:48.494,,-497,851,241
02:50:48.531,,-450,851,239
02:50:48.568,,-450,857,247
02:50:48.605,,-467,863,237
02:50:48.642,,-470,859,206
02:50:48.679,,-462,856,195
02:50:48.717,,-454,847,190
02:50:48.754,,-456,837,192
02:50:48.791,,-456,832,201
02:50:48.828,,-464,833,212
02:50:48.865,,-473,850,220
02:50:48.902,,-477,853,221
02:50:48.939,,-477,849,217
02:50:48.976,,-482,838,209
02:50:49.013,,-487,829,197
02:50:49.050,,-489,827,194
02:50:49.087,,-499,820,189
02:50:49.124,,-505,816,187
02:50:49.161,,-507,820,188
02:50:49.198,,-505,823,191
02:50:49.235,,-508,825,199
02:50:49.272,,-509,818,196
02:50:49.309,,-515,812,192
02:50:49.346,,-520,819,190
02:50:49.384,,-528,838,197
02:50:49.421,,-520,848,199
02:50:49.458,,-514,842,198
02:50:49.495,,-502,836,195
02:50:49.532,,-492,825,192
02:50:49.569,,-481,821,194
02:50:49.606,,-477,834,198
02:50:49.643,,-462,842,195
02:50:49.680,,-467,833,182
02:50:49.717,,-473,846,186
02:50:49.754,,-480,850,183
02:50:49.791,,-483,841,176
02:50:49.828,,-489,839,174
02:50:49.865,,-494,847,174
02:50:49.902,,-498,838,170
02:50:49.939,,-500,840,167
02:50:49.976,,-492,845,167
02:50:50.014,,-492,837,163
02:50:50.051,,-490,841,171
02:50:50.088,,-490,828,169
02:50:50.125,,-494,850,170
02:50:50.162,,-495,853,170
02:50:50.199,,-495,849,169
02:50:50.236,,-489,847,178
02:50:50.273,,-485,828,176
02:50:50.310,,-484,831,178
02:50:50.347,,-486,825,171
02:50:50.384,,-495,835,175
02:50:50.421,,-508,834,180
02:50:50.458,,-514,835,189
02:50:50.495,,-510,818,186
02:50:50.532,,-542,815,192
02:50:50.569,,-540,819,213
02:50:50.606,,-554,738,190
02:50:50.644,,-605,717,167
02:50:50.681,,-628,695,182
02:50:50.718,,-668,781,157
02:50:50.755,,-676,814,150
02:50:50.792,,-644,813,135
02:50:50.829,,-600,831,127
02:50:50.866,,-570,852,108
02:50:50.903,,-574,848,119
02:50:50.940,,-573,896,114
02:50:50.977,,-607,893,143
02:50:51.014,,-602,886,152
02:50:51.051,,-617,782,183
02:50:51.088,,-598,775,182
02:50:51.125,,-588,824,190
02:50:51.162,,-533,840,175
02:50:51.199,,-485,801,216
02:50:51.236,,-491,709,251
02:50:51.273,,-516,706,220
02:50:51.311,,-471,653,246
02:50:51.348,,-489,596,231
02:50:51.385,,-582,491,222
02:50:51.422,,-652,512,217
02:50:51.459,,-600,628,231
02:50:51.496,,-541,686,265
02:50:51.533,,-513,875,286
02:50:51.570,,-420,781,349
02:50:51.607,,-329,893,290
02:50:51.644,,-279,937,282
02:50:51.681,,-225,973,310
02:50:51.718,,-164,966,280
02:50:51.755,,-140,989,309
02:50:51.792,,-113,981,296
02:50:51.829,,-75,1014,322
02:50:51.866,,-40,1034,333
02:50:51.903,,-66,987,321
02:50:51.941,,-91,1017,298
02:50:51.978,,-89,1017,331
02:50:52.015,,-127,982,341
02:50:52.052,,-130,884,303
02:50:52.089,,-125,878,263
02:50:52.126,,-53,928,245
02:50:52.163,,-15,974,229
02:50:52.200,,-14,952,226
02:50:52.237,,-21,1010,278
02:50:52.274,,-81,989,307
02:50:52.311,,-105,969,313
02:50:52.348,,-111,970,345
02:50:52.385,,-99,932,381
02:50:52.422,,-129,909,312
02:50:52.459,,-194,958,266
02:50:52.496,,-211,948,263
02:50:52.533,,-164,955,314
02:50:52.570,,-200,964,331
02:50:52.608,,-185,942,398
02:50:52.645,,-166,890,439
02:50:52.682,,-133,833,443
02:50:52.719,,-114,817,488
02:50:52.756,,-92,825,500
02:50:52.793,,-13,819,513
02:50:52.830,,53,814,555
02:50:52.867,,249,904,482
02:50:52.904,,466,878,334
02:50:52.941,,404,912,288
02:50:52.978,,99,1014,308
02:50:53.015,,-263,993,307
02:50:53.052,,-411,1054,209
02:50:53.089,,-410,1044,298
02:50:53.126,,-365,1010,451
02:50:53.163,,-266,1034,570
02:50:53.200,,-128,803,658
02:50:53.237,,-98,834,609
02:50:53.275,,-42,738,634
02:50:53.312,,-55,710,652
02:50:53.349,,-106,725,629
02:50:53.386,,-111,498,750
02:50:53.423,,-161,445,721
02:50:53.460,,-124,419,942
02:50:53.497,,-132,236,905
02:50:53.534,,-49,134,908
02:50:53.571,,-56,17,1008
02:50:53.608,,-113,-106,945
02:50:53.645,,-142,-30,979
02:50:53.682,,-177,-67,981
02:50:53.719,,-163,106,945
02:50:53.756,,-129,334,981
02:50:53.793,,-172,290,907
02:50:53.830,,-185,350,894
02:50:53.867,,-191,335,841
02:50:53.905,,-171,631,876
02:50:53.942,,-147,500,833
02:50:53.979,,-132,436,790
02:50:54.016,,-168,590,775
02:50:54.053,,-175,533,701
02:50:54.090,,-191,668,686
02:50:54.127,,-124,616,679
02:50:54.164,,-151,883,561
02:50:54.201,,-95,972,575
02:50:54.238,,-130,1008,475
02:50:54.275,,-162,904,448
02:50:54.312,,-169,820,416
02:50:54.349,,-148,862,436
02:50:54.386,,-109,995,460
02:50:54.423,,-16,1068,547
02:50:54.460,,65,843,613
02:50:54.497,,85,859,569
02:50:54.534,,25,874,473
02:50:54.572,,-21,733,369
02:50:54.609,,-56,842,354
02:50:54.646,,-72,906,399
02:50:54.683,,-70,889,462
02:50:54.720,,-104,841,471
02:50:54.757,,-151,808,423
02:50:54.794,,-205,843,437
02:50:54.831,,-207,792,427
02:50:54.868,,-241,752,459
02:50:54.905,,-246,842,462
02:50:54.942,,-287,849,472
02:50:54.979,,-289,956,489
02:50:55.016,,-279,871,478
02:50:55.053,,-315,759,446
02:50:55.090,,-363,739,368
02:50:55.127,,-411,847,312
02:50:55.164,,-421,848,286
02:50:55.202,,-450,979,182
02:50:55.239,,-459,1164,174
02:50:55.276,,-509,1020,234
02:50:55.313,,-603,1092,210
02:50:55.350,,-728,1256,180
02:50:55.387,,-819,1340,196
02:50:55.424,,-769,1078,257
02:50:55.461,,-586,673,313
02:50:55.498,,-499,221,322
02:50:55.535,,-430,71,376
02:50:55.572,,-403,-23,413
02:50:55.609,,-431,-50,456
02:50:55.646,,-542,106,495
02:50:55.683,,-651,264,539
02:50:55.720,,-728,271,616
02:50:55.757,,-837,171,627
02:50:55.794,,-893,256,671
02:50:55.831,,-904,326,662
02:50:55.869,,-905,399,675
02:50:55.906,,-886,395,659
02:50:55.943,,-834,387,615
02:50:55.980,,-728,384,552
02:50:56.017,,-649,341,412
02:50:56.054,,-619,291,386
02:50:56.091,,-645,244,464
02:50:56.128,,-600,129,584
02:50:56.165,,-440,73,676
02:50:56.202,,-295,-94,492
02:50:56.239,,-160,-207,267
02:50:56.276,,-23,49,133
02:50:56.313,,102,414,-107
02:50:56.350,,177,996,-407
02:50:56.387,,113,1508,-471
02:50:56.424,,-59,1853,-328
02:50:56.461,,-253,1742,-641
02:50:56.498,,-313,1681,-437
02:50:56.535,,-400,1637,-240
02:50:56.573,,-496,1466,-135
02:50:56.610,,-505,1349,20
02:50:56.647,,-356,1329,-42
02:50:56.684,,-198,1290,-122
02:50:56.721,,-45,1077,-119
02:50:56.758,,13,867,-160
02:50:56.795,,41,945,-163
02:50:56.832,,29,1050,-120
02:50:56.869,,68,1152,-43
02:50:56.906,,87,1076,63
02:50:56.943,,13,807,161
02:50:56.980,,-98,614,204
02:50:57.017,,-191,606,227
02:50:57.054,,-225,689,240
02:50:57.091,,-269,759,270
02:50:57.128,,-305,800,312
02:50:57.165,,-327,871,339
02:50:57.202,,-338,923,361
02:50:57.240,,-307,912,363
02:50:57.277,,-292,1013,391
02:50:57.314,,-230,1157,427
02:50:57.351,,-162,1131,440
02:50:57.388,,-96,996,428
02:50:57.425,,-126,754,337
02:50:57.462,,-192,743,246
02:50:57.499,,-214,897,234
02:50:57.536,,-192,1009,232
02:50:57.573,,-245,941,262
02:50:57.610,,-320,806,318
02:50:57.647,,-338,720,354
02:50:57.684,,-353,729,352
02:50:57.721,,-306,779,382
02:50:57.758,,-249,867,424
02:50:57.795,,-254,871,392
02:50:57.832,,-285,920,360
02:50:57.869,,-231,991,356
02:50:57.907,,-245,922,300
02:50:57.944,,-313,811,299
02:50:57.981,,-436,689,215
02:50:58.018,,-538,699,64
02:50:58.055,,-504,1009,-126
02:50:58.092,,-331,1003,-348
02:50:58.129,,-242,917,-611
02:50:58.166,,-354,855,-771
02:50:58.203,,-322,619,-792
02:50:58.240,,-286,542,-734
02:50:58.277,,-331,503,-740
02:50:58.314,,-304,502,-595
02:50:58.351,,-358,466,-608
02:50:58.388,,-458,447,-681
02:50:58.425,,-444,432,-643
02:50:58.462,,-438,437,-801
02:50:58.499,,-384,521,-636
02:50:58.536,,-419,417,-834
02:50:58.573,,-371,480,-766
02:50:58.611,,-380,414,-883
02:50:58.648,,-402,416,-904
02:50:58.685,,-381,387,-925
02:50:58.722,,-353,350,-941
02:50:58.759,,-323,318,-938
02:50:58.796,,-262,307,-971
02:50:58.833,,-203,301,-946
02:50:58.870,,-188,315,-857
02:50:58.907,,-194,311,-814
02:50:58.944,,-176,320,-863
02:50:58.981,,-179,370,-943
02:50:59.018,,-202,412,-976
02:50:59.055,,-242,413,-853
02:50:59.092,,-289,395,-810
02:50:59.129,,-312,379,-767
02:50:59.166,,-298,380,-747
02:50:59.203,,-301,403,-748
02:50:59.240,,-325,401,-745
02:50:59.278,,-346,410,-757
02:50:59.315,,-341,422,-821
02:50:59.352,,-298,428,-913
02:50:59.389,,-263,449,-937
02:50:59.426,,-309,454,-885
02:50:59.463,,-415,469,-822
02:50:59.500,,-341,506,-859
02:50:59.537,,-180,591,-894
02:50:59.574,,-90,698,-834
02:50:59.611,,-99,749,-732
02:50:59.648,,-98,835,-428
02:50:59.685,,-124,813,-196
02:50:59.722,,101,1026,413
02:50:59.759,,245,646,364
02:50:59.796,,253,484,-35
02:50:59.833,,250,68,-762
02:50:59.870,,827,-99,-1742
02:50:59.908,,837,819,-1975
02:50:59.945,,230,1078,-1170
02:50:59.982,,-230,1279,-389
02:51:00.019,,-333,1211,38
02:51:00.056,,-99,1493,495
02:51:00.093,,-9,1182,562
02:51:00.130,,71,825,425
02:51:00.167,,208,559,725
02:51:00.204,,206,595,776
02:51:00.241,,255,689,706
02:51:00.278,,259,716,590
02:51:00.315,,213,703,438
02:51:00.352,,189,740,456
02:51:00.389,,186,654,579
02:51:00.426,,181,449,758
02:51:00.463,,125,403,798
02:51:00.500,,153,333,1000
02:51:00.537,,173,434,1119
02:51:00.575,,127,410,1362
02:51:00.612,,156,356,865
02:51:00.649,,226,496,422
02:51:00.686,,81,658,134
02:51:00.723,,715,1409,219
02:51:00.760,,1324,1309,232
02:51:00.797,,762,1212,-587
02:51:00.834,,377,1339,5
02:51:00.871,,231,1036,123
02:51:00.908,,231,844,202
02:51:00.945,,343,922,496
02:51:00.982,,321,978,688
02:51:01.019,,382,1114,594
02:51:01.056,,491,940,702
02:51:01.093,,482,404,664
02:51:01.130,,401,187,527
02:51:01.167,,363,181,530
02:51:01.204,,380,256,529
02:51:01.242,,407,256,451
02:51:01.279,,479,256,386
02:51:01.316,,727,480,420
02:51:01.353,,963,503,398
02:51:01.390,,1199,262,321
02:51:01.427,,1611,240,247
02:51:01.464,,1598,543,256
02:51:01.501,,1055,777,339
02:51:01.538,,880,702,172
02:51:01.575,,1122,546,-12
02:51:01.612,,1125,414,-8
02:51:01.649,,927,418,43
02:51:01.686,,769,473,106
02:51:01.723,,676,507,126
02:51:01.760,,649,443,129
02:51:01.797,,693,402,180
02:51:01.834,,724,383,281
02:51:01.872,,740,384,336
02:51:01.909,,881,413,373
02:51:01.946,,1161,403,360
02:51:01.983,,1223,318,279
02:51:02.020,,1141,304,201
02:51:02.057,,1182,459,209
02:51:02.094,,996,604,211
02:51:02.131,,710,597,161
02:51:02.168,,680,564,84
02:51:02.205,,864,657,29
02:51:02.242,,1047,781,-21
02:51:02.279,,1021,796,-91
02:51:02.316,,910,737,-43
02:51:02.353,,784,627,2
02:51:02.390,,671,540,48
02:51:02.427,,597,477,75
02:51:02.464,,449,556,157
02:51:02.501,,294,707,255
02:51:02.538,,279,736,272
02:51:02.576,,305,702,266
02:51:02.613,,342,713,260
02:51:02.650,,414,749,280
02:51:02.687,,534,833,282
02:51:02.724,,721,982,254
02:51:02.761,,769,994,299
02:51:02.798,,543,947,394
02:51:02.835,,278,816,323
02:51:02.872,,99,822,231
02:51:02.909,,12,1008,105
02:51:02.946,,28,1078,-12
02:51:02.983,,95,1131,8
02:51:03.020,,112,1076,45
02:51:03.057,,73,1024,44
02:51:03.094,,14,992,98
02:51:03.131,,-75,974,159
02:51:03.168,,-115,974,193
02:51:03.205,,-162,980,153
02:51:03.242,,-120,1073,139
02:51:03.280,,32,1117,69
02:51:03.317,,73,1157,1
02:51:03.354,,145,1229,11
02:51:03.391,,6,1213,5
02:51:03.428,,-175,1018,-20
02:51:03.465,,-127,997,-41
02:51:03.502,,-72,968,-27
02:51:03.539,,-117,917,48
02:51:03.576,,-216,851,47
02:51:03.613,,-313,844,68
02:51:03.650,,-322,762,44
02:51:03.687,,-236,752,34
02:51:03.724,,-273,790,68
02:51:03.761,,-324,820,152
02:51:03.798,,-410,812,176
02:51:03.835,,-486,844,304
02:51:03.872,,-469,849,302
02:51:03.910,,-364,889,271
02:51:03.947,,-314,968,275
02:51:03.984,,-384,1075,383
02:51:04.021,,-345,959,420
02:51:04.058,,-383,744,323
02:51:04.095,,-401,606,381
02:51:04.132,,-329,677,386
02:51:04.169,,-151,616,416
02:51:04.206,,-8,517,428
02:51:04.243,,82,421,406
02:51:04.280,,137,287,345
02:51:04.317,,186,205,250
02:51:04.354,,240,234,153
02:51:04.391,,341,303,62
02:51:04.428,,551,351,-52
02:51:04.465,,975,436,-175
02:51:04.502,,1646,722,-299
02:51:04.539,,1997,1003,-417
02:51:04.577,,1997,1447,-421
02:51:04.614,,1930,1510,-406
02:51:04.651,,1628,1114,-236
02:51:04.688,,1462,1033,-145
02:51:04.725,,1019,946,-213
02:51:04.762,,772,644,-216
02:51:04.799,,627,689,-111
02:51:04.836,,473,697,-70
02:51:04.873,,529,698,-56
02:51:04.910,,710,722,-57
02:51:04.947,,877,686,-75
02:51:04.984,,1012,757,-175
02:51:05.021,,1192,911,-187
02:51:05.058,,1332,1006,-212
02:51:05.095,,1445,1155,-236
02:51:05.132,,1495,1330,-220
02:51:05.169,,1462,1385,-213
02:51:05.206,,1236,1268,-119
02:51:05.244,,817,952,84
02:51:05.281,,588,642,118
02:51:05.318,,460,431,6
02:51:05.355,,166,154,-182
02:51:05.392,,-81,305,-166
02:51:05.429,,-320,449,-133
02:51:05.466,,-419,566,-68
02:51:05.503,,-373,646,235
02:51:05.540,,-352,524,523
02:51:05.577,,-219,589,536
02:51:05.614,,-122,737,501
02:51:05.651,,-47,805,441
02:51:05.688,,-63,762,369
02:51:05.725,,-114,747,306
02:51:05.762,,-177,804,149
02:51:05.799,,-123,951,4
02:51:05.836,,-88,981,46
02:51:05.873,,-63,980,53
02:51:05.911,,-24,1136,-15
02:51:05.948,,50,1335,-40
02:51:05.985,,107,1335,44
02:51:06.022,,140,1163,103
02:51:06.059,,135,1016,100
02:51:06.096,,98,978,82
02:51:06.133,,32,1053,59
02:51:06.170,,-41,1128,70
02:51:06.207,,-133,1185,54
02:51:06.244,,-186,1317,5
02:51:06.281,,-179,1504,-66
02:51:06.318,,-185,1523,-42
02:51:06.355,,-138,1448,63
02:51:06.392,,-126,1466,116
02:51:06.429,,-15,1302,151
02:51:06.466,,56,1104,123
02:51:06.503,,-12,922,90
02:51:06.540,,-79,629,46
02:51:06.578,,-66,523,121
02:51:06.615,,-255,496,181
02:51:06.652,,-204,558,203
02:51:06.689,,-83,727,253
02:51:06.726,,-24,763,306
02:51:06.763,,-144,868,357
02:51:06.800,,-299,899,509
02:51:06.837,,-333,888,478
02:51:06.874,,-403,924,380
02:51:06.911,,-420,922,440
02:51:06.948,,-517,937,418
02:51:06.985,,-521,819,348
02:51:07.022,,-483,813,317
02:51:07.059,,-334,874,135
02:51:07.096,,-205,947,182
02:51:07.133,,-228,939,327
02:51:07.170,,-333,867,487
02:51:07.207,,-430,811,546
02:51:07.245,,-431,647,525
02:51:07.282,,-452,573,479
02:51:07.319,,-510,536,492
02:51:07.356,,-546,480,452
02:51:07.393,,-600,492,385
02:51:07.430,,-605,523,392
02:51:07.467,,-585,540,375
02:51:07.504,,-571,620,294
02:51:07.541,,-598,824,228
02:51:07.578,,-512,1015,150
02:51:07.615,,-427,1034,214
02:51:07.652,,-409,960,261
02:51:07.689,,-437,878,187
02:51:07.726,,-467,828,169
02:51:07.763,,-492,778,220
02:51:07.800,,-536,687,215
02:51:07.837,,-590,648,176
02:51:07.875,,-642,712,228
02:51:07.912,,-638,818,226
02:51:07.949,,-544,817,235
02:51:07.986,,-478,835,250
02:51:08.023,,-506,976,277
02:51:08.060,,-419,1212,238
02:51:08.097,,-375,1040,166
02:51:08.134,,-529,1047,129
02:51:08.171,,-601,1235,80
02:51:08.208,,-486,1086,54
02:51:08.245,,-491,909,62
02:51:08.282,,-461,1029,76
02:51:08.319,,-356,992,34
02:51:08.356,,-274,780,27
02:51:08.393,,-259,660,87
02:51:08.430,,-260,624,120
02:51:08.467,,-319,597,109
02:51:08.504,,-363,611,92
02:51:08.542,,-382,694,103
02:51:08.579,,-443,750,115
02:51:08.616,,-524,888,126
02:51:08.653,,-541,1083,153
02:51:08.690,,-521,1366,110
02:51:08.727,,-404,1467,131
02:51:08.764,,-226,1266,171
02:51:08.801,,-138,942,206
02:51:08.838,,-178,755,136
02:51:08.875,,-240,722,40
02:51:08.912,,-273,698,4
02:51:08.949,,-318,663,65
02:51:08.986,,-353,651,158
02:51:09.023,,-401,704,183
02:51:09.060,,-444,760,234
02:51:09.097,,-451,772,265
02:51:09.134,,-480,791,252
02:51:09.171,,-545,1009,214
02:51:09.209,,-470,1276,160
02:51:09.246,,-492,1128,144
02:51:09.283,,-601,1018,72
02:51:09.320,,-546,1063,45
02:51:09.357,,-536,929,73
02:51:09.394,,-528,1018,63
02:51:09.431,,-360,1071,45
02:51:09.468,,-262,753,85
02:51:09.505,,-254,559,130
02:51:09.542,,-255,573,179
02:51:09.579,,-286,594,175
02:51:09.616,,-351,648,137
02:51:09.653,,-396,762,174
02:51:09.690,,-489,830,207
02:51:09.727,,-579,937,185
02:51:09.764,,-622,1063,205
02:51:09.801,,-561,1194,200
02:51:09.839,,-415,1265,137
02:51:09.876,,-203,1156,114
02:51:09.913,,-26,997,158
02:51:09.950,,-73,863,117
02:51:09.987,,-134,826,32
02:51:10.024,,-206,805,97
02:51:10.061,,-268,742,160
02:51:10.098,,-322,755,162
02:51:10.135,,-348,784,203
02:51:10.172,,-354,797,243
02:51:10.209,,-342,823,243
02:51:10.246,,-338,783,238
02:51:10.283,,-383,844,222
02:51:10.320,,-453,1038,212
02:51:10.357,,-383,1131,168
02:51:10.394,,-429,1029,146
02:51:10.431,,-548,1083,115
02:51:10.469,,-509,1099,126
02:51:10.506,,-506,876,119
02:51:10.543,,-532,931,81
02:51:10.580,,-430,1064,57
02:51:10.617,,-339,926,50
02:51:10.654,,-342,691,57
02:51:10.691,,-398,695,75
02:51:10.728,,-436,677,112
02:51:10.765,,-509,708,114
02:51:10.802,,-554,805,127
02:51:10.839,,-579,846,207
02:51:10.876,,-573,826,250
02:51:10.913,,-577,826,240
02:51:10.950,,-628,932,231
02:51:10.987,,-622,1035,235
02:51:11.024,,-570,1062,244
02:51:11.061,,-433,1050,194
02:51:11.098,,-417,1054,153
02:51:11.136,,-393,932,166
02:51:11.173,,-419,823,197
02:51:11.210,,-451,594,254
02:51:11.247,,-501,490,287
02:51:11.284,,-530,457,344
02:51:11.321,,-571,508,379
02:51:11.358,,-554,468,432
02:51:11.395,,-550,413,416
02:51:11.432,,-668,416,379
02:51:11.469,,-786,592,383
02:51:11.506,,-768,640,438
02:51:11.543,,-933,737,446
02:51:11.580,,-947,713,400
02:51:11.617,,-972,770,283
02:51:11.654,,-929,735,236
02:51:11.691,,-785,712,273
02:51:11.728,,-570,685,357
02:51:11.765,,-525,473,334
02:51:11.803,,-590,415,351
02:51:11.840,,-622,512,340
02:51:11.877,,-612,478,307
02:51:11.914,,-612,483,335
02:51:11.951,,-604,464,387
02:51:11.988,,-555,318,404
02:51:12.025,,-508,171,431
02:51:12.062,,-579,136,454
02:51:12.099,,-735,214,436
02:51:12.136,,-888,279,405
02:51:12.173,,-1029,417,451
02:51:12.210,,-985,453,584
02:51:12.247,,-860,316,666
02:51:12.284,,-906,183,633
02:51:12.321,,-1047,518,593
02:51:12.358,,-697,866,790
02:51:12.395,,-646,707,665
02:51:12.432,,-664,340,602
02:51:12.470,,-854,403,627
02:51:12.507,,-985,296,564
02:51:12.544,,-858,341,525
02:51:12.581,,-727,383,553
02:51:12.618,,-620,234,464
02:51:12.655,,-594,185,305
02:51:12.692,,-759,520,332
02:51:12.729,,-851,783,335
02:51:12.766,,-961,796,208
02:51:12.803,,-1051,976,171
02:51:12.840,,-1009,957,152
02:51:12.877,,-938,913,105
02:51:12.914,,-754,787,173
02:51:12.951,,-583,698,233
02:51:12.988,,-534,632,220
02:51:13.025,,-488,494,222
02:51:13.062,,-489,416,264
02:51:13.100,,-439,379,293
02:51:13.137,,-502,418,312
02:51:13.174,,-576,556,333
02:51:13.211,,-816,762,348
02:51:13.248,,-835,832,380
02:51:13.285,,-841,773,345
02:51:13.322,,-931,981,275
02:51:13.359,,-784,1436,273
02:51:13.396,,-408,1131,286
02:51:13.433,,-356,839,194
02:51:13.470,,-456,607,102
02:51:13.507,,-478,625,161
02:51:13.544,,-483,632,200
02:51:13.581,,-458,586,244
02:51:13.618,,-447,563,290
02:51:13.655,,-468,527,327
02:51:13.692,,-525,533,371
02:51:13.730,,-625,586,406
02:51:13.767,,-741,750,421
02:51:13.804,,-756,867,404
02:51:13.841,,-823,858,344
02:51:13.878,,-954,774,235
02:51:13.915,,-999,852,173
02:51:13.952,,-843,724,95
02:51:13.989,,-854,612,19
02:51:14.026,,-779,627,-60
02:51:14.063,,-617,684,-24
02:51:14.100,,-555,573,80
02:51:14.137,,-536,445,170
02:51:14.174,,-515,443,246
02:51:14.211,,-566,456,277
02:51:14.248,,-616,511,281
02:51:14.285,,-629,516,293
02:51:14.322,,-747,612,273
02:51:14.359,,-795,771,250
02:51:14.397,,-859,881,251
02:51:14.434,,-966,934,182
02:51:14.471,,-803,1220,58
02:51:14.508,,-479,1330,55
02:51:14.545,,-358,988,91
02:51:14.582,,-432,895,38
02:51:14.619,,-436,796,43
02:51:14.656,,-442,586,152
02:51:14.693,,-412,458,223
02:51:14.730,,-451,434,238
02:51:14.767,,-610,504,240
02:51:14.804,,-636,531,229
02:51:14.841,,-791,648,196
02:51:14.878,,-823,813,103
02:51:14.915,,-888,757,65
02:51:14.952,,-1016,833,39
02:51:14.989,,-1070,887,-23
02:51:15.027,,-908,732,-84
02:51:15.064,,-901,566,-134
02:51:15.101,,-836,565,-148
02:51:15.138,,-692,435,-68
02:51:15.175,,-591,376,33
02:51:15.212,,-568,356,65
02:51:15.249,,-566,413,95
02:51:15.286,,-634,400,107
02:51:15.323,,-725,389,109
02:51:15.360,,-813,432,97
02:51:15.397,,-965,634,19
02:51:15.434,,-968,958,93
02:51:15.471,,-887,894,135
02:51:15.508,,-815,1092,67
02:51:15.545,,-587,1396,-20
02:51:15.582,,-383,1075,40
02:51:15.619,,-341,866,-12
02:51:15.657,,-350,734,-103
02:51:15.694,,-356,578,-22
02:51:15.731,,-371,480,21
02:51:15.768,,-413,447,24
02:51:15.805,,-472,477,65
02:51:15.842,,-538,526,100
02:51:15.879,,-598,538,119
02:51:15.916,,-718,623,53
02:51:15.953,,-805,965,-5
02:51:15.990,,-797,1208,37
02:51:16.027,,-848,1137,0
02:51:16.064,,-869,1021,-50
02:51:16.101,,-775,1048,-46
02:51:16.138,,-741,1001,-64
02:51:16.175,,-632,925,-70
02:51:16.212,,-478,822,-24
02:51:16.249,,-363,661,18
02:51:16.287,,-334,551,19
02:51:16.324,,-332,516,7
02:51:16.361,,-342,557,6
02:51:16.398,,-352,641,11
02:51:16.435,,-432,719,0
02:51:16.472,,-510,870,-6
02:51:16.509,,-521,1146,24
02:51:16.546,,-508,1380,77
02:51:16.583,,-405,1473,159
02:51:16.620,,-185,1356,236
02:51:16.657,,-146,1168,232
02:51:16.694,,-168,985,106
02:51:16.731,,-203,782,38
02:51:16.768,,-227,592,55
02:51:16.805,,-269,516,57
02:51:16.842,,-321,503,58
02:51:16.879,,-382,579,101
02:51:16.917,,-441,654,116
02:51:16.954,,-533,673,79
02:51:16.991,,-619,904,92
02:51:17.028,,-553,1231,149
02:51:17.065,,-609,1314,126
02:51:17.102,,-629,1162,72
02:51:17.139,,-569,1100,29
02:51:17.176,,-562,1042,-47
02:51:17.213,,-471,933,-90
02:51:17.250,,-290,814,-7
02:51:17.287,,-177,636,40
02:51:17.324,,-200,600,52
02:51:17.361,,-250,654,22
02:51:17.398,,-257,754,31
02:51:17.435,,-315,814,11
02:51:17.472,,-375,962,4
02:51:17.509,,-385,1133,54
02:51:17.547,,-402,1386,-4
02:51:17.584,,-284,1543,57
02:51:17.621,,-60,1347,211
02:51:17.658,,12,1153,152
02:51:17.695,,-36,949,53
02:51:17.732,,-102,714,13
02:51:17.769,,-135,594,40
02:51:17.806,,-196,553,67
02:51:17.843,,-251,584,78
02:51:17.880,,-307,688,91
02:51:17.917,,-354,792,114
02:51:17.954,,-437,842,130
02:51:17.991,,-470,1051,164
02:51:18.028,,-437,1348,149
02:51:18.065,,-435,1449,142
02:51:18.102,,-444,1276,97
02:51:18.140,,-430,1151,27
02:51:18.177,,-380,1091,-6
02:51:18.214,,-287,957,14
02:51:18.251,,-216,710,64
02:51:18.288,,-181,540,112
02:51:18.325,,-166,493,108
02:51:18.362,,-179,541,79
02:51:18.399,,-203,627,60
02:51:18.436,,-237,733,55
02:51:18.473,,-337,851,50
02:51:18.510,,-412,1003,68
02:51:18.547,,-543,1158,74
02:51:18.584,,-488,1612,83
02:51:18.621,,-172,1553,236
02:51:18.658,,-69,1284,267
02:51:18.696,,5,1110,140
02:51:18.733,,-29,846,62
02:51:18.770,,-89,564,66
02:51:18.807,,-160,475,50
02:51:18.844,,-228,538,64
02:51:18.881,,-309,623,95
02:51:18.918,,-374,664,100
02:51:18.955,,-479,711,149
02:51:18.992,,-572,943,164
02:51:19.029,,-548,1257,171
02:51:19.066,,-455,1425,219
02:51:19.103,,-312,1347,241
02:51:19.140,,-300,1116,214
02:51:19.177,,-326,1055,111
02:51:19.214,,-234,983,78
02:51:19.251,,-144,911,111
02:51:19.289,,-155,768,176
02:51:19.326,,-189,618,151
02:51:19.363,,-228,611,125
02:51:19.400,,-241,691,142
02:51:19.437,,-247,711,155
02:51:19.474,,-337,710,138
02:51:19.511,,-478,721,137
02:51:19.548,,-627,850,24
02:51:19.585,,-668,1352,-147
02:51:19.622,,-473,1467,64
02:51:19.659,,-179,1716,28
02:51:19.696,,-21,1336,-32
02:51:19.733,,-18,996,-44
02:51:19.770,,-54,796,-18
02:51:19.807,,-95,631,-18
02:51:19.844,,-137,562,25
02:51:19.881,,-229,534,61
02:51:19.919,,-348,501,99
02:51:19.956,,-480,497,182
02:51:19.993,,-596,675,227
02:51:20.030,,-589,1109,201
02:51:20.067,,-504,1302,106
02:51:20.104,,-568,1335,49
02:51:20.141,,-459,1364,51
02:51:20.178,,-384,1186,17
02:51:20.215,,-332,1110,-32
02:51:20.252,,-210,1066,17
02:51:20.289,,-143,869,93
02:51:20.326,,-154,674,130
02:51:20.363,,-188,536,123
02:51:20.400,,-218,481,128
02:51:20.437,,-220,657,148
02:51:20.474,,-315,723,154
02:51:20.512,,-484,822,141
02:51:20.549,,-558,959,131
02:51:20.586,,-581,966,136
02:51:20.623,,-567,1037,193
02:51:20.660,,-481,1089,166
02:51:20.697,,-356,1044,187
02:51:20.734,,-254,1133,175
02:51:20.771,,-65,1242,108
02:51:20.808,,26,1151,79
02:51:20.845,,-113,1011,41
02:51:20.882,,-173,939,59
02:51:20.919,,-196,758,94
02:51:20.956,,-203,634,101
02:51:20.993,,-212,671,87
02:51:21.030,,-220,754,126
02:51:21.067,,-226,859,156
02:51:21.104,,-249,946,180
02:51:21.141,,-254,1067,169
02:51:21.179,,-186,1158,161
02:51:21.216,,-208,1158,101
02:51:21.253,,-262,1246,10
02:51:21.290,,-211,1254,-67
02:51:21.327,,-120,1296,-131
02:51:21.364,,31,1375,-136
02:51:21.401,,19,1266,-93
02:51:21.438,,-69,1045,-46
02:51:21.475,,-137,859,-45
02:51:21.512,,-219,779,-50
02:51:21.549,,-249,726,-7
02:51:21.586,,-317,702,38
02:51:21.623,,-401,689,75
02:51:21.660,,-498,667,164
02:51:21.697,,-607,679,192
02:51:21.734,,-619,717,167
02:51:21.772,,-636,762,127
02:51:21.809,,-662,891,125
02:51:21.846,,-616,934,153
02:51:21.883,,-671,915,135
02:51:21.920,,-752,1086,170
02:51:21.957,,-495,1143,278
02:51:21.994,,-289,1021,299
02:51:22.031,,-318,808,277
02:51:22.068,,-347,676,245
02:51:22.105,,-413,619,244
02:51:22.142,,-453,530,252
02:51:22.179,,-478,472,267
02:51:22.216,,-506,381,285
02:51:22.253,,-543,405,320
02:51:22.290,,-585,444,373
02:51:22.327,,-656,513,385
02:51:22.365,,-765,631,362
02:51:22.402,,-802,740,359
02:51:22.439,,-780,725,348
02:51:22.476,,-910,743,337
02:51:22.513,,-1001,740,280
02:51:22.550,,-929,761,155
02:51:22.587,,-785,640,59
02:51:22.624,,-779,656,18
02:51:22.661,,-736,717,42
02:51:22.698,,-641,668,94
02:51:22.735,,-588,534,169
02:51:22.772,,-595,455,191
02:51:22.809,,-586,461,190
02:51:22.846,,-606,456,170
02:51:22.883,,-633,465,133
02:51:22.920,,-708,601,85
02:51:22.958,,-835,728,97
02:51:22.995,,-926,876,246
02:51:23.032,,-1004,880,313
02:51:23.069,,-920,951,246
02:51:23.106,,-612,1065,210
02:51:23.143,,-366,1005,143
02:51:23.180,,-358,853,76
02:51:23.217,,-399,830,48
02:51:23.254,,-427,717,122
02:51:23.291,,-472,600,171
02:51:23.328,,-493,552,187
02:51:23.365,,-515,512,194
02:51:23.402,,-574,550,212
02:51:23.439,,-603,589,241
02:51:23.476,,-681,653,213
02:51:23.513,,-766,821,187
02:51:23.551,,-799,948,175
02:51:23.588,,-843,1049,141
02:51:23.625,,-912,1042,34
02:51:23.662,,-795,924,9
02:51:23.699,,-765,774,-50
02:51:23.736,,-756,673,-102
02:51:23.773,,-656,560,-88
02:51:23.810,,-564,468,-53
02:51:23.847,,-532,425,-23
02:51:23.884,,-513,440,-2
02:51:23.921,,-518,553,-1
02:51:23.958,,-508,623,-7
02:51:23.995,,-555,626,-21
02:51:24.032,,-650,811,-57
02:51:24.069,,-569,901,-24
02:51:24.106,,-597,947,33
02:51:24.143,,-586,1140,20
02:51:24.181,,-460,1251,56
02:51:24.218,,-351,1079,103
02:51:24.255,,-338,1117,83
02:51:24.292,,-298,1150,43
02:51:24.329,,-231,979,63
02:51:24.366,,-220,781,112
02:51:24.403,,-240,723,119
02:51:24.440,,-250,707,142
02:51:24.477,,-254,714,147
02:51:24.514,,-277,784,181
02:51:24.551,,-304,738,183
02:51:24.588,,-479,776,137
02:51:24.625,,-486,1002,182
02:51:24.662,,-418,1114,172
02:51:24.699,,-495,1064,86
02:51:24.736,,-539,1110,21
02:51:24.774,,-415,1133,17
02:51:24.811,,-373,1075,35
02:51:24.848,,-320,1158,5
02:51:24.885,,-222,1091,-25
02:51:24.922,,-185,842,24
02:51:24.959,,-221,671,35
02:51:24.996,,-269,552,18
02:51:25.033,,-338,532,-16
02:51:25.070,,-399,569,-28
02:51:25.107,,-461,626,-12
02:51:25.144,,-521,731,56
02:51:25.181,,-552,892,173
02:51:25.218,,-609,817,248
02:51:25.255,,-653,717,299
02:51:25.292,,-637,897,265
02:51:25.329,,-574,971,259
02:51:25.366,,-611,980,260
02:51:25.404,,-661,1314,43
02:51:25.441,,-373,1415,32
02:51:25.478,,-208,1216,330
02:51:25.515,,-109,1061,307
02:51:25.552,,-140,854,119
02:51:25.589,,-277,579,96
02:51:25.626,,-350,493,89
02:51:25.663,,-396,527,130
02:51:25.700,,-463,600,164
02:51:25.737,,-519,689,175
02:51:25.774,,-562,796,167
02:51:25.811,,-586,1022,181
02:51:25.848,,-490,1127,234
02:51:25.885,,-525,1040,146
02:51:25.922,,-615,988,6
02:51:25.959,,-620,1161,-68
02:51:25.996,,-495,1139,-62
02:51:26.034,,-433,926,88
02:51:26.071,,-368,922,122
02:51:26.108,,-354,788,143
02:51:26.145,,-383,661,148
02:51:26.182,,-443,598,55
02:51:26.219,,-470,591,24
02:51:26.256,,-481,709,40
02:51:26.293,,-453,821,-3
02:51:26.330,,-384,967,74
02:51:26.367,,-351,949,147
02:51:26.404,,-390,968,273
02:51:26.441,,-410,1021,256
02:51:26.478,,-356,1181,191
02:51:26.515,,-238,1199,244
02:51:26.552,,-251,1073,212
02:51:26.589,,-293,847,45
02:51:26.627,,-273,803,107
02:51:26.664,,-311,765,135
02:51:26.701,,-332,647,135
02:51:26.738,,-354,583,152
02:51:26.775,,-406,638,178
02:51:26.812,,-458,729,189
02:51:26.849,,-555,777,153
02:51:26.886,,-586,887,117
02:51:26.923,,-529,1020,100
02:51:26.960,,-536,932,63
02:51:26.997,,-609,1004,5
02:51:27.034,,-485,1293,7
02:51:27.071,,-350,1137,175
02:51:27.108,,-363,901,174
02:51:27.145,,-333,978,129
02:51:27.182,,-292,911,131
02:51:27.220,,-328,642,63
02:51:27.257,,-387,624,59
02:51:27.294,,-395,655,61
02:51:27.331,,-403,733,92
02:51:27.368,,-422,818,113
02:51:27.405,,-473,954,64
02:51:27.442,,-416,1056,107
02:51:27.479,,-340,1125,179
02:51:27.516,,-304,1105,141
02:51:27.553,,-162,1349,193
02:51:27.590,,-46,1296,200
02:51:27.627,,-113,887,185
02:51:27.664,,-211,713,217
02:51:27.701,,-300,694,215
02:51:27.738,,-390,749,210
02:51:27.776,,-397,847,246
02:51:27.813,,-335,803,243
02:51:27.850,,-299,673,228
02:51:27.887,,-331,647,207
02:51:27.924,,-415,721,177
02:51:27.961,,-488,917,194
02:51:27.998,,-451,1183,173
02:51:28.035,,-528,1099,97
02:51:28.072,,-554,1194,72
02:51:28.109,,-438,1080,38
02:51:28.146,,-374,958,70
02:51:28.183,,-349,817,92
02:51:28.220,,-352,763,78
02:51:28.257,,-296,781,112
02:51:28.294,,-308,722,200
02:51:28.331,,-283,562,257
02:51:28.369,,-334,565,176
02:51:28.406,,-481,784,81
02:51:28.443,,-521,1225,28
02:51:28.480,,-349,1410,12
02:51:28.517,,-241,1107,120
02:51:28.554,,-406,981,170
02:51:28.591,,-467,1089,198
02:51:28.628,,-225,1188,303
02:51:28.665,,-92,1123,396
02:51:28.702,,-169,1054,308
02:51:28.739,,-173,820,223
02:51:28.776,,-171,649,237
02:51:28.813,,-196,630,169
02:51:28.850,,-249,604,182
02:51:28.887,,-318,544,211
02:51:28.925,,-377,595,213
02:51:28.962,,-421,719,290
02:51:28.999,,-444,777,313
02:51:29.036,,-491,871,287
02:51:29.073,,-646,953,283
02:51:29.110,,-803,1181,280
02:51:29.147,,-732,1344,295
02:51:29.184,,-582,1119,303
02:51:29.221,,-526,847,246
02:51:29.258,,-486,679,203
02:51:29.295,,-536,532,118
02:51:29.332,,-673,501,0
02:51:29.369,,-636,540,38
02:51:29.406,,-565,465,67
02:51:29.443,,-524,492,82
02:51:29.480,,-548,535,151
02:51:29.518,,-632,716,266
02:51:29.555,,-449,965,448
02:51:29.592,,-427,996,581
02:51:29.629,,-500,1266,482
02:51:29.666,,-379,1313,489
02:51:29.703,,-195,1274,518
02:51:29.740,,-253,1049,411
02:51:29.777,,-312,855,277
02:51:29.814,,-291,656,253
02:51:29.851,,-274,589,269
02:51:29.888,,-282,556,282
02:51:29.925,,-317,477,302
02:51:29.962,,-356,558,371
02:51:29.999,,-418,594,480
02:51:30.036,,-535,585,420
02:51:30.073,,-578,879,397
02:51:30.110,,-528,1262,395
02:51:30.148,,-541,1261,345
02:51:30.185,,-569,1156,292
02:51:30.222,,-496,971,216
02:51:30.259,,-471,825,189
02:51:30.296,,-437,745,184
02:51:30.333,,-385,716,191
02:51:30.370,,-338,709,216
02:51:30.407,,-339,618,218
02:51:30.444,,-360,649,230
02:51:30.481,,-406,711,245
02:51:30.518,,-454,743,240
02:51:30.555,,-526,799,186
02:51:30.592,,-601,1045,204
02:51:30.629,,-481,1192,353
02:51:30.666,,-434,1091,359
02:51:30.703,,-425,1119,265
02:51:30.741,,-249,1297,337
02:51:30.778,,-95,1143,463
02:51:30.815,,-110,955,456
02:51:30.852,,-183,817,298
02:51:30.889,,-246,705,99
02:51:30.926,,-254,777,118
02:51:30.963,,-327,684,222
02:51:31.000,,-342,650,175
02:51:31.037,,-373,697,204
02:51:31.074,,-425,693,293
02:51:31.111,,-500,693,285
02:51:31.148,,-564,880,344
02:51:31.185,,-515,1044,388
02:51:31.222,,-531,1134,298
02:51:31.259,,-651,1075,234
02:51:31.296,,-749,1060,212
02:51:31.333,,-676,1091,233
02:51:31.371,,-654,963,171
02:51:31.408,,-581,718,133
02:51:31.445,,-493,454,219
02:51:31.482,,-419,383,278
02:51:31.519,,-431,394,289
02:51:31.556,,-475,405,279
02:51:31.593,,-533,296,319
02:51:31.630,,-608,293,391
02:51:31.667,,-738,377,419
02:51:31.704,,-834,588,439
02:51:31.741,,-851,648,533
02:51:31.778,,-913,711,586
02:51:31.815,,-916,829,521
02:51:31.852,,-722,930,511
02:51:31.889,,-504,932,440
02:51:31.926,,-547,839,419
02:51:31.963,,-549,753,427
02:51:32.001,,-550,589,428
02:51:32.038,,-553,469,409
02:51:32.075,,-535,361,366
02:51:32.112,,-536,198,339
02:51:32.149,,-571,243,349
02:51:32.186,,-639,290,374
02:51:32.223,,-735,286,379
02:51:32.260,,-879,455,384
02:51:32.297,,-908,603,404
02:51:32.334,,-977,580,412
02:51:32.371,,-1186,795,281
02:51:32.408,,-1159,713,101
02:51:32.445,,-943,713,-26
02:51:32.482,,-834,688,2
02:51:32.519,,-798,678,22
02:51:32.556,,-679,596,124
02:51:32.594,,-588,414,166
02:51:32.631,,-606,301,132
02:51:32.668,,-609,317,106
02:51:32.705,,-634,393,103
02:51:32.742,,-720,467,147
02:51:32.779,,-819,580,160
02:51:32.816,,-887,643,172
02:51:32.853,,-932,780,249
02:51:32.890,,-1026,907,63
02:51:32.927,,-911,1143,30
02:51:32.964,,-620,1280,287
02:51:33.001,,-488,1045,286
02:51:33.038,,-449,787,185
02:51:33.075,,-460,611,196
02:51:33.112,,-498,562,191
02:51:33.149,,-518,510,142
02:51:33.186,,-478,429,136
02:51:33.224,,-511,398,144
02:51:33.261,,-584,451,182
02:51:33.298,,-682,480,212
02:51:33.335,,-807,589,136
02:51:33.372,,-892,843,14
02:51:33.409,,-857,928,44
02:51:33.446,,-1037,894,113
02:51:33.483,,-1092,862,49
02:51:33.520,,-901,861,128
02:51:33.557,,-869,709,32
02:51:33.594,,-793,717,-8
02:51:33.631,,-664,754,65
02:51:33.668,,-575,571,123
02:51:33.705,,-530,375,150
02:51:33.742,,-540,330,142
02:51:33.780,,-580,352,144
02:51:33.817,,-654,385,152
02:51:33.854,,-756,441,165
02:51:33.891,,-891,603,166
02:51:33.928,,-962,822,174
02:51:33.965,,-1012,882,230
02:51:34.002,,-1011,1053,272
02:51:34.039,,-805,1116,284
02:51:34.076,,-562,981,277
02:51:34.113,,-494,837,233
02:51:34.150,,-464,659,208
02:51:34.187,,-508,525,199
02:51:34.224,,-544,452,242
02:51:34.261,,-577,435,254
02:51:34.298,,-609,362,224
02:51:34.335,,-640,345,207
02:51:34.372,,-686,377,270
02:51:34.410,,-746,412,311
02:51:34.447,,-817,506,273
02:51:34.484,,-875,737,235
02:51:34.521,,-863,773,281
02:51:34.558,,-993,731,297
02:51:34.595,,-1112,714,101
02:51:34.632,,-1016,685,-4
02:51:34.669,,-873,570,39
02:51:34.706,,-849,582,-79
02:51:34.743,,-738,608,-34
02:51:34.780,,-638,509,30
02:51:34.817,,-620,444,73
02:51:34.854,,-579,457,110
02:51:34.891,,-597,368,123
02:51:34.928,,-653,445,139
02:51:34.966,,-751,531,139
02:51:35.003,,-897,681,97
02:51:35.040,,-945,847,119
02:51:35.077,,-1005,841,216
02:51:35.114,,-1104,983,185
02:51:35.151,,-928,1123,66
02:51:35.188,,-563,1097,141
02:51:35.225,,-428,835,172
02:51:35.262,,-418,731,110
02:51:35.299,,-433,622,155
02:51:35.336,,-511,519,180
02:51:35.373,,-539,472,160
02:51:35.410,,-549,425,164
02:51:35.447,,-607,404,183
02:51:35.484,,-634,432,234
02:51:35.521,,-665,478,298
02:51:35.559,,-706,540,313
02:51:35.596,,-802,741,226
02:51:35.633,,-827,738,163
02:51:35.670,,-993,777,161
02:51:35.707,,-1158,821,90
02:51:35.744,,-1065,913,-87
02:51:35.781,,-838,678,-84
02:51:35.818,,-785,660,-96
02:51:35.855,,-683,694,-91
02:51:35.892,,-623,627,-39
02:51:35.929,,-617,546,38
02:51:35.966,,-595,469,101
02:51:36.003,,-587,434,132
02:51:36.040,,-633,420,119
02:51:36.077,,-667,467,131
02:51:36.114,,-700,534,142
02:51:36.151,,-816,659,71
02:51:36.189,,-869,921,29
02:51:36.226,,-854,892,71
02:51:36.263,,-850,1008,39
02:51:36.300,,-725,1153,50
02:51:36.337,,-491,976,111
02:51:36.374,,-413,901,76
02:51:36.411,,-423,827,36
02:51:36.448,,-438,801,54
02:51:36.485,,-414,673,89
02:51:36.522,,-388,552,113
02:51:36.559,,-375,462,112
02:51:36.596,,-394,437,90
02:51:36.633,,-436,503,80
02:51:36.670,,-498,577,63
02:51:36.707,,-617,740,21
02:51:36.744,,-694,982,-21
02:51:36.782,,-672,1145,-4
02:51:36.819,,-719,1196,8
02:51:36.856,,-778,1179,39
02:51:36.893,,-716,1144,62
02:51:36.930,,-623,1015,80
02:51:36.967,,-565,1014,92
02:51:37.004,,-504,965,67
02:51:37.041,,-435,838,35
02:51:37.078,,-386,738,12
02:51:37.115,,-360,643,22
02:51:37.152,,-366,603,28
02:51:37.189,,-374,622,64
02:51:37.226,,-393,645,55
02:51:37.263,,-452,698,36
02:51:37.300,,-559,929,29
02:51:37.337,,-538,1044,112
02:51:37.375,,-554,1027,143
02:51:37.412,,-551,1241,195
02:51:37.449,,-382,1301,240
02:51:37.486,,-249,1120,190
02:51:37.523,,-234,1017,176
02:51:37.560,,-220,881,161
02:51:37.597,,-250,692,166
02:51:37.634,,-294,586,170
02:51:37.671,,-325,559,201
02:51:37.708,,-373,590,197
02:51:37.745,,-431,642,207
02:51:37.782,,-474,762,265
02:51:37.819,,-528,749,286
02:51:37.856,,-607,910,246
02:51:37.893,,-563,1049,288
02:51:37.930,,-645,1005,267
02:51:37.967,,-783,1002,188
02:51:38.005,,-836,1070,143
02:51:38.042,,-695,1125,179
02:51:38.079,,-657,950,243
02:51:38.116,,-617,885,240
02:51:38.153,,-526,662,227
02:51:38.190,,-459,509,220
02:51:38.227,,-458,370,193
02:51:38.264,,-450,360,196
02:51:38.301,,-489,421,198
02:51:38.338,,-564,402,263
02:51:38.375,,-646,376,251
02:51:38.412,,-849,537,373
02:51:38.449,,-854,687,596
02:51:38.486,,-874,767,593
02:51:38.523,,-905,827,650
02:51:38.560,,-713,919,752
02:51:38.598,,-457,909,635
02:51:38.635,,-415,811,570
02:51:38.672,,-409,705,547
02:51:38.709,,-421,549,489
02:51:38.746,,-429,471,477
02:51:38.783,,-495,271,452
02:51:38.820,,-557,221,443
02:51:38.857,,-609,265,483
02:51:38.894,,-677,283,492
02:51:38.931,,-799,342,527
02:51:38.968,,-839,600,636
02:51:39.005,,-848,634,645
02:51:39.042,,-969,712,603
02:51:39.079,,-987,849,587
02:51:39.116,,-820,765,472
02:51:39.153,,-778,595,336
02:51:39.191,,-726,566,306
02:51:39.228,,-630,533,268
02:51:39.265,,-591,465,222
02:51:39.302,,-590,424,243
02:51:39.339,,-589,519,296
02:51:39.376,,-609,451,301
02:51:39.413,,-626,374,342
02:51:39.450,,-692,425,294
02:51:39.487,,-861,590,309
02:51:39.524,,-918,935,415
02:51:39.561,,-958,985,406
02:51:39.598,,-940,944,453
02:51:39.635,,-776,967,495
02:51:39.672,,-549,916,406
02:51:39.709,,-492,692,368
02:51:39.746,,-484,486,290
02:51:39.784,,-465,532,249
02:51:39.821,,-448,526,355
02:51:39.858,,-501,418,308
02:51:39.895,,-534,319,256
02:51:39.932,,-571,356,305
02:51:39.969,,-630,426,332
02:51:40.006,,-724,472,347
02:51:40.043,,-859,622,324
02:51:40.080,,-877,827,306
02:51:40.117,,-953,855,308
02:51:40.154,,-1041,918,311
02:51:40.191,,-1007,897,202
02:51:40.228,,-803,744,128
02:51:40.265,,-797,721,86
02:51:40.302,,-713,638,44
02:51:40.339,,-580,598,64
02:51:40.376,,-515,529,126
02:51:40.414,,-546,446,158
02:51:40.451,,-563,455,167
02:51:40.488,,-597,449,168
02:51:40.525,,-633,429,187
02:51:40.562,,-734,491,221
02:51:40.599,,-910,672,209
02:51:40.636,,-945,823,249
02:51:40.673,,-944,885,296
02:51:40.710,,-871,1004,341
02:51:40.747,,-653,1151,336
02:51:40.784,,-445,980,299
02:51:40.821,,-392,839,275
02:51:40.858,,-397,774,214
02:51:40.895,,-473,711,191
02:51:40.932,,-501,598,266
02:51:40.969,,-537,547,272
02:51:41.006,,-542,472,261
02:51:41.044,,-547,449,296
02:51:41.081,,-573,465,326
02:51:41.118,,-610,481,330
02:51:41.155,,-736,638,285
02:51:41.192,,-785,818,249
02:51:41.229,,-821,842,251
02:51:41.266,,-958,973,234
02:51:41.303,,-983,995,214
02:51:41.340,,-796,823,164
02:51:41.377,,-732,582,58
02:51:41.414,,-764,708,-27
02:51:41.451,,-660,694,-33
02:51:41.488,,-567,575,33
02:51:41.525,,-560,493,91
02:51:41.562,,-558,446,124
02:51:41.600,,-588,448,125
02:51:41.637,,-650,486,128
02:51:41.674,,-675,567,183
02:51:41.711,,-791,615,143
02:51:41.748,,-905,750,106
02:51:41.785,,-888,886,178
02:51:41.822,,-871,828,239
02:51:41.859,,-778,1046,243
02:51:41.896,,-573,1156,220
02:51:41.933,,-349,954,212
02:51:41.970,,-352,871,123
02:51:42.007,,-328,884,84
02:51:42.044,,-355,766,90
02:51:42.081,,-386,623,114
02:51:42.118,,-419,552,172
02:51:42.155,,-450,501,195
02:51:42.192,,-492,484,223
02:51:42.230,,-533,525,239
02:51:42.267,,-568,555,233
02:51:42.304,,-651,733,200
02:51:42.341,,-696,981,195
02:51:42.378,,-693,1014,208
02:51:42.415,,-793,1092,163
02:51:42.452,,-833,1234,105
02:51:42.489,,-677,1270,130
02:51:42.526,,-540,993,179
02:51:42.563,,-557,802,117
02:51:42.600,,-484,805,70
02:51:42.637,,-425,727,74
02:51:42.674,,-412,605,55
02:51:42.711,,-393,526,28
02:51:42.748,,-407,502,7
02:51:42.786,,-450,570,15
02:51:42.823,,-474,662,61
02:51:42.860,,-550,729,85
02:51:42.897,,-687,906,60
02:51:42.934,,-655,1123,150
02:51:42.971,,-650,1164,232
02:51:43.008,,-637,1265,137
02:51:43.045,,-435,1409,121
02:51:43.082,,-237,1191,187
02:51:43.119,,-246,988,116
02:51:43.156,,-236,830,30
02:51:43.193,,-262,687,55
02:51:43.230,,-315,608,89
02:51:43.267,,-354,577,109
02:51:43.304,,-384,539,124
02:51:43.342,,-420,560,137
02:51:43.379,,-466,590,169
02:51:43.416,,-505,624,185
02:51:43.453,,-597,712,160
02:51:43.490,,-697,940,122
02:51:43.527,,-669,1108,122
02:51:43.564,,-724,1156,100
02:51:43.601,,-761,1153,69
02:51:43.638,,-672,1129,70
02:51:43.675,,-568,930,90
02:51:43.712,,-536,831,41
02:51:43.749,,-504,813,-6
02:51:43.786,,-457,744,-22
02:51:43.823,,-414,625,-11
02:51:43.860,,-398,517,9
02:51:43.897,,-410,489,10
02:51:43.935,,-445,532,16
02:51:43.972,,-482,598,31
02:51:44.009,,-529,684,50
02:51:44.046,,-686,862,22
02:51:44.083,,-670,1096,49
02:51:44.120,,-607,1250,158
02:51:44.157,,-578,1253,111
02:51:44.194,,-418,1363,53
02:51:44.231,,-200,1229,113
02:51:44.268,,-179,1057,152
02:51:44.305,,-208,927,52
02:51:44.342,,-256,759,51
02:51:44.379,,-317,672,109
02:51:44.416,,-355,623,121
02:51:44.453,,-380,548,105
02:51:44.490,,-397,545,125
02:51:44.528,,-437,590,146
02:51:44.565,,-475,615,153
02:51:44.602,,-561,734,138
02:51:44.639,,-640,1066,123
02:51:44.676,,-577,1224,148
02:51:44.713,,-624,1185,156
02:51:44.750,,-653,1049,116
02:51:44.787,,-598,926,66
02:51:44.824,,-593,836,47
02:51:44.861,,-604,902,-5
02:51:44.898,,-524,1043,-29
02:51:44.935,,-425,823,-16
02:51:44.972,,-384,610,11
02:51:45.009,,-353,529,39
02:51:45.046,,-354,504,62
02:51:45.083,,-409,543,65
02:51:45.121,,-455,642,86
02:51:45.158,,-521,709,83
02:51:45.195,,-655,873,39
02:51:45.232,,-641,1055,63
02:51:45.269,,-599,1117,139
02:51:45.306,,-544,1176,53
02:51:45.343,,-452,1323,8
02:51:45.380,,-261,1296,92
02:51:45.417,,-215,1099,116
02:51:45.454,,-248,984,-2
02:51:45.491,,-234,829,-29
02:51:45.528,,-250,703,30
02:51:45.565,,-278,663,79
02:51:45.602,,-303,605,111
02:51:45.639,,-344,558,122
02:51:45.677,,-390,570,141
02:51:45.714,,-422,646,183
02:51:45.751,,-473,687,199
02:51:45.788,,-578,912,199
02:51:45.825,,-573,1096,214
02:51:45.862,,-623,1039,183
02:51:45.899,,-717,1093,108
02:51:45.936,,-710,1246,76
02:51:45.973,,-594,1196,67
02:51:46.010,,-508,945,47
02:51:46.047,,-486,848,3
02:51:46.084,,-431,822,11
02:51:46.121,,-391,698,-4
02:51:46.158,,-377,616,10
02:51:46.195,,-372,584,33
02:51:46.232,,-383,530,43
02:51:46.270,,-422,534,60
02:51:46.307,,-477,620,98
02:51:46.344,,-558,702,110
02:51:46.381,,-665,854,98
02:51:46.418,,-706,1040,110
02:51:46.455,,-654,1136,159
02:51:46.492,,-598,1249,155
02:51:46.529,,-482,1410,132
02:51:46.566,,-220,1277,135
02:51:46.603,,-107,996,158
02:51:46.640,,-132,860,130
02:51:46.677,,-174,832,100
02:51:46.714,,-234,715,128
02:51:46.751,,-302,645,170
02:51:46.788,,-361,623,191
02:51:46.826,,-421,614,178
02:51:46.863,,-463,632,185
02:51:46.900,,-496,663,197
02:51:46.937,,-524,677,177
02:51:46.974,,-590,769,136
02:51:47.011,,-625,1005,117
02:51:47.048,,-522,1132,129
02:51:47.085,,-545,1015,118
02:51:47.122,,-653,952,64
02:51:47.159,,-666,1063,39
02:51:47.196,,-585,1046,90
02:51:47.233,,-615,916,80
02:51:47.270,,-633,933,26
02:51:47.307,,-621,914,5
02:51:47.344,,-551,778,12
02:51:47.382,,-518,656,60
02:51:47.419,,-536,624,103
02:51:47.456,,-528,543,73
02:51:47.493,,-562,568,81
02:51:47.530,,-599,548,144
02:51:47.567,,-704,616,132
02:51:47.604,,-794,790,152
02:51:47.641,,-732,871,281
02:51:47.678,,-799,841,305
02:51:47.715,,-866,955,246
02:51:47.752,,-677,1134,348
02:51:47.789,,-520,970,393
02:51:47.826,,-532,738,339
02:51:47.863,,-479,558,301
02:51:47.900,,-480,487,276
02:51:47.937,,-511,457,260
02:51:47.975,,-533,432,300
02:51:48.012,,-526,391,324
02:51:48.049,,-553,310,309
02:51:48.086,,-603,289,337
02:51:48.123,,-681,376,391
02:51:48.160,,-774,527,429
02:51:48.197,,-870,625,497
02:51:48.234,,-916,565,506
02:51:48.271,,-1047,664,498
02:51:48.308,,-1124,616,389
02:51:48.345,,-1172,671,241
02:51:48.382,,-980,729,216
02:51:48.419,,-890,621,142
02:51:48.456,,-808,441,55
02:51:48.493,,-712,337,62
02:51:48.531,,-665,340,72
02:51:48.568,,-664,418,98
02:51:48.605,,-654,297,149
02:51:48.642,,-683,293,188
02:51:48.679,,-727,285,210
02:51:48.716,,-771,322,242
02:51:48.753,,-875,391,264
02:51:48.790,,-1019,541,272
02:51:48.827,,-1016,693,344
02:51:48.864,,-1044,716,419
02:51:48.901,,-1077,859,300
02:51:48.938,,-924,1024,235
02:51:48.975,,-630,988,385
02:51:49.012,,-560,786,317
02:51:49.049,,-476,567,265
02:51:49.086,,-449,544,277
02:51:49.124,,-458,523,257
02:51:49.161,,-471,489,294
02:51:49.198,,-490,414,301
02:51:49.235,,-542,396,317
02:51:49.272,,-609,407,348
02:51:49.309,,-750,479,335
02:51:49.346,,-863,742,302
02:51:49.383,,-865,857,309
02:51:49.420,,-864,778,355
02:51:49.457,,-918,741,281
02:51:49.494,,-1028,794,93
02:51:49.531,,-783,646,70
02:51:49.568,,-766,547,-21
02:51:49.605,,-649,572,-16
02:51:49.642,,-600,578,20
02:51:49.680,,-613,530,50
02:51:49.717,,-592,482,89
02:51:49.754,,-668,476,119
02:51:49.791,,-756,505,114
02:51:49.828,,-794,574,150
02:51:49.865,,-825,617,154
02:51:49.902,,-836,707,143
02:51:49.939,,-844,827,214
02:51:49.976,,-871,867,276
02:51:50.013,,-866,1065,217
02:51:50.050,,-711,1367,185
02:51:50.087,,-451,1105,310
02:51:50.124,,-365,806,277
02:51:50.161,,-431,721,96
02:51:50.198,,-473,629,113
02:51:50.235,,-553,527,103
02:51:50.273,,-619,528,103
02:51:50.310,,-595,541,177
02:51:50.347,,-576,466,200
02:51:50.384,,-589,440,239
02:51:50.421,,-608,438,304
02:51:50.458,,-693,513,296
02:51:50.495,,-799,672,265
02:51:50.532,,-773,626,319
02:51:50.569,,-832,790,267
02:51:50.606,,-975,909,112
02:51:50.643,,-1039,1019,40
02:51:50.680,,-925,1039,36
02:51:50.717,,-855,856,50
02:51:50.754,,-749,618,53
02:51:50.791,,-644,455,68
02:51:50.828,,-614,412,64
02:51:50.865,,-602,361,93
02:51:50.903,,-591,330,130
02:51:50.940,,-652,361,109
02:51:50.977,,-706,293,136
02:51:51.014,,-774,387,155
02:51:51.051,,-870,489,184
02:51:51.088,,-953,693,229
02:51:51.125,,-893,761,340
02:51:51.162,,-1013,815,321
02:51:51.199,,-1026,989,398
02:51:51.236,,-678,1123,579
02:51:51.273,,-484,932,562
02:51:51.310,,-536,584,545
02:51:51.347,,-515,572,479
02:51:51.384,,-530,615,423
02:51:51.421,,-548,468,343
02:51:51.458,,-541,362,299
02:51:51.495,,-555,404,338
02:51:51.533,,-603,366,367
02:51:51.570,,-651,307,423
02:51:51.607,,-746,356,486
02:51:51.644,,-789,510,549
02:51:51.681,,-823,500,520
02:51:51.718,,-946,519,456
02:51:51.755,,-1034,649,359
02:51:51.792,,-964,740,236
02:51:51.829,,-888,679,108
02:51:51.866,,-874,620,58
02:51:51.903,,-815,574,55
02:51:51.940,,-718,516,66
02:51:51.977,,-690,539,112
02:51:52.014,,-685,402,134
02:51:52.051,,-668,384,148
02:51:52.088,,-698,386,119
02:51:52.126,,-747,436,107
02:51:52.163,,-807,447,141
02:51:52.200,,-855,504,166
02:51:52.237,,-988,576,149
02:51:52.274,,-975,666,191
02:51:52.311,,-980,638,186
02:51:52.348,,-1106,761,147
02:51:52.385,,-951,1050,180
02:51:52.422,,-577,1042,269
02:51:52.459,,-480,767,242
02:51:52.496,,-515,583,179
02:51:52.533,,-531,602,219
02:51:52.570,,-628,559,237
02:51:52.607,,-720,502,197
02:51:52.644,,-714,405,206
02:51:52.681,,-683,348,216
02:51:52.719,,-691,346,245
02:51:52.756,,-698,306,272
02:51:52.793,,-730,326,255
02:51:52.830,,-866,546,226
02:51:52.867,,-848,686,261
02:51:52.904,,-877,603,227
02:51:52.941,,-1080,655,22
02:51:52.978,,-1157,777,-51
02:51:53.015,,-943,718,-22
02:51:53.052,,-909,780,-39
02:51:53.089,,-802,722,-13
02:51:53.126,,-676,597,41
02:51:53.163,,-658,491,96
02:51:53.200,,-661,454,117
