Sensors' Acquisition [Hz]: Acc@26.0 
hh:mm:ss.ms, Annotation , AccX [mg], AccY, AccZ
01:07:32.349,,1037,500,31
01:07:32.386,,1258,589,-33
01:07:32.409,>Walk,,,
01:07:32.423,,984,549,-53
01:07:32.460,,719,540,-11
01:07:32.497,,782,577,-109
01:07:32.534,,896,645,-288
01:07:32.571,,846,724,-355
01:07:32.608,,782,620,-294
01:07:32.645,,830,538,-245
01:07:32.682,,911,538,-171
01:07:32.719,,963,478,-96
01:07:32.756,,991,351,-15
01:07:32.793,,955,333,-4
01:07:32.830,,900,370,48
01:07:32.867,,844,355,80
01:07:32.904,,906,283,60
01:07:32.941,,1137,444,46
01:07:32.978,,787,543,206
01:07:33.015,,601,564,382
01:07:33.052,,757,450,216
01:07:33.089,,987,300,-76
01:07:33.127,,1085,290,-27
01:07:33.164,,974,403,66
01:07:33.201,,820,483,101
01:07:33.238,,811,489,84
01:07:33.275,,833,497,5
01:07:33.312,,828,474,-5
01:07:33.349,,793,480,13
01:07:33.386,,746,478,57
01:07:33.423,,740,497,50
01:07:33.460,,837,505,43
01:07:33.497,,851,529,17
01:07:33.534,,885,546,98
01:07:33.571,,982,533,78
01:07:33.608,,1187,583,-50
01:07:33.645,,1290,588,-77
01:07:33.682,,817,470,3
01:07:33.719,,655,443,0
01:07:33.756,,883,516,-125
01:07:33.793,,1038,542,-120
01:07:33.830,,984,387,-167
01:07:33.867,,948,366,-110
01:07:33.904,,929,388,-83
01:07:33.941,,896,402,-32
01:07:33.979,,851,420,33
01:07:34.016,,767,390,63
01:07:34.053,,702,338,51
01:07:34.090,,686,300,50
01:07:34.127,,728,335,98
01:07:34.164,,774,398,163
01:07:34.201,,1112,461,80
01:07:34.238,,1431,573,55
01:07:34.275,,1125,588,182
01:07:34.312,,963,556,188
01:07:34.349,,949,480,25
01:07:34.386,,941,378,10
01:07:34.423,,898,382,13
01:07:34.460,,802,476,-43
01:07:34.497,,767,515,-52
01:07:34.534,,734,435,-46
01:07:34.571,,674,432,-43
01:07:34.608,,632,503,37
01:07:34.645,,644,527,86
01:07:34.682,,724,593,137
01:07:34.719,,782,572,169
01:07:34.756,,864,508,143
01:07:34.793,,895,450,106
01:07:34.830,,856,441,86
01:07:34.867,,1133,550,61
01:07:34.904,,1235,616,-1
01:07:34.941,,945,480,-58
01:07:34.979,,782,422,-36
01:07:35.016,,839,469,-46
01:07:35.053,,980,489,-82
01:07:35.090,,1049,469,-126
01:07:35.127,,967,479,-113
01:07:35.164,,853,476,-108
01:07:35.201,,753,501,-128
01:07:35.238,,682,664,-312
01:07:35.275,,676,630,-431
01:07:35.312,,759,921,-358
01:07:35.349,,880,540,-316
01:07:35.386,,866,-61,-86
01:07:35.423,,1002,119,-65
01:07:35.460,,1283,567,148
01:07:35.497,,1420,572,889
01:07:35.534,,1061,-157,651
01:07:35.571,,885,-147,265
01:07:35.608,,906,80,42
01:07:35.645,,1014,417,14
01:07:35.682,,1066,474,-21
01:07:35.719,,971,538,-115
01:07:35.756,,864,537,-178
01:07:35.793,,789,423,-204
01:07:35.830,,766,362,-175
01:07:35.867,,799,385,-102
01:07:35.905,,802,434,-32
01:07:35.942,,773,532,73
01:07:35.979,,821,632,144
01:07:36.016,,885,638,141
01:07:36.053,,1266,-405,631
01:07:36.090,,1708,-243,626
01:07:36.127,,1015,979,329
01:07:36.164,,1069,406,171
01:07:36.201,,892,196,23
01:07:36.238,,846,405,-154
01:07:36.275,,1002,526,-103
01:07:36.312,,857,468,-390
01:07:36.349,,658,492,-554
01:07:36.386,,669,561,-680
01:07:36.423,,739,580,-388
01:07:36.460,,690,493,-328
01:07:36.497,,664,471,-330
01:07:36.534,,643,514,-243
01:07:36.571,,619,439,-198
01:07:36.608,,614,345,-206
01:07:36.645,,648,266,-158
01:07:36.682,,805,203,-74
01:07:36.719,,1213,386,-21
01:07:36.756,,1360,625,87
01:07:36.793,,1091,641,245
01:07:36.830,,961,487,393
01:07:36.868,,991,207,294
01:07:36.905,,1124,191,260
01:07:36.942,,1096,310,133
01:07:36.979,,926,578,1
01:07:37.016,,766,636,-25
01:07:37.053,,705,537,-42
01:07:37.090,,650,466,-32
01:07:37.127,,607,439,-27
01:07:37.164,,592,484,4
01:07:37.201,,617,515,50
01:07:37.238,,708,538,85
01:07:37.275,,879,521,45
01:07:37.312,,892,429,-8
01:07:37.349,,1071,475,17
01:07:37.386,,1169,584,24
01:07:37.423,,1034,595,23
01:07:37.460,,875,567,31
01:07:37.497,,810,560,42
01:07:37.534,,954,538,-11
01:07:37.571,,1097,543,-41
01:07:37.608,,1029,485,-8
01:07:37.645,,934,360,25
01:07:37.682,,922,333,5
01:07:37.719,,942,363,10
01:07:37.756,,925,379,6
01:07:37.793,,856,390,-11
01:07:37.831,,798,379,-16
01:07:37.868,,739,342,-24
01:07:37.905,,691,290,-32
01:07:37.942,,653,305,23
01:07:37.979,,771,354,62
01:07:38.016,,1080,459,22
01:07:38.053,,1216,487,-7
01:07:38.090,,1056,569,140
01:07:38.127,,1046,649,301
01:07:38.164,,998,443,40
01:07:38.201,,973,278,13
01:07:38.238,,955,329,43
01:07:38.275,,876,476,17
01:07:38.312,,756,495,26
01:07:38.349,,652,511,98
01:07:38.386,,619,379,68
01:07:38.423,,570,475,18
01:07:38.460,,609,481,53
01:07:38.497,,834,522,55
01:07:38.534,,941,549,6
01:07:38.571,,1003,568,0
01:07:38.608,,1340,708,33
01:07:38.645,,1145,625,6
01:07:38.682,,849,564,-14
01:07:38.719,,1037,546,-66
01:07:38.756,,912,439,-39
01:07:38.794,,861,432,34
01:07:38.831,,935,397,-4
01:07:38.868,,1009,309,-85
01:07:38.905,,1013,284,-99
01:07:38.942,,947,307,-77
01:07:38.979,,884,316,-79
01:07:39.016,,848,398,-105
01:07:39.053,,797,502,-56
01:07:39.090,,661,648,-289
01:07:39.127,,783,653,-429
01:07:39.164,,986,268,138
01:07:39.201,,1221,-806,672
01:07:39.238,,1210,-655,608
01:07:39.275,,1124,156,278
01:07:39.312,,970,618,30
01:07:39.349,,751,875,-12
01:07:39.386,,591,878,79
01:07:39.423,,557,568,-79
01:07:39.460,,574,563,-176
01:07:39.497,,549,506,-355
01:07:39.534,,496,416,-405
01:07:39.571,,466,300,-415
01:07:39.608,,560,110,-396
01:07:39.645,,687,136,-220
01:07:39.682,,1235,580,185
01:07:39.719,,1349,726,69
01:07:39.756,,1420,705,177
01:07:39.794,,1423,-732,668
01:07:39.831,,1042,1713,316
01:07:39.868,,830,661,-41
01:07:39.905,,1023,352,145
01:07:39.942,,1095,-28,213
01:07:39.979,,890,210,272
01:07:40.016,,794,553,182
01:07:40.053,,842,500,173
01:07:40.090,,886,450,58
01:07:40.127,,890,395,28
01:07:40.164,,843,354,69
01:07:40.201,,825,325,84
01:07:40.238,,820,247,41
01:07:40.275,,796,210,-131
01:07:40.312,,801,362,-246
01:07:40.349,,978,798,-241
01:07:40.386,,1063,959,-259
01:07:40.423,,938,431,27
01:07:40.460,,859,-121,658
01:07:40.497,,1302,-296,1198
01:07:40.534,,1509,-205,601
01:07:40.571,,900,146,259
01:07:40.608,,689,400,1
01:07:40.645,,621,654,93
01:07:40.682,,557,449,0
01:07:40.719,,547,339,-36
01:07:40.756,,555,344,-86
01:07:40.794,,515,383,-88
01:07:40.831,,628,414,-6
01:07:40.868,,880,491,17
01:07:40.905,,1025,471,-123
01:07:40.942,,1250,512,-78
01:07:40.979,,1440,708,83
01:07:41.016,,944,589,101
01:07:41.053,,766,491,203
01:07:41.090,,1013,626,153
01:07:41.127,,1130,776,65
01:07:41.164,,921,478,92
01:07:41.201,,755,314,136
01:07:41.238,,757,357,68
01:07:41.275,,883,416,1
01:07:41.312,,953,365,-78
01:07:41.349,,913,354,-67
01:07:41.386,,875,355,-68
01:07:41.423,,901,351,-124
01:07:41.460,,973,342,-186
01:07:41.497,,895,344,-162
01:07:41.534,,1014,398,-139
01:07:41.571,,1050,436,-166
01:07:41.608,,895,444,-100
01:07:41.645,,782,548,111
01:07:41.682,,871,509,123
01:07:41.719,,968,190,125
01:07:41.756,,987,150,299
01:07:41.794,,926,480,700
01:07:41.831,,877,723,898
01:07:41.868,,657,409,427
01:07:41.905,,639,287,188
01:07:41.942,,588,272,136
01:07:41.979,,567,442,76
01:07:42.016,,624,455,61
01:07:42.053,,756,475,64
01:07:42.090,,953,449,25
01:07:42.127,,929,351,-62
01:07:42.164,,1004,398,-23
01:07:42.201,,1199,580,19
01:07:42.238,,1136,631,-18
01:07:42.275,,865,588,27
01:07:42.312,,825,595,98
01:07:42.349,,972,677,87
01:07:42.386,,1037,582,69
01:07:42.423,,899,356,115
01:07:42.460,,851,334,182
01:07:42.497,,904,374,98
01:07:42.534,,959,321,33
01:07:42.571,,900,202,-6
01:07:42.608,,780,166,-112
01:07:42.645,,717,383,-140
01:07:42.682,,744,349,-211
01:07:42.719,,814,411,-252
01:07:42.756,,831,407,-247
01:07:42.794,,1050,524,-193
01:07:42.831,,1123,659,-214
01:07:42.868,,893,742,-132
01:07:42.905,,803,628,173
01:07:42.942,,920,582,110
01:07:42.979,,1005,477,-27
01:07:43.016,,870,713,53
01:07:43.053,,813,479,-216
01:07:43.090,,692,-18,20
01:07:43.127,,650,347,-176
01:07:43.164,,572,460,-286
01:07:43.201,,521,449,-285
01:07:43.238,,505,413,-244
01:07:43.275,,547,615,-192
01:07:43.312,,748,686,-221
01:07:43.349,,824,1053,-351
01:07:43.386,,1191,509,-429
01:07:43.423,,1389,652,-116
01:07:43.460,,798,692,-142
01:07:43.497,,630,660,-66
01:07:43.534,,784,648,-98
01:07:43.571,,920,775,-153
01:07:43.608,,917,706,-125
01:07:43.645,,794,575,-86
01:07:43.682,,698,622,-11
01:07:43.719,,703,512,-86
01:07:43.757,,720,436,-61
01:07:43.794,,699,568,-75
01:07:43.831,,643,450,-142
01:07:43.868,,688,281,-35
01:07:43.905,,803,207,62
01:07:43.942,,772,224,-64
01:07:43.979,,893,270,-49
01:07:44.016,,1142,457,48
01:07:44.053,,1348,646,85
01:07:44.090,,1161,645,301
01:07:44.127,,916,494,501
01:07:44.164,,877,389,551
01:07:44.201,,989,364,351
01:07:44.238,,953,547,165
01:07:44.275,,872,531,137
01:07:44.312,,766,429,137
01:07:44.349,,710,386,115
01:07:44.386,,692,382,67
01:07:44.423,,655,451,19
01:07:44.460,,635,478,47
01:07:44.497,,645,489,69
01:07:44.534,,744,472,138
01:07:44.571,,867,435,92
01:07:44.608,,809,373,53
01:07:44.645,,1110,489,123
01:07:44.682,,1306,657,84
01:07:44.719,,1011,562,76
01:07:44.757,,749,439,135
01:07:44.794,,828,525,111
01:07:44.831,,1085,589,54
01:07:44.868,,1049,506,53
01:07:44.905,,847,412,87
01:07:44.942,,763,372,103
01:07:44.979,,827,382,37
01:07:45.016,,881,358,-27
01:07:45.053,,851,369,-24
01:07:45.090,,790,349,-16
01:07:45.127,,819,375,-30
01:07:45.164,,854,372,-68
01:07:45.201,,751,347,-38
01:07:45.238,,955,454,-9
01:07:45.275,,1169,646,81
01:07:45.312,,1004,598,177
01:07:45.349,,931,552,666
01:07:45.386,,1142,-295,491
01:07:45.423,,1147,-505,471
01:07:45.460,,902,747,627
01:07:45.497,,684,704,394
01:07:45.534,,515,457,101
01:07:45.571,,484,488,-10
01:07:45.608,,588,175,31
01:07:45.645,,660,-97,121
01:07:45.682,,662,97,151
01:07:45.719,,685,467,250
01:07:45.757,,752,555,212
01:07:45.794,,855,537,262
01:07:45.831,,897,417,243
01:07:45.868,,1151,387,200
01:07:45.905,,1304,506,186
01:07:45.942,,1082,652,121
01:07:45.979,,898,681,222
01:07:46.016,,837,602,285
01:07:46.053,,1046,643,199
01:07:46.090,,1091,564,154
01:07:46.127,,876,388,170
01:07:46.164,,781,353,173
01:07:46.201,,850,381,98
01:07:46.238,,881,369,32
01:07:46.275,,849,368,31
01:07:46.312,,794,362,17
01:07:46.349,,841,405,37
01:07:46.386,,935,385,-88
01:07:46.423,,951,374,-111
01:07:46.460,,1080,368,-104
01:07:46.497,,1166,404,-32
01:07:46.534,,918,381,135
01:07:46.571,,769,276,244
01:07:46.608,,909,249,326
01:07:46.646,,983,185,244
01:07:46.683,,912,217,193
01:07:46.720,,844,240,193
01:07:46.757,,769,236,117
01:07:46.794,,738,392,160
01:07:46.831,,732,502,187
01:07:46.868,,768,549,200
01:07:46.905,,767,516,221
01:07:46.942,,792,450,198
01:07:46.979,,846,453,187
01:07:47.016,,998,498,92
01:07:47.053,,999,521,52
01:07:47.090,,1172,566,99
01:07:47.127,,1096,575,33
01:07:47.164,,895,507,-17
01:07:47.201,,953,535,-10
01:07:47.238,,1095,641,-8
01:07:47.275,,1039,568,-9
01:07:47.312,,911,435,11
01:07:47.349,,870,322,15
01:07:47.386,,924,279,-51
01:07:47.423,,978,308,-66
01:07:47.460,,974,352,-46
01:07:47.497,,896,355,-24
01:07:47.534,,816,354,-7
01:07:47.572,,770,327,-127
01:07:47.609,,745,288,-191
01:07:47.646,,783,289,-94
01:07:47.683,,1006,386,27
01:07:47.720,,935,357,181
01:07:47.757,,917,340,244
01:07:47.794,,1099,493,411
01:07:47.831,,1196,470,321
01:07:47.868,,1113,404,260
01:07:47.905,,912,389,232
01:07:47.942,,754,329,139
01:07:47.979,,724,358,110
01:07:48.016,,743,445,105
01:07:48.053,,718,523,82
01:07:48.090,,637,541,100
01:07:48.127,,638,542,112
01:07:48.164,,798,573,135
01:07:48.201,,915,526,63
01:07:48.238,,1005,448,-3
01:07:48.275,,1459,541,5
01:07:48.312,,1299,550,-41
01:07:48.349,,950,451,-13
01:07:48.386,,778,478,70
01:07:48.423,,813,571,60
01:07:48.460,,967,578,0
01:07:48.497,,994,499,-7
01:07:48.534,,914,413,53
01:07:48.571,,833,251,-4
01:07:48.608,,830,240,8
01:07:48.646,,872,281,4
01:07:48.683,,905,319,-15
01:07:48.720,,904,323,-33
01:07:48.757,,879,322,-54
01:07:48.794,,876,325,-78
01:07:48.831,,936,348,-68
01:07:48.868,,1068,403,-63
01:07:48.905,,961,437,32
01:07:48.942,,788,430,173
01:07:48.979,,933,459,195
01:07:49.016,,1077,439,126
01:07:49.053,,977,384,135
01:07:49.090,,856,382,257
01:07:49.127,,782,422,191
01:07:49.164,,768,461,208
01:07:49.201,,775,475,212
01:07:49.238,,776,498,215
01:07:49.275,,744,496,233
01:07:49.312,,719,484,230
01:07:49.349,,776,481,215
01:07:49.386,,919,457,142
01:07:49.423,,983,435,77
01:07:49.460,,1287,512,86
01:07:49.498,,915,428,-19
01:07:49.535,,797,407,19
01:07:49.572,,918,486,-28
01:07:49.609,,1019,575,-39
01:07:49.646,,967,482,-8
01:07:49.683,,856,455,42
01:07:49.720,,818,377,57
01:07:49.757,,851,266,-10
01:07:49.794,,884,265,-20
01:07:49.831,,853,315,10
01:07:49.868,,823,344,14
01:07:49.905,,786,327,-30
01:07:49.942,,767,327,-41
01:07:49.979,,782,384,30
01:07:50.016,,986,435,68
01:07:50.053,,1175,487,75
01:07:50.090,,964,442,109
01:07:50.127,,870,493,296
01:07:50.164,,1083,542,298
01:07:50.201,,1072,418,112
01:07:50.238,,917,337,142
01:07:50.275,,826,374,100
01:07:50.312,,747,439,76
01:07:50.349,,688,451,101
01:07:50.387,,649,463,132
01:07:50.424,,617,475,151
01:07:50.461,,685,478,208
01:07:50.498,,771,482,250
01:07:50.535,,857,450,199
01:07:50.572,,899,379,96
01:07:50.609,,1025,440,99
01:07:50.646,,1358,609,94
01:07:50.683,,1097,564,15
01:07:50.720,,772,439,53
01:07:50.757,,861,493,50
01:07:50.794,,1094,590,-12
01:07:50.831,,1085,483,-24
01:07:50.868,,973,412,26
01:07:50.905,,925,360,-3
01:07:50.942,,947,396,-42
01:07:50.979,,964,420,-52
01:07:51.016,,915,440,-63
01:07:51.053,,814,394,-40
01:07:51.090,,723,345,-22
01:07:51.127,,658,308,-21
01:07:51.164,,640,296,-21
01:07:51.201,,700,364,69
01:07:51.238,,923,486,86
01:07:51.276,,1069,531,-1
01:07:51.313,,942,660,35
01:07:51.350,,984,850,141
01:07:51.387,,1074,786,-9
01:07:51.424,,980,466,-19
01:07:51.461,,926,281,87
01:07:51.498,,845,350,26
01:07:51.535,,780,517,-4
01:07:51.572,,674,479,35
01:07:51.609,,580,465,75
01:07:51.646,,585,481,141
01:07:51.683,,716,580,236
01:07:51.720,,783,625,268
01:07:51.757,,868,523,184
01:07:51.794,,1004,469,113
01:07:51.831,,1268,507,60
01:07:51.868,,1299,574,30
01:07:51.905,,831,467,3
01:07:51.942,,864,441,11
01:07:51.979,,1037,538,-35
01:07:52.016,,1102,575,-59
01:07:52.053,,987,441,-32
01:07:52.090,,860,354,-16
01:07:52.127,,809,311,-11
01:07:52.164,,812,304,-20
01:07:52.201,,834,316,-37
01:07:52.238,,829,319,-40
01:07:52.276,,822,318,-56
01:07:52.313,,810,309,-89
01:07:52.350,,756,313,-97
01:07:52.387,,775,357,-75
01:07:52.424,,877,439,54
01:07:52.461,,1158,534,193
01:07:52.498,,1278,289,-10
01:07:52.535,,935,535,433
01:07:52.572,,988,786,787
01:07:52.609,,1024,701,128
01:07:52.646,,930,614,32
01:07:52.683,,925,489,-82
01:07:52.720,,893,451,-158
01:07:52.757,,795,390,-120
01:07:52.794,,710,334,-81
01:07:52.831,,657,323,-114
01:07:52.868,,609,412,-126
01:07:52.905,,587,373,-5
01:07:52.942,,595,414,150
01:07:52.979,,685,425,206
01:07:53.016,,886,570,200
01:07:53.053,,979,566,212
01:07:53.090,,1126,550,153
01:07:53.127,,1288,585,77
01:07:53.164,,1104,519,-15
01:07:53.201,,796,462,30
01:07:53.238,,776,458,41
01:07:53.275,,1001,603,22
01:07:53.313,,1097,598,15
01:07:53.350,,993,397,-4
01:07:53.387,,849,278,-20
01:07:53.424,,811,317,-12
01:07:53.461,,845,349,-49
01:07:53.498,,884,357,-54
01:07:53.535,,878,338,-41
01:07:53.572,,857,302,-65
01:07:53.609,,839,323,-138
01:07:53.646,,857,324,-126
01:07:53.683,,818,355,-2
01:07:53.720,,960,436,123
01:07:53.757,,1139,384,58
01:07:53.794,,1130,286,18
01:07:53.831,,926,415,166
01:07:53.868,,801,598,340
01:07:53.905,,806,523,305
01:07:53.942,,942,420,185
01:07:53.979,,963,419,123
01:07:54.016,,861,428,96
01:07:54.053,,762,451,67
01:07:54.090,,740,441,50
01:07:54.127,,696,417,47
01:07:54.164,,652,465,63
01:07:54.202,,605,468,71
01:07:54.239,,651,516,92
01:07:54.276,,797,575,139
01:07:54.313,,959,545,70
01:07:54.350,,1050,490,49
01:07:54.387,,1282,593,95
01:07:54.424,,979,529,58
01:07:54.461,,772,451,49
01:07:54.498,,946,521,12
01:07:54.535,,1117,596,-41
01:07:54.572,,1048,505,-24
01:07:54.609,,916,445,9
01:07:54.646,,844,371,22
01:07:54.683,,846,278,-5
01:07:54.720,,874,303,0
01:07:54.757,,857,301,7
01:07:54.794,,894,361,11
01:07:54.831,,945,441,-36
01:07:54.868,,838,364,-62
01:07:54.905,,682,326,12
01:07:54.942,,616,416,133
01:07:54.979,,742,511,194
01:07:55.016,,1170,563,154
01:07:55.053,,1349,551,135
01:07:55.090,,772,412,347
01:07:55.127,,864,280,296
01:07:55.165,,1216,312,21
01:07:55.202,,1129,446,10
01:07:55.239,,887,419,48
01:07:55.276,,709,362,-19
01:07:55.313,,644,403,-87
01:07:55.350,,649,455,-91
01:07:55.387,,632,391,-75
01:07:55.424,,617,444,-7
01:07:55.461,,624,508,52
01:07:55.498,,781,637,143
01:07:55.535,,1002,561,99
01:07:55.572,,1247,546,56
01:07:55.609,,1226,674,13
01:07:55.646,,788,530,60
01:07:55.683,,718,496,71
01:07:55.720,,868,553,56
01:07:55.757,,984,520,26
01:07:55.794,,1013,505,30
01:07:55.831,,979,473,52
01:07:55.868,,888,396,66
01:07:55.905,,847,350,67
01:07:55.942,,859,340,23
01:07:55.979,,898,378,26
01:07:56.016,,881,316,-9
01:07:56.053,,834,327,-29
01:07:56.091,,776,294,-69
01:07:56.128,,818,336,-70
01:07:56.165,,896,381,-5
01:07:56.202,,990,397,32
01:07:56.239,,1140,451,98
01:07:56.276,,1021,305,169
01:07:56.313,,1050,246,145
01:07:56.350,,835,591,329
01:07:56.387,,846,337,180
01:07:56.424,,907,526,196
01:07:56.461,,913,463,119
01:07:56.498,,801,417,84
01:07:56.535,,735,414,112
01:07:56.572,,730,404,84
01:07:56.609,,739,416,104
01:07:56.646,,715,432,128
01:07:56.683,,665,465,167
01:07:56.720,,700,507,232
01:07:56.757,,858,518,236
01:07:56.794,,1033,470,138
01:07:56.831,,1349,551,126
01:07:56.868,,1127,494,74
01:07:56.905,,605,391,70
01:07:56.942,,763,418,73
01:07:56.979,,1149,568,-12
01:07:57.016,,1162,580,-44
01:07:57.053,,974,425,-4
01:07:57.091,,926,384,16
01:07:57.128,,912,335,-50
01:07:57.165,,892,339,-48
01:07:57.202,,877,369,-17
01:07:57.239,,830,357,9
01:07:57.276,,796,365,7
01:07:57.313,,716,372,26
01:07:57.350,,771,324,24
01:07:57.387,,892,440,85
01:07:57.424,,799,463,197
01:07:57.461,,797,295,233
01:07:57.498,,1013,258,294
01:07:57.535,,1295,404,325
01:07:57.572,,1160,435,366
01:07:57.609,,894,313,353
01:07:57.646,,762,533,214
01:07:57.683,,870,631,10
01:07:57.720,,927,589,-8
01:07:57.757,,804,479,1
01:07:57.794,,709,436,-7
01:07:57.831,,688,427,23
01:07:57.868,,681,411,41
01:07:57.905,,671,433,79
01:07:57.942,,662,462,127
01:07:57.979,,638,496,189
01:07:58.016,,646,491,275
01:07:58.053,,778,457,348
01:07:58.090,,916,447,283
01:07:58.128,,1124,536,251
01:07:58.165,,1336,668,214
01:07:58.202,,882,541,142
01:07:58.239,,822,465,160
01:07:58.276,,1024,553,89
01:07:58.313,,1097,554,57
01:07:58.350,,992,468,78
01:07:58.387,,908,386,96
01:07:58.424,,871,372,79
01:07:58.461,,887,390,48
01:07:58.498,,924,405,3
01:07:58.535,,915,436,-13
01:07:58.572,,882,418,-1
01:07:58.609,,850,454,-16
01:07:58.646,,764,368,-86
01:07:58.683,,717,305,-129
01:07:58.720,,712,320,-58
01:07:58.757,,769,326,122
01:07:58.794,,1014,273,184
01:07:58.831,,1365,245,171
01:07:58.868,,1092,513,281
01:07:58.905,,846,612,1066
01:07:58.942,,1138,146,269
01:07:58.979,,1112,382,-21
01:07:59.016,,984,473,147
01:07:59.053,,919,453,-25
01:07:59.090,,838,467,-114
01:07:59.127,,761,459,-102
01:07:59.165,,703,388,-102
01:07:59.202,,659,393,-89
01:07:59.239,,593,436,-31
01:07:59.276,,559,452,20
01:07:59.313,,748,521,76
01:07:59.350,,980,585,39
01:07:59.387,,1202,585,52
01:07:59.424,,1212,615,42
01:07:59.461,,859,628,91
01:07:59.498,,762,646,128
01:07:59.535,,953,653,92
01:07:59.572,,1104,642,6
01:07:59.609,,1072,541,-36
01:07:59.646,,991,412,0
01:07:59.683,,922,331,-8
01:07:59.720,,903,369,-20
01:07:59.757,,888,381,-50
01:07:59.794,,846,356,-52
01:07:59.831,,802,341,-45
01:07:59.868,,823,303,-61
01:07:59.905,,843,246,-135
01:07:59.942,,794,320,-107
01:07:59.979,,876,415,9
01:08:00.016,,976,459,36
01:08:00.053,,1054,456,50
01:08:00.090,,851,544,259
01:08:00.127,,902,655,486
01:08:00.165,,1084,547,313
01:08:00.202,,1099,418,175
01:08:00.239,,951,394,129
01:08:00.276,,810,444,63
01:08:00.313,,765,448,2
01:08:00.350,,687,432,-1
01:08:00.387,,624,463,-1
01:08:00.424,,580,487,32
01:08:00.461,,628,502,56
01:08:00.498,,905,545,31
01:08:00.535,,972,485,-110
01:08:00.572,,975,484,-24
01:08:00.609,,1142,574,56
01:08:00.646,,1039,593,-22
01:08:00.683,,902,528,-41
01:08:00.720,,1027,524,-49
01:08:00.757,,1176,582,-75
01:08:00.794,,1059,533,-13
01:08:00.831,,887,366,7
01:08:00.868,,805,291,-2
01:08:00.905,,847,349,-5
01:08:00.942,,937,368,-22
01:08:00.979,,954,356,-33
01:08:01.016,,856,351,-22
01:08:01.053,,786,338,-37
01:08:01.090,,760,327,-60
01:08:01.127,,766,329,-39
01:08:01.165,,881,385,-27
01:08:01.202,,1096,477,-7
01:08:01.239,,1078,502,97
01:08:01.276,,839,490,253
01:08:01.313,,970,515,262
01:08:01.350,,1016,415,93
01:08:01.387,,984,417,127
01:08:01.424,,934,466,141
01:08:01.461,,835,473,66
01:08:01.498,,772,446,59
01:08:01.535,,756,404,35
01:08:01.572,,733,416,70
01:08:01.609,,681,443,111
01:08:01.646,,631,476,135
01:08:01.683,,661,499,198
01:08:01.720,,849,485,209
01:08:01.757,,991,414,56
01:08:01.794,,1248,520,72
01:08:01.831,,1202,619,60
01:08:01.868,,825,513,40
01:08:01.905,,794,471,41
01:08:01.942,,919,508,-28
01:08:01.979,,1020,549,-79
01:08:02.016,,1055,506,-60
01:08:02.053,,1006,452,-79
01:08:02.090,,961,378,-79
01:08:02.127,,978,398,-68
01:08:02.165,,1026,381,-84
01:08:02.202,,1010,364,-110
01:08:02.239,,915,366,-120
01:08:02.276,,814,357,-86
01:08:02.313,,717,339,-44
01:08:02.350,,675,327,-16
01:08:02.387,,669,373,56
01:08:02.424,,698,433,156
01:08:02.461,,924,443,167
01:08:02.498,,1168,438,58
01:08:02.535,,982,481,205
01:08:02.572,,800,510,446
01:08:02.609,,1151,468,245
01:08:02.646,,1209,398,-40
01:08:02.683,,1009,372,25
01:08:02.720,,915,402,25
01:08:02.757,,831,486,-20
01:08:02.794,,819,517,-40
01:08:02.831,,758,452,-59
01:08:02.868,,630,422,-60
01:08:02.905,,630,457,-25
01:08:02.942,,687,492,-33
01:08:02.979,,762,563,61
01:08:03.016,,925,603,102
01:08:03.053,,882,537,68
01:08:03.090,,921,501,110
01:08:03.127,,1125,618,70
01:08:03.164,,1093,640,-21
01:08:03.202,,953,541,-17
01:08:03.239,,922,505,-32
01:08:03.276,,1018,565,-58
01:08:03.313,,1136,576,-65
01:08:03.350,,1144,467,-69
01:08:03.387,,1080,355,-64
01:08:03.424,,1012,300,-39
01:08:03.461,,977,316,-28
01:08:03.498,,934,323,-47
01:08:03.535,,844,343,-42
01:08:03.572,,753,330,-9
01:08:03.609,,668,306,-23
01:08:03.646,,654,371,0
01:08:03.683,,655,462,0
01:08:03.720,,606,560,60
01:08:03.757,,828,616,89
01:08:03.794,,966,649,62
01:08:03.831,,1024,576,-7
01:08:03.868,,903,545,58
01:08:03.905,,971,594,237
01:08:03.942,,1119,500,106
01:08:03.979,,1070,479,-31
01:08:04.016,,958,472,-1
01:08:04.053,,815,484,-4
01:08:04.090,,736,476,-11
01:08:04.127,,696,463,-22
01:08:04.164,,656,477,-10
01:08:04.201,,620,499,42
01:08:04.238,,615,560,102
01:08:04.276,,703,629,184
01:08:04.313,,910,617,166
01:08:04.350,,997,519,68
01:08:04.387,,1094,510,105
01:08:04.424,,1244,583,95
01:08:04.461,,962,527,31
01:08:04.498,,823,464,25
01:08:04.535,,1029,510,-34
01:08:04.572,,1200,605,-76
01:08:04.609,,1079,483,-57
01:08:04.646,,973,371,-22
01:08:04.683,,938,333,-60
01:08:04.720,,932,438,-86
01:08:04.757,,923,477,-88
01:08:04.794,,862,478,-57
01:08:04.831,,756,480,-43
01:08:04.868,,676,446,-27
01:08:04.905,,676,409,-67
01:08:04.942,,669,407,-76
01:08:04.979,,622,412,71
01:08:05.016,,852,474,149
01:08:05.053,,1009,539,200
01:08:05.090,,946,424,248
01:08:05.127,,953,318,273
01:08:05.164,,1066,379,238
01:08:05.201,,1076,405,129
01:08:05.239,,1023,426,104
01:08:05.276,,963,504,90
01:08:05.313,,851,358,17
01:08:05.350,,756,450,-46
01:08:05.387,,742,423,-39
01:08:05.424,,741,372,-31
01:08:05.461,,771,379,-26
01:08:05.498,,702,493,-14
01:08:05.535,,813,658,83
01:08:05.572,,1159,853,147
01:08:05.609,,1438,926,75
01:08:05.646,,1064,482,64
01:08:05.683,,919,391,180
01:08:05.720,,846,566,33
01:08:05.757,,942,645,-50
01:08:05.794,,1087,454,18
01:08:05.831,,1091,461,-2
01:08:05.868,,1015,372,-70
01:08:05.905,,999,337,-111
01:08:05.942,,1008,337,-129
01:08:05.979,,977,336,-139
01:08:06.016,,922,335,-149
01:08:06.053,,809,350,-320
01:08:06.090,,719,328,-330
01:08:06.128,,712,280,-331
01:08:06.165,,783,395,-207
01:08:06.202,,995,521,-69
01:08:06.239,,1049,501,87
01:08:06.276,,754,553,419
01:08:06.313,,868,528,517
01:08:06.350,,1091,357,498
01:08:06.387,,1049,188,460
01:08:06.424,,908,263,327
01:08:06.461,,821,352,242
01:08:06.498,,782,432,132
01:08:06.535,,764,493,68
01:08:06.572,,758,564,86
01:08:06.609,,731,546,81
01:08:06.646,,721,528,94
01:08:06.683,,721,569,134
01:08:06.720,,850,601,144
01:08:06.757,,997,529,42
01:08:06.794,,1296,600,66
01:08:06.831,,1189,571,59
01:08:06.868,,762,434,63
01:08:06.905,,836,496,35
01:08:06.942,,1118,540,-33
01:08:06.979,,1194,490,-55
01:08:07.016,,1072,420,-26
01:08:07.054,,966,415,-24
01:08:07.091,,915,361,-35
01:08:07.128,,935,323,-39
01:08:07.165,,953,353,-98
01:08:07.202,,864,436,-132
01:08:07.239,,724,482,-126
01:08:07.276,,664,471,-73
01:08:07.313,,698,448,-68
01:08:07.350,,693,505,-2
01:08:07.387,,609,566,211
01:08:07.424,,746,537,299
01:08:07.461,,1066,429,226
01:08:07.498,,1143,302,222
01:08:07.535,,903,384,312
01:08:07.572,,820,552,378
01:08:07.609,,894,477,183
01:08:07.646,,972,319,53
01:08:07.683,,1018,399,78
01:08:07.720,,916,480,55
01:08:07.757,,759,489,65
01:08:07.794,,721,495,54
01:08:07.831,,707,399,53
01:08:07.868,,710,429,90
01:08:07.905,,645,505,152
01:08:07.943,,630,542,259
01:08:07.980,,752,584,262
01:08:08.017,,931,536,223
01:08:08.054,,1087,515,163
01:08:08.091,,1434,610,156
01:08:08.128,,1173,556,59
01:08:08.165,,783,453,86
01:08:08.202,,757,526,132
01:08:08.239,,907,545,63
01:08:08.276,,1022,480,53
01:08:08.313,,1006,454,42
01:08:08.350,,938,351,42
01:08:08.387,,896,291,9
01:08:08.424,,908,369,8
01:08:08.461,,969,381,-13
01:08:08.498,,963,366,-32
01:08:08.535,,916,350,-17
01:08:08.572,,893,348,0
01:08:08.609,,849,339,-18
01:08:08.646,,744,356,50
01:08:08.683,,813,378,141
01:08:08.720,,993,426,111
01:08:08.757,,858,383,156
01:08:08.794,,753,388,274
01:08:08.831,,921,524,309
01:08:08.868,,1079,495,261
01:08:08.906,,1038,497,239
01:08:08.943,,908,521,254
01:08:08.980,,809,478,173
01:08:09.017,,792,499,156
01:08:09.054,,785,475,141
01:08:09.091,,740,491,158
01:08:09.128,,695,385,195
01:08:09.165,,642,563,172
01:08:09.202,,708,567,223
01:08:09.239,,896,513,190
01:08:09.276,,969,512,98
01:08:09.313,,1195,574,98
01:08:09.350,,1186,569,97
01:08:09.387,,850,442,28
01:08:09.424,,834,435,34
01:08:09.461,,990,526,9
01:08:09.498,,1126,531,-20
01:08:09.535,,1095,468,-1
01:08:09.572,,990,348,-28
01:08:09.609,,902,328,-26
01:08:09.646,,902,338,-42
01:08:09.683,,930,387,-53
01:08:09.720,,935,344,-61
01:08:09.757,,884,365,-73
01:08:09.794,,823,336,-98
01:08:09.832,,790,312,-124
01:08:09.869,,739,315,-97
01:08:09.906,,775,382,12
01:08:09.943,,931,444,90
01:08:09.980,,1014,351,84
01:08:10.017,,946,424,301
01:08:10.054,,912,595,586
01:08:10.091,,1059,519,434
01:08:10.128,,1188,377,177
01:08:10.165,,1070,443,157
01:08:10.202,,904,565,80
01:08:10.239,,797,564,0
01:08:10.276,,754,452,-12
01:08:10.313,,728,389,-46
01:08:10.350,,680,413,-17
01:08:10.387,,619,432,-5
01:08:10.424,,617,494,41
01:08:10.461,,706,527,97
01:08:10.498,,812,525,84
01:08:10.535,,910,505,34
01:08:10.572,,1316,641,46
01:08:10.609,,1151,583,15
01:08:10.646,,848,512,84
01:08:10.683,,886,486,51
01:08:10.720,,1084,567,-2
01:08:10.758,,1145,576,5
01:08:10.795,,1054,520,39
01:08:10.832,,907,406,17
01:08:10.869,,862,266,-11
01:08:10.906,,902,305,-14
01:08:10.943,,966,341,-30
01:08:10.980,,883,412,-47
01:08:11.017,,740,433,-88
01:08:11.054,,630,398,-137
01:08:11.091,,600,400,-121
01:08:11.128,,636,467,71
01:08:11.165,,818,526,125
01:08:11.202,,1064,573,119
01:08:11.239,,1094,537,175
01:08:11.276,,926,547,304
01:08:11.313,,946,572,320
01:08:11.350,,975,488,224
01:08:11.387,,974,472,176
01:08:11.424,,910,478,127
01:08:11.461,,854,473,79
01:08:11.498,,793,423,42
01:08:11.535,,763,390,27
01:08:11.572,,720,408,16
01:08:11.609,,690,424,45
01:08:11.646,,650,448,79
01:08:11.684,,617,463,123
01:08:11.721,,698,485,191
01:08:11.758,,889,461,134
01:08:11.795,,1074,446,23
01:08:11.832,,1381,580,27
01:08:11.869,,1122,526,-22
01:08:11.906,,729,434,-32
01:08:11.943,,672,502,0
01:08:11.980,,908,618,-15
01:08:12.017,,1142,646,-68
01:08:12.054,,1148,588,-91
01:08:12.091,,979,322,-135
01:08:12.128,,865,335,-83
01:08:12.165,,886,405,-100
01:08:12.202,,938,394,-193
01:08:12.239,,855,396,-247
01:08:12.276,,829,439,-55
01:08:12.313,,703,396,-11
01:08:12.350,,653,457,-78
01:08:12.387,,620,534,-8
01:08:12.424,,803,611,64
01:08:12.461,,1043,503,4
01:08:12.498,,959,443,94
01:08:12.535,,867,548,257
01:08:12.573,,938,571,282
01:08:12.610,,1014,335,160
01:08:12.647,,991,338,48
01:08:12.684,,898,441,36
01:08:12.721,,798,440,8
01:08:12.758,,770,418,-6
01:08:12.795,,786,434,21
01:08:12.832,,788,486,39
01:08:12.869,,721,589,156
01:08:12.906,,684,623,299
01:08:12.943,,759,605,334
01:08:12.980,,910,533,205
01:08:13.017,,1075,585,143
01:08:13.054,,1271,640,94
01:08:13.091,,1045,524,2
01:08:13.128,,912,457,-28
01:08:13.165,,919,524,-48
01:08:13.202,,1045,561,-57
01:08:13.239,,1081,589,-47
01:08:13.276,,1016,461,-19
01:08:13.313,,958,277,-30
01:08:13.350,,938,301,36
01:08:13.387,,939,332,28
01:08:13.424,,878,316,-4
01:08:13.461,,792,300,10
01:08:13.499,,781,291,11
01:08:13.536,,856,304,19
01:08:13.573,,924,332,29
01:08:13.610,,898,349,32
01:08:13.647,,955,437,163
01:08:13.684,,1155,528,246
01:08:13.721,,1054,378,175
01:08:13.758,,843,149,119
01:08:13.795,,911,289,166
01:08:13.832,,1018,447,98
01:08:13.869,,932,412,3
01:08:13.906,,852,451,34
01:08:13.943,,842,466,35
01:08:13.980,,847,469,17
01:08:14.017,,815,477,5
01:08:14.054,,804,509,72
01:08:14.091,,786,522,124
01:08:14.128,,744,517,192
01:08:14.165,,736,549,244
01:08:14.202,,788,505,232
01:08:14.239,,844,506,205
01:08:14.276,,1055,619,191
01:08:14.313,,1202,670,154
01:08:14.350,,938,543,87
01:08:14.388,,862,530,71
01:08:14.425,,918,534,9
01:08:14.462,,892,533,-15
01:08:14.499,,986,529,-32
01:08:14.536,,1056,457,-66
01:08:14.573,,1001,358,-118
01:08:14.610,,926,391,-95
01:08:14.647,,916,443,-95
01:08:14.684,,927,439,-120
01:08:14.721,,906,499,-108
01:08:14.758,,832,427,-80
01:08:14.795,,772,337,-40
01:08:14.832,,731,334,-27
01:08:14.869,,699,370,11
01:08:14.906,,741,400,102
01:08:14.943,,874,407,151
01:08:14.980,,1183,378,5
01:08:15.017,,1106,402,72
01:08:15.054,,753,448,243
01:08:15.091,,888,546,286
01:08:15.128,,1137,427,109
01:08:15.165,,1069,359,15
01:08:15.202,,918,465,118
01:08:15.239,,845,472,54
01:08:15.277,,805,454,-5
01:08:15.314,,782,465,1
01:08:15.351,,765,492,27
01:08:15.388,,765,526,54
01:08:15.425,,706,544,107
01:08:15.462,,668,565,182
01:08:15.499,,809,569,181
01:08:15.536,,999,484,59
01:08:15.573,,1104,523,37
01:08:15.610,,1213,628,33
01:08:15.647,,960,518,-39
01:08:15.684,,894,466,-86
01:08:15.721,,1046,535,-107
01:08:15.758,,1118,557,-107
01:08:15.795,,1030,507,-90
01:08:15.832,,967,457,-125
01:08:15.869,,933,423,-145
01:08:15.906,,942,467,-157
01:08:15.943,,954,459,-183
01:08:15.980,,927,476,-161
01:08:16.017,,885,461,-152
01:08:16.054,,833,408,-143
01:08:16.092,,737,351,-125
01:08:16.129,,611,331,-93
01:08:16.166,,561,371,8
01:08:16.203,,782,474,116
01:08:16.240,,934,443,167
01:08:16.277,,785,371,320
01:08:16.314,,894,361,416
01:08:16.351,,1233,379,400
01:08:16.388,,1213,311,280
01:08:16.425,,1093,397,218
01:08:16.462,,962,499,183
01:08:16.499,,845,479,87
01:08:16.536,,792,483,71
01:08:16.573,,755,498,56
01:08:16.610,,700,512,59
01:08:16.647,,638,529,110
01:08:16.684,,645,541,172
01:08:16.721,,792,594,214
01:08:16.758,,959,495,133
01:08:16.795,,926,411,81
01:08:16.832,,1118,563,90
01:08:16.869,,1219,603,65
01:08:16.907,,1002,485,10
01:08:16.944,,874,454,-23
01:08:16.981,,986,548,-29
01:08:17.018,,1035,568,-47
01:08:17.055,,983,521,-40
01:08:17.092,,957,429,-61
01:08:17.129,,932,350,-111
01:08:17.166,,978,474,-90
01:08:17.203,,967,443,-270
01:08:17.240,,925,574,-84
01:08:17.277,,759,439,-199
01:08:17.314,,662,472,-91
01:08:17.351,,579,390,-72
01:08:17.388,,554,369,0
01:08:17.425,,537,443,166
01:08:17.462,,672,574,259
01:08:17.499,,935,568,231
01:08:17.536,,1114,330,189
01:08:17.573,,1073,310,250
01:08:17.610,,1227,519,337
01:08:17.647,,1308,465,120
01:08:17.685,,1124,408,-12
01:08:17.722,,947,441,-14
01:08:17.759,,808,432,-71
01:08:17.796,,726,442,-103
01:08:17.833,,711,440,-134
01:08:17.870,,717,464,-112
01:08:17.907,,706,470,-80
01:08:17.944,,688,496,-26
01:08:17.981,,704,594,61
01:08:18.018,,785,627,127
01:08:18.055,,909,508,25
01:08:18.092,,1137,601,52
01:08:18.129,,1207,680,55
01:08:18.166,,894,572,44
01:08:18.203,,976,536,-15
01:08:18.240,,1166,571,-55
01:08:18.277,,1111,550,-81
01:08:18.314,,977,472,-58
01:08:18.351,,887,401,-42
01:08:18.388,,890,384,-47
01:08:18.425,,946,372,-59
01:08:18.463,,1004,342,-97
01:08:18.500,,1033,332,-104
01:08:18.537,,1013,329,-139
01:08:18.574,,938,289,-159
01:08:18.611,,865,261,-184
01:08:18.648,,749,275,-156
01:08:18.685,,846,343,-123
01:08:18.722,,1002,375,-122
01:08:18.759,,834,478,136
01:08:18.796,,847,665,419
01:08:18.833,,983,549,295
01:08:18.870,,1078,223,165
01:08:18.907,,998,135,140
01:08:18.944,,907,310,172
01:08:18.981,,840,414,117
01:08:19.018,,802,479,121
01:08:19.055,,760,521,144
01:08:19.092,,730,506,138
01:08:19.129,,749,482,161
01:08:19.166,,751,480,169
01:08:19.203,,828,526,222
01:08:19.241,,987,518,158
01:08:19.278,,946,411,20
01:08:19.315,,1029,449,83
01:08:19.352,,1205,597,62
01:08:19.389,,1022,558,-16
01:08:19.426,,875,431,-27
01:08:19.463,,974,496,-45
01:08:19.500,,1090,583,-74
01:08:19.537,,1092,505,-68
01:08:19.574,,1024,443,-65
01:08:19.611,,958,397,-82
01:08:19.648,,974,399,-90
01:08:19.685,,1006,442,-95
01:08:19.722,,993,467,-90
01:08:19.759,,891,441,-72
01:08:19.796,,770,395,-49
01:08:19.833,,708,345,-25
01:08:19.870,,693,301,-33
01:08:19.907,,655,310,29
01:08:19.944,,722,398,123
01:08:19.981,,797,437,195
01:08:20.018,,857,486,298
01:08:20.055,,967,573,480
01:08:20.093,,1189,457,263
01:08:20.130,,1272,240,2
01:08:20.167,,1163,280,2
01:08:20.204,,972,358,5
01:08:20.241,,850,502,52
01:08:20.278,,803,550,13
01:08:20.315,,729,490,-30
01:08:20.352,,689,483,-30
01:08:20.389,,658,529,34
01:08:20.426,,601,553,135
01:08:20.463,,720,713,320
01:08:20.500,,897,719,304
01:08:20.537,,948,356,198
01:08:20.574,,1325,289,179
01:08:20.611,,1053,405,75
01:08:20.648,,881,483,-5
01:08:20.685,,1090,597,-4
01:08:20.722,,1099,675,47
01:08:20.759,,955,496,61
01:08:20.796,,918,428,16
01:08:20.833,,947,531,-71
01:08:20.870,,1055,765,-134
01:08:20.907,,1190,508,-150
01:08:20.945,,1167,311,17
01:08:20.982,,986,193,99
01:08:21.019,,792,223,58
01:08:21.056,,653,208,44
01:08:21.093,,567,123,87
01:08:21.130,,560,114,250
01:08:21.167,,841,230,311
01:08:21.204,,1037,282,319
01:08:21.241,,993,168,289
01:08:21.278,,1026,340,366
01:08:21.315,,1210,654,484
01:08:21.352,,1189,587,249
01:08:21.389,,1143,435,174
01:08:21.426,,995,373,162
01:08:21.463,,878,331,107
01:08:21.500,,855,370,119
01:08:21.537,,800,436,107
01:08:21.574,,725,446,106
01:08:21.611,,668,434,104
01:08:21.648,,588,458,113
01:08:21.685,,602,492,187
01:08:21.722,,763,492,234
01:08:21.759,,1000,432,149
01:08:21.797,,1335,389,3
01:08:21.834,,1294,494,14
01:08:21.871,,871,447,-4
01:08:21.908,,880,465,16
01:08:21.945,,991,556,-57
01:08:21.982,,1038,526,-25
01:08:22.019,,945,398,-29
01:08:22.056,,860,285,-73
01:08:22.093,,876,371,-77
01:08:22.130,,945,392,-99
01:08:22.167,,982,452,-116
01:08:22.204,,940,456,-119
01:08:22.241,,828,395,-122
01:08:22.278,,698,371,-122
01:08:22.315,,657,409,-64
01:08:22.352,,765,468,66
01:08:22.389,,1016,521,147
01:08:22.426,,1026,467,114
01:08:22.463,,906,455,250
01:08:22.500,,872,469,358
01:08:22.537,,962,335,221
01:08:22.574,,993,208,139
01:08:22.612,,957,270,139
01:08:22.649,,859,387,116
01:08:22.686,,756,421,123
01:08:22.723,,713,375,73
01:08:22.760,,759,473,72
01:08:22.797,,768,496,71
01:08:22.834,,756,509,113
01:08:22.871,,795,550,193
01:08:22.908,,857,617,232
01:08:22.945,,969,610,167
01:08:22.982,,901,490,79
01:08:23.019,,1132,550,114
01:08:23.056,,1264,649,30
01:08:23.093,,1087,616,10
01:08:23.130,,812,516,66
01:08:23.167,,806,527,43
01:08:23.204,,1039,607,5
01:08:23.241,,1156,564,-24
01:08:23.278,,1123,367,-63
01:08:23.315,,1057,249,-101
01:08:23.352,,1006,282,-261
01:08:23.389,,862,514,-269
01:08:23.426,,842,577,-167
01:08:23.464,,857,404,-138
01:08:23.501,,874,481,-19
01:08:23.538,,867,430,-18
01:08:23.575,,804,407,7
01:08:23.612,,678,430,205
01:08:23.649,,733,457,344
01:08:23.686,,908,402,395
01:08:23.723,,823,169,421
01:08:23.760,,1003,-38,277
01:08:23.797,,1250,104,154
01:08:23.834,,1194,259,11
01:08:23.871,,1034,393,-72
01:08:23.908,,940,551,14
01:08:23.945,,922,517,-57
01:08:23.982,,931,488,-157
01:08:24.019,,957,530,-158
01:08:24.056,,912,586,-122
01:08:24.093,,817,621,-74
01:08:24.130,,788,668,-5
01:08:24.167,,885,634,-52
01:08:24.204,,1143,627,-28
01:08:24.241,,1167,716,-95
01:08:24.279,,916,722,-164
01:08:24.316,,996,743,-189
01:08:24.353,,993,713,-237
01:08:24.390,,1043,684,-181
01:08:24.427,,1070,613,-128
01:08:24.464,,1067,492,-126
01:08:24.501,,1069,271,-203
01:08:24.538,,1079,212,-159
01:08:24.575,,1054,267,-132
01:08:24.612,,1008,337,-131
01:08:24.649,,950,333,-155
01:08:24.686,,887,304,-152
01:08:24.723,,801,275,-135
01:08:24.760,,707,275,-100
01:08:24.797,,788,329,-17
01:08:24.834,,1057,423,-45
01:08:24.871,,756,490,237
01:08:24.908,,727,336,322
01:08:24.945,,1136,434,243
01:08:24.982,,1228,599,287
01:08:25.019,,1022,582,177
01:08:25.056,,861,737,149
01:08:25.094,,737,702,35
01:08:25.131,,720,636,-51
01:08:25.168,,728,554,-54
01:08:25.205,,701,508,-42
01:08:25.242,,680,557,0
01:08:25.279,,648,558,40
01:08:25.316,,666,588,98
01:08:25.353,,778,578,150
01:08:25.390,,933,442,39
01:08:25.427,,958,381,11
01:08:25.464,,1196,534,65
01:08:25.501,,1177,600,-3
01:08:25.538,,885,462,-48
01:08:25.575,,798,444,2
01:08:25.612,,879,543,-13
01:08:25.649,,1028,579,-11
01:08:25.686,,1060,546,30
01:08:25.723,,1041,413,-3
01:08:25.760,,959,251,-51
01:08:25.797,,895,307,-38
01:08:25.835,,873,419,-25
01:08:25.872,,821,478,-26
01:08:25.909,,773,482,-39
01:08:25.946,,765,528,-52
01:08:25.983,,703,535,-37
01:08:26.020,,643,529,4
01:08:26.057,,602,551,63
01:08:26.094,,638,588,187
01:08:26.131,,793,563,212
01:08:26.168,,946,495,80
01:08:26.205,,915,490,87
01:08:26.242,,811,525,171
01:08:26.279,,903,577,232
01:08:26.316,,1009,520,170
01:08:26.353,,1008,419,50
01:08:26.390,,938,422,52
01:08:26.427,,820,429,48
01:08:26.464,,755,417,43
01:08:26.501,,752,424,37
01:08:26.538,,747,439,37
01:08:26.575,,721,457,83
01:08:26.613,,672,480,135
01:08:26.650,,683,530,208
01:08:26.687,,772,551,274
01:08:26.724,,922,467,194
01:08:26.761,,976,345,70
01:08:26.798,,1385,496,72
01:08:26.835,,1297,614,31
01:08:26.872,,917,471,28
01:08:26.909,,754,458,108
01:08:26.946,,839,541,37
01:08:26.983,,1017,533,-28
01:08:27.020,,1051,480,-21
01:08:27.057,,980,378,-53
01:08:27.094,,908,368,-51
01:08:27.131,,885,425,-67
01:08:27.168,,894,420,-35
01:08:27.205,,881,403,17
01:08:27.242,,829,416,15
01:08:27.279,,792,387,8
01:08:27.316,,755,362,11
01:08:27.353,,697,349,47
01:08:27.391,,872,399,100
01:08:27.428,,1017,473,65
01:08:27.465,,1054,448,53
01:08:27.502,,1009,499,240
01:08:27.539,,939,524,380
01:08:27.576,,893,333,239
01:08:27.613,,959,275,156
01:08:27.650,,963,387,123
01:08:27.687,,878,475,79
01:08:27.724,,785,462,83
01:08:27.761,,731,418,80
01:08:27.798,,723,371,83
01:08:27.835,,739,410,33
01:08:27.872,,712,505,87
01:08:27.909,,671,540,152
01:08:27.946,,765,592,208
01:08:27.983,,895,564,183
01:08:28.020,,795,429,105
01:08:28.057,,1056,470,105
01:08:28.094,,1406,625,61
01:08:28.131,,1178,562,-31
01:08:28.169,,929,441,13
01:08:28.206,,965,492,-7
01:08:28.243,,1051,575,-37
01:08:28.280,,979,518,-27
01:08:28.317,,885,405,0
01:08:28.354,,883,394,-31
01:08:28.391,,935,456,-64
01:08:28.428,,915,498,-33
01:08:28.465,,811,490,-7
01:08:28.502,,670,466,19
01:08:28.539,,622,434,22
01:08:28.576,,711,437,13
01:08:28.613,,736,484,52
01:08:28.650,,767,475,101
01:08:28.687,,925,479,118
01:08:28.724,,1044,509,80
01:08:28.761,,967,514,148
01:08:28.798,,946,459,181
01:08:28.835,,969,375,98
01:08:28.873,,985,400,76
01:08:28.910,,967,460,109
01:08:28.947,,891,448,59
01:08:28.984,,810,422,41
01:08:29.021,,780,424,21
01:08:29.058,,724,444,15
01:08:29.095,,690,473,34
01:08:29.132,,680,520,80
01:08:29.169,,731,527,132
01:08:29.206,,747,544,217
01:08:29.243,,872,495,208
01:08:29.280,,942,405,133
01:08:29.317,,1047,455,153
01:08:29.354,,1250,595,154
01:08:29.391,,1088,579,84
01:08:29.428,,846,470,93
01:08:29.465,,791,490,97
01:08:29.502,,926,575,48
01:08:29.539,,1118,604,25
01:08:29.576,,1158,524,-32
01:08:29.614,,1060,351,-65
01:08:29.651,,977,296,-49
01:08:29.688,,971,360,-50
01:08:29.725,,956,411,-45
01:08:29.762,,884,415,-69
01:08:29.799,,794,438,-50
01:08:29.836,,711,396,-61
01:08:29.873,,633,367,-39
01:08:29.910,,630,419,48
01:08:29.947,,759,484,130
01:08:29.984,,975,508,156
01:08:30.021,,1033,484,166
01:08:30.058,,896,405,263
01:08:30.095,,882,413,301
01:08:30.132,,947,447,268
01:08:30.169,,987,389,165
01:08:30.206,,1030,410,167
01:08:30.243,,946,411,149
01:08:30.280,,822,376,85
01:08:30.318,,786,417,85
01:08:30.355,,775,413,39
01:08:30.392,,748,440,46
01:08:30.429,,690,492,129
01:08:30.466,,686,494,203
01:08:30.503,,709,528,245
01:08:30.540,,811,527,279
01:08:30.577,,913,432,137
01:08:30.614,,914,410,88
01:08:30.651,,1229,576,132
01:08:30.688,,1227,672,64
01:08:30.725,,949,518,44
01:08:30.762,,823,485,77
01:08:30.799,,862,532,29
01:08:30.836,,1067,570,-9
01:08:30.873,,1133,536,0
01:08:30.910,,1093,517,-22
01:08:30.947,,1060,559,-67
01:08:30.985,,1085,441,-22
01:08:31.022,,1026,483,-10
01:08:31.059,,895,541,-49
01:08:31.096,,721,475,-33
01:08:31.133,,592,339,11
01:08:31.170,,563,270,-9
01:08:31.207,,582,289,-20
01:08:31.244,,670,309,-40
01:08:31.281,,831,410,28
01:08:31.318,,924,403,24
01:08:31.355,,1005,452,116
01:08:31.392,,1230,581,210
01:08:31.429,,1286,526,112
01:08:31.466,,1162,309,48
01:08:31.503,,1130,389,183
01:08:31.540,,1029,431,117
01:08:31.577,,888,481,76
01:08:31.614,,796,489,51
01:08:31.651,,730,481,31
01:08:31.688,,711,464,34
01:08:31.726,,691,491,78
01:08:31.763,,695,501,121
01:08:31.800,,731,557,184
01:08:31.837,,822,541,217
01:08:31.874,,1003,459,113
01:08:31.911,,1070,424,72
01:08:31.948,,1244,514,127
01:08:31.985,,1067,512,61
01:08:32.022,,858,463,5
01:08:32.059,,878,530,13
01:08:32.096,,1027,629,-15
01:08:32.133,,1107,564,-31
01:08:32.170,,998,408,-74
01:08:32.207,,882,304,-58
01:08:32.244,,888,367,-51
01:08:32.281,,923,438,-88
01:08:32.318,,926,443,-85
01:08:32.355,,864,454,-61
01:08:32.392,,824,468,-72
01:08:32.429,,737,446,-60
01:08:32.466,,652,436,-16
01:08:32.504,,596,447,77
01:08:32.541,,829,491,95
01:08:32.578,,1001,560,99
01:08:32.615,,818,481,211
01:08:32.652,,816,482,291
01:08:32.689,,968,548,337
01:08:32.726,,1017,402,255
01:08:32.763,,1041,258,141
01:08:32.800,,858,372,101
01:08:32.837,,770,430,107
01:08:32.874,,721,446,95
01:08:32.911,,693,460,93
01:08:32.948,,683,470,102
01:08:32.985,,776,492,155
01:08:33.022,,854,522,200
01:08:33.059,,826,590,376
01:08:33.096,,911,470,353
01:08:33.133,,928,306,154
01:08:33.170,,1062,347,132
01:08:33.207,,1117,554,161
01:08:33.244,,834,508,90
01:08:33.282,,730,476,99
01:08:33.319,,825,577,58
01:08:33.356,,1030,729,2
01:08:33.393,,1172,669,-79
01:08:33.430,,1151,462,-174
01:08:33.467,,1071,267,-81
01:08:33.504,,1045,306,-11
01:08:33.541,,1059,425,-38
01:08:33.578,,1068,468,-61
01:08:33.615,,1003,410,10
01:08:33.652,,936,411,85
01:08:33.689,,938,404,142
01:08:33.726,,967,316,118
01:08:33.763,,779,229,180
01:08:33.800,,835,286,255
01:08:33.837,,846,306,248
01:08:33.874,,751,265,177
01:08:33.911,,640,274,122
01:08:33.948,,728,365,131
01:08:33.985,,1040,421,28
01:08:34.022,,1296,435,-191
01:08:34.059,,1355,549,-163
01:08:34.097,,1191,603,-8
01:08:34.134,,979,559,3
01:08:34.171,,880,502,3
01:08:34.208,,821,537,12
01:08:34.245,,778,592,50
01:08:34.282,,699,700,189
01:08:34.319,,706,735,305
01:08:34.356,,762,654,298
01:08:34.393,,963,476,146
01:08:34.430,,1018,357,36
01:08:34.467,,1254,455,60
01:08:34.504,,1280,685,99
01:08:34.541,,997,659,69
01:08:34.578,,834,563,-63
01:08:34.615,,923,509,-173
01:08:34.652,,1138,490,-197
01:08:34.689,,1182,503,-146
01:08:34.726,,1127,463,-158
01:08:34.763,,1019,434,-176
01:08:34.800,,973,413,-218
01:08:34.838,,920,506,-262
01:08:34.875,,862,642,-270
01:08:34.912,,744,667,-199
01:08:34.949,,691,485,-116
01:08:34.986,,606,333,-69
01:08:35.023,,569,354,-15
01:08:35.060,,503,99,-22
01:08:35.097,,715,553,418
01:08:35.134,,800,255,164
01:08:35.171,,885,367,353
01:08:35.208,,1024,290,387
01:08:35.245,,1305,295,336
01:08:35.282,,1410,441,259
01:08:35.319,,1295,482,178
01:08:35.356,,1084,590,148
01:08:35.393,,909,450,75
01:08:35.430,,869,298,15
01:08:35.467,,864,269,-8
01:08:35.504,,773,381,-91
01:08:35.541,,675,591,-51
01:08:35.579,,640,760,79
01:08:35.616,,710,808,219
01:08:35.653,,786,639,244
01:08:35.690,,981,460,120
01:08:35.727,,1201,445,33
01:08:35.764,,1342,525,38
01:08:35.801,,1110,570,8
01:08:35.838,,1011,504,-48
01:08:35.875,,949,495,-29
01:08:35.912,,980,479,-27
01:08:35.949,,1084,472,-41
01:08:35.986,,1091,455,-65
01:08:36.023,,997,333,-64
01:08:36.060,,924,219,-71
01:08:36.097,,902,283,-54
01:08:36.134,,887,327,-55
01:08:36.171,,828,318,-70
01:08:36.208,,745,294,-79
01:08:36.245,,704,286,-80
01:08:36.282,,741,297,-82
01:08:36.320,,717,326,-68
01:08:36.357,,816,365,-36
01:08:36.394,,1059,588,121
01:08:36.431,,1070,583,165
01:08:36.468,,1011,542,119
01:08:36.505,,1176,177,195
01:08:36.542,,1106,1336,862
01:08:36.579,,833,995,191
01:08:36.616,,894,535,-77
01:08:36.653,,737,381,-86
01:08:36.690,,577,382,-168
01:08:36.727,,507,419,-224
01:08:36.764,,529,407,-219
01:08:36.801,,552,432,-187
01:08:36.838,,604,459,-138
01:08:36.875,,808,486,63
01:08:36.912,,1054,644,846
01:08:36.950,,847,992,601
01:08:36.987,,845,826,275
01:08:37.024,,1126,731,74
01:08:37.061,,1009,757,-40
01:08:37.098,,813,290,-203
01:08:37.135,,739,241,-118
01:08:37.172,,862,399,-66
01:08:37.209,,1043,625,-117
01:08:37.246,,963,613,-142
01:08:37.283,,815,477,-114
01:08:37.320,,768,418,-78
01:08:37.357,,774,444,-130
01:08:37.394,,726,342,-192
01:08:37.431,,603,608,-474
01:08:37.468,,521,772,-695
01:08:37.505,,516,899,-584
01:08:37.542,,650,1133,-301
01:08:37.579,,692,887,-103
01:08:37.616,,632,797,-86
01:08:37.653,,769,614,-288
01:08:37.691,,792,313,-243
01:08:37.728,,766,162,57
01:08:37.765,,879,5,224
01:08:37.802,,1084,106,197
01:08:37.839,,1236,310,63
01:08:37.876,,1226,452,-91
01:08:37.913,,1049,525,-111
01:08:37.950,,870,498,-46
01:08:37.987,,793,427,-75
01:08:38.024,,804,391,-122
01:08:38.061,,757,396,-137
01:08:38.098,,646,421,-108
01:08:38.135,,576,445,-70
01:08:38.172,,618,579,69
01:08:38.209,,764,665,191
01:08:38.246,,939,739,93
01:08:38.283,,1061,946,225
01:08:38.320,,1349,931,237
01:08:38.357,,1072,836,94
01:08:38.394,,922,738,76
01:08:38.432,,796,558,-17
01:08:38.469,,923,525,-99
01:08:38.506,,1053,524,-104
01:08:38.543,,1068,456,-141
01:08:38.580,,1010,344,-166
01:08:38.617,,961,298,-169
01:08:38.654,,916,264,-162
01:08:38.691,,926,232,-168
01:08:38.728,,873,228,-201
01:08:38.765,,812,277,-222
01:08:38.802,,673,380,-247
01:08:38.839,,585,420,-331
01:08:38.876,,515,498,-381
01:08:38.913,,744,666,-373
01:08:38.950,,1061,729,-391
01:08:38.987,,977,956,-235
01:08:39.024,,777,1218,78
01:08:39.061,,778,1608,486
01:08:39.098,,1225,137,-195
01:08:39.135,,1085,-379,117
01:08:39.173,,837,-412,184
01:08:39.210,,771,252,203
01:08:39.247,,764,712,322
01:08:39.284,,666,493,141
01:08:39.321,,648,474,61
01:08:39.358,,636,405,-20
01:08:39.395,,615,409,-41
01:08:39.432,,712,466,-25
01:08:39.469,,802,442,-45
01:08:39.506,,1003,370,-123
01:08:39.543,,901,342,-185
01:08:39.580,,1069,422,-92
01:08:39.617,,1339,667,-51
01:08:39.654,,1199,714,-95
01:08:39.691,,996,742,-8
01:08:39.728,,752,714,71
01:08:39.765,,743,685,35
01:08:39.802,,916,664,-18
01:08:39.839,,945,532,-36
01:08:39.876,,872,460,9
01:08:39.913,,866,418,7
01:08:39.951,,919,419,-45
01:08:39.988,,968,427,-83
01:08:40.025,,974,396,-73
01:08:40.062,,962,360,-76
01:08:40.099,,1010,370,-91
01:08:40.136,,964,418,-13
01:08:40.173,,862,445,106
01:08:40.210,,930,435,139
01:08:40.247,,1057,444,91
01:08:40.284,,891,389,169
01:08:40.321,,741,326,213
01:08:40.358,,741,375,218
01:08:40.395,,799,382,154
01:08:40.432,,891,387,99
01:08:40.469,,901,424,130
01:08:40.506,,776,404,113
01:08:40.543,,714,375,82
01:08:40.580,,744,397,59
01:08:40.617,,747,434,60
01:08:40.655,,711,457,100
01:08:40.692,,654,503,150
01:08:40.729,,698,539,207
01:08:40.766,,787,531,234
01:08:40.803,,939,479,125
01:08:40.840,,987,477,47
01:08:40.877,,1291,576,55
01:08:40.914,,1200,602,18
01:08:40.951,,932,547,6
01:08:40.988,,904,553,22
01:08:41.025,,873,552,12
01:08:41.062,,958,527,-25
01:08:41.099,,1028,511,-37
01:08:41.136,,995,431,16
01:08:41.173,,888,338,-85
01:08:41.210,,851,425,-164
01:08:41.247,,873,514,-178
01:08:41.284,,904,520,-210
01:08:41.321,,836,551,-189
01:08:41.358,,764,508,-177
01:08:41.396,,724,405,-182
01:08:41.433,,719,353,-168
01:08:41.470,,730,427,-100
01:08:41.507,,839,556,0
01:08:41.544,,880,675,98
01:08:41.581,,840,584,100
01:08:41.618,,826,360,102
01:08:41.655,,917,263,141
01:08:41.692,,1039,342,179
01:08:41.729,,1050,449,162
01:08:41.766,,931,439,87
01:08:41.803,,862,414,62
01:08:41.840,,842,392,73
01:08:41.877,,783,390,14
01:08:41.914,,730,423,74
01:08:41.951,,653,490,78
01:08:41.988,,650,560,193
01:08:42.025,,760,637,318
01:08:42.062,,860,602,330
01:08:42.099,,1034,496,216
01:08:42.136,,1055,404,113
01:08:42.174,,1177,457,104
01:08:42.211,,1112,540,77
01:08:42.248,,925,490,34
01:08:42.285,,962,451,-15
01:08:42.322,,1059,508,-78
01:08:42.359,,1033,522,-86
01:08:42.396,,932,620,-33
01:08:42.433,,924,710,-97
01:08:42.470,,973,609,-178
01:08:42.507,,1036,278,-155
01:08:42.544,,1038,176,-13
01:08:42.581,,929,282,106
01:08:42.618,,739,428,157
01:08:42.655,,532,618,-11
01:08:42.692,,460,648,109
01:08:42.729,,496,329,370
01:08:42.766,,498,133,462
01:08:42.803,,880,-445,936
01:08:42.840,,1738,-398,1476
01:08:42.877,,1492,-235,860
01:08:42.915,,1104,345,372
01:08:42.952,,1102,539,158
01:08:42.989,,1186,504,-29
01:08:43.026,,1121,383,-278
01:08:43.063,,945,411,-275
01:08:43.100,,794,434,-226
01:08:43.137,,723,427,-219
01:08:43.174,,712,373,-246
01:08:43.211,,693,280,-264
01:08:43.248,,659,237,-310
01:08:43.285,,647,370,-73
01:08:43.322,,709,386,-86
01:08:43.359,,852,490,-90
01:08:43.396,,998,649,116
01:08:43.433,,1185,647,198
01:08:43.470,,1208,841,447
01:08:43.507,,1330,850,598
01:08:43.544,,933,885,379
01:08:43.581,,748,795,154
01:08:43.618,,844,659,48
01:08:43.655,,1053,693,-61
01:08:43.693,,1104,596,-177
01:08:43.730,,1059,526,-218
01:08:43.767,,1015,494,-224
01:08:43.804,,1016,499,-240
01:08:43.841,,1009,483,-240
01:08:43.878,,941,446,-190
01:08:43.915,,824,412,-144
01:08:43.952,,726,364,-125
01:08:43.989,,644,321,-110
01:08:44.026,,614,308,-9
01:08:44.063,,584,377,203
01:08:44.100,,780,482,355
01:08:44.137,,987,468,265
01:08:44.174,,887,266,452
01:08:44.211,,1145,228,662
01:08:44.248,,1550,189,396
01:08:44.285,,1502,264,82
01:08:44.322,,1188,456,82
01:08:44.359,,978,94,-148
01:08:44.397,,848,227,-325
01:08:44.434,,780,628,-679
01:08:44.471,,664,842,-623
01:08:44.508,,560,534,-544
01:08:44.545,,466,354,-416
01:08:44.582,,485,413,-406
01:08:44.619,,615,499,-482
01:08:44.656,,820,523,-535
01:08:44.693,,835,574,-466
01:08:44.730,,1078,696,-411
01:08:44.767,,1226,669,-304
01:08:44.804,,1096,428,-314
01:08:44.841,,943,422,-189
01:08:44.878,,928,510,-138
01:08:44.915,,1036,935,-181
01:08:44.952,,1169,883,-387
01:08:44.989,,1151,344,-329
01:08:45.026,,1107,-43,-33
01:08:45.063,,1074,74,287
01:08:45.100,,992,121,346
01:08:45.138,,820,123,431
01:08:45.175,,665,58,460
01:08:45.212,,579,57,569
01:08:45.249,,503,114,700
01:08:45.286,,438,69,725
01:08:45.323,,392,22,680
01:08:45.360,,456,-20,689
01:08:45.397,,626,-20,769
01:08:45.434,,629,-146,664
01:08:45.471,,770,-367,97
01:08:45.508,,1143,30,-45
01:08:45.545,,1221,684,50
01:08:45.582,,1127,673,53
01:08:45.619,,1006,680,0
01:08:45.656,,920,652,-120
01:08:45.693,,926,596,-236
01:08:45.730,,1033,597,-340
01:08:45.767,,1024,639,-402
01:08:45.804,,909,654,-463
01:08:45.841,,745,762,-255
01:08:45.878,,727,752,-179
01:08:45.916,,775,794,-149
01:08:45.953,,1063,750,-231
01:08:45.990,,1101,624,-256
01:08:46.027,,952,717,-78
01:08:46.064,,903,764,79
01:08:46.101,,816,660,44
01:08:46.138,,969,653,12
01:08:46.175,,1145,652,-18
01:08:46.212,,1136,463,-125
01:08:46.249,,1015,470,-144
01:08:46.286,,970,617,-22
01:08:46.323,,952,518,-148
01:08:46.360,,904,491,-188
01:08:46.397,,811,408,-82
01:08:46.434,,704,302,-33
01:08:46.471,,611,289,-12
01:08:46.508,,590,274,15
01:08:46.545,,644,326,57
01:08:46.582,,875,379,12
01:08:46.620,,1092,408,-53
01:08:46.657,,1036,484,135
01:08:46.694,,1151,539,204
01:08:46.731,,1351,545,97
01:08:46.768,,1182,394,45
01:08:46.805,,1001,302,128
01:08:46.842,,882,365,82
01:08:46.879,,785,446,47
01:08:46.916,,754,445,33
01:08:46.953,,753,476,34
01:08:46.990,,724,488,44
01:08:47.027,,658,519,103
01:08:47.064,,650,526,142
01:08:47.101,,835,570,178
01:08:47.138,,1049,499,78
01:08:47.175,,1050,457,85
01:08:47.212,,1367,671,175
01:08:47.249,,998,607,14
01:08:47.286,,809,406,-34
01:08:47.323,,935,499,-12
01:08:47.361,,1085,633,-42
01:08:47.398,,1054,500,-63
01:08:47.435,,1042,386,-84
01:08:47.472,,1057,11,-164
01:08:47.509,,890,-192,-294
01:08:47.546,,899,687,-700
01:08:47.583,,938,726,-548
01:08:47.620,,932,470,-298
01:08:47.657,,806,181,-217
01:08:47.694,,677,154,-116
01:08:47.731,,591,157,-105
01:08:47.768,,519,162,-148
01:08:47.805,,723,438,-209
01:08:47.842,,983,807,-253
01:08:47.879,,1124,715,-83
01:08:47.916,,1232,1097,74
01:08:47.953,,1207,1018,59
01:08:47.990,,1039,463,-27
01:08:48.027,,966,140,126
01:08:48.064,,1016,501,13
01:08:48.102,,982,510,-37
01:08:48.139,,818,415,-76
01:08:48.176,,644,326,-91
01:08:48.213,,528,315,-9
01:08:48.250,,517,324,-73
01:08:48.287,,546,451,-72
01:08:48.324,,628,568,42
01:08:48.361,,872,659,92
01:08:48.398,,966,607,-3
01:08:48.435,,904,544,19
01:08:48.472,,1237,584,73
01:08:48.509,,1211,653,12
01:08:48.546,,863,542,66
01:08:48.583,,853,514,39
01:08:48.620,,1015,602,-66
01:08:48.657,,1164,615,-78
01:08:48.694,,1113,454,-40
01:08:48.731,,1039,232,-12
01:08:48.769,,1006,211,85
01:08:48.806,,1027,177,28
01:08:48.843,,935,321,-54
01:08:48.880,,844,404,-50
01:08:48.917,,731,419,-53
01:08:48.954,,664,365,-45
01:08:48.991,,666,346,-50
01:08:49.028,,712,367,14
01:08:49.065,,771,405,138
01:08:49.102,,1027,439,119
01:08:49.139,,1156,415,127
01:08:49.176,,1004,450,339
01:08:49.213,,1139,571,465
01:08:49.250,,1140,438,221
01:08:49.287,,998,309,195
01:08:49.324,,981,454,103
01:08:49.361,,934,597,20
01:08:49.398,,772,375,33
01:08:49.435,,703,311,17
01:08:49.473,,661,384,73
01:08:49.510,,614,381,51
01:08:49.547,,585,371,46
01:08:49.584,,607,495,119
01:08:49.621,,793,571,141
01:08:49.658,,1036,510,-2
01:08:49.695,,1116,543,-46
01:08:49.732,,1323,708,126
01:08:49.769,,1092,694,84
01:08:49.806,,795,598,111
01:08:49.843,,808,614,63
01:08:49.880,,948,599,39
01:08:49.917,,993,464,23
01:08:49.954,,934,365,-22
01:08:49.991,,920,405,-5
01:08:50.028,,989,464,-26
01:08:50.065,,1045,356,-32
01:08:50.102,,1004,312,-38
01:08:50.139,,969,324,-56
01:08:50.176,,916,292,-48
01:08:50.214,,876,278,-99
01:08:50.251,,854,279,-127
01:08:50.288,,911,439,0
01:08:50.325,,1008,579,129
01:08:50.362,,904,487,275
01:08:50.399,,691,369,406
01:08:50.436,,856,331,412
01:08:50.473,,1122,241,193
01:08:50.510,,1074,199,45
01:08:50.547,,964,371,81
01:08:50.584,,852,493,69
01:08:50.621,,784,451,-1
01:08:50.658,,801,471,-17
01:08:50.695,,805,516,-40
01:08:50.732,,765,516,-39
01:08:50.769,,733,527,17
01:08:50.806,,723,589,87
01:08:50.843,,901,668,115
01:08:50.880,,905,591,25
01:08:50.917,,1086,609,108
01:08:50.955,,1208,668,85
01:08:50.992,,1009,611,30
01:08:51.029,,915,554,42
01:08:51.066,,953,547,-11
01:08:51.103,,1102,583,-21
01:08:51.140,,1135,518,-26
01:08:51.177,,1057,407,-58
01:08:51.214,,1009,340,-79
01:08:51.251,,1036,380,-76
01:08:51.288,,1084,430,-75
01:08:51.325,,1027,431,-87
01:08:51.362,,865,393,-46
01:08:51.399,,720,330,-32
01:08:51.436,,636,285,-40
01:08:51.473,,596,304,3
01:08:51.510,,662,370,92
01:08:51.547,,835,461,204
01:08:51.584,,851,471,345
01:08:51.621,,861,345,384
01:08:51.658,,1175,313,340
01:08:51.695,,1398,313,181
01:08:51.733,,1258,352,121
01:08:51.770,,1083,412,116
01:08:51.807,,927,434,44
01:08:51.844,,832,482,8
01:08:51.881,,775,505,-14
01:08:51.918,,713,493,-19
01:08:51.955,,677,502,9
01:08:51.992,,641,501,37
01:08:52.029,,668,565,128
01:08:52.066,,789,583,153
01:08:52.103,,964,540,71
01:08:52.140,,1148,577,118
01:08:52.177,,1306,624,121
01:08:52.214,,961,543,51
01:08:52.251,,805,496,84
01:08:52.288,,897,531,49
01:08:52.325,,1063,602,3
01:08:52.362,,1188,548,-6
01:08:52.399,,1156,388,-73
01:08:52.436,,1055,256,-87
01:08:52.473,,1004,269,-84
01:08:52.511,,997,300,-117
01:08:52.548,,963,320,-126
01:08:52.585,,897,342,-102
01:08:52.622,,848,330,-108
01:08:52.659,,765,309,-121
01:08:52.696,,689,341,-80
01:08:52.733,,695,422,19
01:08:52.770,,820,541,68
01:08:52.807,,948,603,-2
01:08:52.844,,834,641,10
01:08:52.881,,753,665,68
01:08:52.918,,836,697,183
01:08:52.955,,859,457,65
01:08:52.992,,844,551,41
01:08:53.029,,1240,834,646
01:08:53.066,,861,517,644
01:08:53.103,,808,576,8
01:08:53.140,,760,521,-106
01:08:53.177,,671,299,-157
01:08:53.214,,649,299,-159
01:08:53.251,,695,348,-157
01:08:53.288,,778,414,-70
01:08:53.326,,821,457,114
01:08:53.363,,885,420,221
01:08:53.400,,948,452,266
01:08:53.437,,919,538,213
01:08:53.474,,845,524,104
01:08:53.511,,784,500,40
01:08:53.548,,770,542,28
01:08:53.585,,769,480,65
01:08:53.622,,793,392,186
01:08:53.659,,977,588,226
01:08:53.696,,1028,707,122
01:08:53.733,,917,542,-51
01:08:53.770,,871,241,-76
01:08:53.807,,903,305,9
01:08:53.844,,800,486,-95
01:08:53.881,,744,690,-72
01:08:53.918,,754,400,-61
01:08:53.955,,781,339,-173
01:08:53.992,,846,562,-261
01:08:54.029,,912,716,-291
01:08:54.066,,889,697,-324
01:08:54.103,,797,691,-386
01:08:54.141,,728,632,-505
01:08:54.178,,651,712,-631
01:08:54.215,,600,852,-788
01:08:54.252,,592,628,-815
01:08:54.289,,569,605,-718
01:08:54.326,,712,954,-466
01:08:54.363,,617,573,141
01:08:54.400,,321,536,-200
01:08:54.437,,39,453,-664
01:08:54.474,,58,636,-826
01:08:54.511,,122,761,-884
01:08:54.548,,178,824,-817
01:08:54.585,,302,769,-773
01:08:54.622,,229,905,-882
01:08:54.659,,96,949,-868
01:08:54.696,,-20,842,-701
01:08:54.733,,-41,803,-598
01:08:54.770,,25,682,-524
01:08:54.807,,88,522,-462
01:08:54.844,,31,662,-491
01:08:54.881,,-62,622,-394
01:08:54.919,,-139,546,-231
01:08:54.956,,-139,522,-130
01:08:54.993,,-132,607,-216
01:08:55.030,,-103,774,-380
01:08:55.067,,-93,926,-415
01:08:55.104,,-116,1068,-425
01:08:55.141,,-181,841,-328
01:08:55.178,,-232,726,-300
01:08:55.215,,-236,883,-453
01:08:55.252,,-222,935,-563
01:08:55.289,,-213,939,-603
01:08:55.326,,-131,1057,-719
01:08:55.363,,-86,973,-782
01:08:55.400,,-141,755,-698
01:08:55.437,,-207,653,-611
01:08:55.474,,-253,598,-522
01:08:55.511,,-184,658,-534
01:08:55.548,,9,884,-775
01:08:55.585,,118,917,-842
01:08:55.622,,95,641,-648
01:08:55.659,,-4,486,-479
01:08:55.697,,-70,614,-460
01:08:55.734,,-90,732,-459
01:08:55.771,,-71,813,-466
01:08:55.808,,-55,810,-468
01:08:55.845,,-16,815,-543
01:08:55.882,,25,868,-579
01:08:55.919,,71,878,-582
01:08:55.956,,107,861,-532
01:08:55.993,,165,888,-532
01:08:56.030,,173,895,-465
01:08:56.067,,151,787,-323
01:08:56.104,,214,782,-228
01:08:56.141,,289,692,-144
01:08:56.178,,410,639,-172
01:08:56.215,,526,592,-184
01:08:56.252,,651,591,-168
01:08:56.289,,775,607,-181
01:08:56.326,,817,630,-253
01:08:56.363,,824,682,-255
01:08:56.400,,815,670,-259
01:08:56.437,,833,688,-243
01:08:56.475,,864,673,-199
01:08:56.512,,861,635,-134
01:08:56.549,,859,557,-75
01:08:56.586,,875,583,-1
01:08:56.623,,871,604,30
01:08:56.660,,882,601,29
01:08:56.697,,818,559,31
01:08:56.734,,850,576,45
01:08:56.771,,975,629,46
01:08:56.808,,1017,609,-13
01:08:56.845,,1106,565,-68
01:08:56.882,,1105,537,-80
01:08:56.919,,838,479,-68
01:08:56.956,,741,423,-24
01:08:56.993,,839,425,-50
01:08:57.030,,1024,458,-115
01:08:57.067,,1103,442,-171
01:08:57.104,,993,339,-226
01:08:57.141,,845,321,-260
01:08:57.178,,778,416,-250
01:08:57.215,,760,439,-323
01:08:57.253,,778,429,-364
01:08:57.290,,788,398,-377
01:08:57.327,,768,404,-356
01:08:57.364,,776,392,-384
01:08:57.401,,798,429,-381
01:08:57.438,,822,464,-350
01:08:57.475,,826,545,-325
01:08:57.512,,714,1274,332
01:08:57.549,,680,1676,628
01:08:57.586,,879,839,138
01:08:57.623,,762,606,-10
01:08:57.660,,812,535,-156
01:08:57.697,,846,544,-153
01:08:57.734,,892,345,-229
01:08:57.771,,891,275,-293
01:08:57.808,,909,303,-250
01:08:57.845,,917,362,-252
01:08:57.882,,874,406,-227
01:08:57.919,,861,390,-248
01:08:57.956,,817,425,-206
01:08:57.994,,787,441,-192
01:08:58.031,,794,489,-166
01:08:58.068,,787,550,-114
01:08:58.105,,760,601,-77
01:08:58.142,,789,638,-2
01:08:58.179,,840,648,21
01:08:58.216,,827,612,35
01:08:58.253,,824,587,84
01:08:58.290,,968,619,92
01:08:58.327,,985,600,24
01:08:58.364,,1103,592,-14
01:08:58.401,,1111,581,-68
01:08:58.438,,848,483,-98
01:08:58.475,,694,399,-64
01:08:58.512,,783,428,-66
01:08:58.549,,982,493,-105
01:08:58.586,,1129,472,-179
01:08:58.623,,1092,316,-234
01:08:58.660,,911,203,-194
01:08:58.697,,822,275,-118
01:08:58.735,,827,355,-145
01:08:58.772,,837,379,-212
01:08:58.809,,837,404,-236
01:08:58.846,,801,432,-246
01:08:58.883,,753,462,-269
01:08:58.920,,709,489,-258
01:08:58.957,,644,545,-241
01:08:58.994,,597,610,-165
01:08:59.031,,640,653,-171
01:08:59.068,,777,755,-168
01:08:59.105,,910,1164,547
01:08:59.142,,1003,1397,486
01:08:59.179,,833,465,39
01:08:59.216,,713,524,47
01:08:59.253,,880,531,95
01:08:59.290,,854,480,-45
01:08:59.327,,792,449,-101
01:08:59.364,,799,471,-163
01:08:59.401,,847,504,-155
01:08:59.438,,882,492,-129
01:08:59.476,,840,475,-120
01:08:59.513,,809,460,-75
01:08:59.550,,807,454,-44
01:08:59.587,,801,486,-6
01:08:59.624,,776,493,25
01:08:59.661,,776,494,40
01:08:59.698,,798,553,21
01:08:59.735,,819,583,-39
01:08:59.772,,896,528,-109
01:08:59.809,,924,571,-95
01:08:59.846,,985,553,-176
01:08:59.883,,1025,539,-292
01:08:59.920,,902,467,-317
01:08:59.957,,783,370,-320
01:08:59.994,,714,346,-345
01:09:00.031,,754,556,-362
01:09:00.068,,725,443,-104
01:09:00.105,,723,435,-159
01:09:00.142,,700,755,-263
01:09:00.179,,675,796,-295
01:09:00.217,,613,797,-259
01:09:00.254,,581,614,-121
01:09:00.291,,539,669,-106
01:09:00.328,,617,724,-268
01:09:00.365,,529,778,-348
01:09:00.402,,430,762,-319
01:09:00.439,,439,754,-326
01:09:00.476,,519,1020,-326
01:09:00.513,,608,858,-205
01:09:00.550,,577,688,-125
01:09:00.587,,496,691,-151
01:09:00.624,,500,651,-212
01:09:00.661,,602,686,-222
01:09:00.698,,688,886,-183
01:09:00.735,,643,775,-96
01:09:00.772,,648,697,58
01:09:00.809,,665,555,-91
01:09:00.846,,692,672,-193
01:09:00.883,,701,815,-323
01:09:00.920,,690,835,-367
01:09:00.958,,619,710,-303
01:09:00.995,,564,567,-139
01:09:01.032,,553,534,-31
01:09:01.069,,557,580,3
01:09:01.106,,609,708,-93
01:09:01.143,,638,706,-134
01:09:01.180,,653,624,-77
01:09:01.217,,667,544,-35
01:09:01.254,,706,493,-29
01:09:01.291,,772,588,-52
01:09:01.328,,873,730,-99
01:09:01.365,,964,723,-87
01:09:01.402,,957,667,89
01:09:01.439,,894,550,143
01:09:01.476,,838,504,111
01:09:01.513,,802,518,70
01:09:01.550,,795,489,37
01:09:01.587,,775,454,39
01:09:01.624,,795,434,46
01:09:01.661,,839,422,5
01:09:01.698,,814,427,-36
01:09:01.735,,761,451,-41
01:09:01.773,,779,503,-37
01:09:01.810,,895,557,-37
