Sensors' Acquisition [Hz]: Acc@26.0 
hh:mm:ss.ms, Annotation , AccX [mg], AccY, AccZ
18:11:00.682,,1317,618,337
18:11:00.719,,1415,533,270
18:11:00.742,>Walk,,,
18:11:00.756,,1294,438,226
18:11:00.792,,1109,388,221
18:11:00.829,,956,361,164
18:11:00.866,,847,374,106
18:11:00.903,,786,359,60
18:11:00.940,,714,282,29
18:11:00.976,,639,220,25
18:11:01.013,,620,239,54
18:11:01.050,,624,294,118
18:11:01.087,,725,360,169
18:11:01.124,,913,426,243
18:11:01.161,,998,486,324
18:11:01.198,,1331,630,419
18:11:01.234,,1435,666,466
18:11:01.357,,948,344,507
18:11:01.358,,948,344,507
18:11:01.358,,948,344,507
18:11:01.381,,903,361,460
18:11:01.418,,792,502,470
18:11:01.454,,741,662,442
18:11:01.491,,750,753,422
18:11:01.528,,780,791,400
18:11:01.565,,841,818,421
18:11:01.602,,986,871,516
18:11:01.638,,1134,842,528
18:11:01.675,,1252,628,379
18:11:01.712,,1401,523,306
18:11:01.748,,1330,463,260
18:11:01.785,,1139,434,229
18:11:01.821,,972,406,204
18:11:01.858,,847,380,144
18:11:01.895,,776,381,85
18:11:01.932,,749,350,47
18:11:01.969,,721,287,33
18:11:02.055,,688,273,84
18:11:02.056,,688,273,84
18:11:02.079,,704,337,150
18:11:02.116,,828,415,201
18:11:02.153,,921,435,272
18:11:02.190,,1082,534,354
18:11:02.227,,1403,588,405
18:11:02.263,,1330,576,402
18:11:02.300,,1055,536,436
18:11:02.337,,937,444,461
18:11:02.373,,893,475,405
18:11:02.410,,797,532,399
18:11:02.447,,698,624,450
18:11:02.484,,700,723,487
18:11:02.521,,821,783,522
18:11:02.558,,931,725,500
18:11:02.594,,1013,685,498
18:11:02.631,,1160,807,603
18:11:02.668,,1253,734,479
18:11:02.758,,1392,571,289
18:11:02.758,,1392,571,289
18:11:02.778,,1307,500,255
18:11:02.815,,1187,419,214
18:11:02.851,,1014,339,129
18:11:02.888,,885,312,55
18:11:02.925,,813,341,28
18:11:02.962,,769,326,9
18:11:02.998,,723,282,-3
18:11:03.035,,671,285,23
18:11:03.072,,618,329,95
18:11:03.109,,650,362,147
18:11:03.146,,745,405,253
18:11:03.183,,817,458,368
18:11:03.220,,1140,560,430
18:11:03.256,,1361,572,486
18:11:03.292,,1112,595,559
18:11:03.328,,932,452,606
18:11:03.365,,937,285,569
18:11:03.402,,950,288,523
18:11:03.488,,788,636,620
18:11:03.488,,788,636,620
18:11:03.512,,825,792,618
18:11:03.549,,871,824,584
18:11:03.586,,937,772,545
18:11:03.623,,1095,791,599
18:11:03.660,,1247,746,573
18:11:03.697,,1240,599,392
18:11:03.733,,1307,557,317
18:11:03.770,,1287,511,279
18:11:03.807,,1115,440,212
18:11:03.843,,955,368,157
18:11:03.880,,846,362,113
18:11:03.917,,766,387,72
18:11:03.954,,729,352,36
18:11:03.991,,698,278,22
18:11:04.028,,664,238,34
18:11:04.065,,678,278,94
18:11:04.101,,704,345,199
18:11:04.190,,928,385,339
18:11:04.190,,928,385,339
18:11:04.212,,1129,475,371
18:11:04.249,,1378,615,454
18:11:04.285,,1237,689,501
18:11:04.321,,992,634,541
18:11:04.358,,942,471,516
18:11:04.395,,896,360,441
18:11:04.431,,758,418,499
18:11:04.468,,737,582,580
18:11:04.505,,776,647,567
18:11:04.542,,817,671,540
18:11:04.579,,953,689,513
18:11:04.616,,1058,778,584
18:11:04.653,,1073,768,603
18:11:04.689,,1228,639,425
18:11:04.726,,1419,542,296
18:11:04.763,,1397,460,247
18:11:04.800,,1173,405,224
18:11:04.836,,929,348,154
18:11:04.925,,656,372,75
18:11:04.926,,656,372,75
18:11:04.947,,660,362,59
18:11:04.984,,675,310,62
18:11:05.020,,654,251,53
18:11:05.057,,703,281,97
18:11:05.094,,746,355,181
18:11:05.131,,913,416,236
18:11:05.168,,1074,473,317
18:11:05.205,,1076,515,398
18:11:05.242,,1370,601,429
18:11:05.278,,1354,571,422
18:11:05.315,,1069,498,416
18:11:05.352,,875,431,439
18:11:05.389,,786,504,465
18:11:05.425,,743,557,480
18:11:05.462,,716,535,489
18:11:05.499,,669,525,475
18:11:05.536,,709,623,498
18:11:05.573,,864,703,492
18:11:05.659,,1163,760,533
18:11:05.659,,1163,760,533
18:11:05.683,,1113,653,466
18:11:05.720,,1201,606,337
18:11:05.757,,1339,581,291
18:11:05.793,,1276,490,260
18:11:05.830,,1053,380,203
18:11:05.867,,859,314,149
18:11:05.903,,748,332,104
18:11:05.940,,737,370,82
18:11:05.977,,749,370,84
18:11:06.014,,755,305,61
18:11:06.051,,724,265,63
18:11:06.088,,708,294,118
18:11:06.125,,776,383,183
18:11:06.162,,896,440,278
18:11:06.198,,915,495,401
18:11:06.235,,1141,541,454
18:11:06.272,,1344,524,501
18:11:06.363,,849,339,515
18:11:06.363,,849,339,515
18:11:06.382,,849,339,515
18:11:06.419,,826,347,420
18:11:06.456,,765,426,431
18:11:06.493,,715,583,473
18:11:06.530,,709,682,471
18:11:06.566,,763,738,468
18:11:06.603,,846,704,440
18:11:06.640,,934,730,480
18:11:06.677,,1091,812,583
18:11:06.714,,1207,726,503
18:11:06.751,,1304,581,356
18:11:06.787,,1316,527,322
18:11:06.824,,1129,449,268
18:11:06.861,,991,405,220
18:11:06.897,,860,356,178
18:11:06.934,,777,368,138
18:11:06.971,,751,372,109
18:11:07.008,,742,322,72
18:11:07.045,,733,275,71
18:11:07.082,,700,251,98
18:11:07.119,,697,274,134
18:11:07.156,,779,340,176
18:11:07.192,,927,436,256
18:11:07.229,,1018,528,339
18:11:07.266,,1343,642,398
18:11:07.302,,1314,658,455
18:11:07.339,,984,634,526
18:11:07.376,,809,438,553
18:11:07.413,,838,323,512
18:11:07.449,,803,337,513
18:11:07.486,,765,465,543
18:11:07.523,,698,606,511
18:11:07.560,,720,706,488
18:11:07.597,,830,752,465
18:11:07.634,,933,776,455
18:11:07.670,,1141,847,542
18:11:07.707,,1127,737,480
18:11:07.744,,1253,684,373
18:11:07.781,,1376,633,301
18:11:07.817,,1263,516,241
18:11:07.854,,1074,389,211
18:11:07.891,,908,305,165
18:11:07.928,,794,316,112
18:11:07.964,,760,361,96
18:11:08.001,,780,350,73
18:11:08.038,,773,274,42
18:11:08.075,,703,237,49
18:11:08.112,,723,273,70
18:11:08.149,,949,398,130
18:11:08.186,,920,495,326
18:11:08.223,,867,562,448
18:11:08.259,,1073,575,519
18:11:08.296,,1152,545,501
18:11:08.333,,1013,478,481
18:11:08.369,,959,352,520
18:11:08.406,,903,393,593
18:11:08.443,,861,413,582
18:11:08.480,,852,401,545
18:11:08.517,,803,501,520
18:11:08.554,,773,639,505
18:11:08.590,,825,739,452
18:11:08.627,,1011,924,524
18:11:08.664,,1113,1000,608
18:11:08.701,,1177,763,465
18:11:08.738,,1413,571,352
18:11:08.774,,1396,494,268
18:11:08.811,,1175,421,236
18:11:08.848,,972,395,228
18:11:08.885,,833,395,169
18:11:08.921,,787,409,108
18:11:08.958,,785,391,76
18:11:08.995,,771,314,50
18:11:09.032,,729,248,40
18:11:09.069,,696,246,80
18:11:09.106,,739,284,114
18:11:09.143,,1005,425,196
18:11:09.180,,907,481,383
18:11:09.216,,792,514,455
18:11:09.253,,1116,580,527
18:11:09.289,,1384,658,537
18:11:09.326,,1216,526,535
18:11:09.363,,1007,284,568
18:11:09.400,,877,347,544
18:11:09.437,,722,491,496
18:11:09.474,,634,550,532
18:11:09.510,,598,582,511
18:11:09.547,,598,624,496
18:11:09.584,,733,664,470
18:11:09.621,,889,755,454
18:11:09.658,,1119,935,555
18:11:09.694,,1205,807,493
18:11:09.731,,1367,594,359
18:11:09.768,,1556,577,308
18:11:09.804,,1369,505,272
18:11:09.841,,1124,456,246
18:11:09.878,,953,402,194
18:11:09.915,,799,393,134
18:11:09.952,,719,373,95
18:11:09.989,,722,316,70
18:11:10.025,,701,234,54
18:11:10.062,,669,204,81
18:11:10.099,,642,231,156
18:11:10.136,,663,324,231
18:11:10.173,,820,404,297
18:11:10.210,,976,508,344
18:11:10.246,,1186,597,382
18:11:10.283,,1552,719,414
18:11:10.320,,1361,784,473
18:11:10.356,,1032,686,506
18:11:10.393,,940,537,450
18:11:10.430,,850,480,355
18:11:10.467,,714,503,371
18:11:10.504,,655,610,414
18:11:10.540,,668,710,401
18:11:10.577,,732,783,411
18:11:10.614,,819,734,382
18:11:10.651,,920,807,451
18:11:10.688,,1121,946,561
18:11:10.724,,1332,754,402
18:11:10.761,,1391,559,308
18:11:10.798,,1426,470,289
18:11:10.834,,1259,427,253
18:11:10.871,,1086,416,222
18:11:10.907,,936,371,171
18:11:10.944,,801,358,108
18:11:10.981,,751,342,66
18:11:11.018,,720,280,35
18:11:11.055,,671,233,32
18:11:11.092,,646,251,63
18:11:11.129,,679,309,125
18:11:11.166,,861,433,218
18:11:11.203,,946,470,360
18:11:11.239,,1000,477,402
18:11:11.276,,1359,566,502
18:11:11.312,,972,620,557
18:11:11.349,,852,402,556
18:11:11.386,,829,375,525
18:11:11.423,,762,436,491
18:11:11.460,,785,536,465
18:11:11.497,,824,609,425
18:11:11.533,,823,663,401
18:11:11.570,,829,718,375
18:11:11.607,,901,839,445
18:11:11.644,,1019,982,573
18:11:11.681,,1114,800,416
18:11:11.718,,1369,591,304
18:11:11.755,,1246,456,301
18:11:11.791,,1063,385,254
18:11:11.826,,917,379,209
18:11:11.862,,806,396,184
18:11:11.897,,783,426,173
18:11:11.934,,789,380,127
18:11:11.971,,769,303,92
18:11:12.008,,765,272,111
18:11:12.045,,774,262,129
18:11:12.082,,781,278,145
18:11:12.119,,977,382,172
18:11:12.156,,858,451,259
18:11:12.192,,943,571,326
18:11:12.229,,1292,695,422
18:11:12.264,,1292,738,442
18:11:12.301,,1032,529,389
18:11:12.338,,871,317,413
18:11:12.375,,798,365,416
18:11:12.412,,735,492,443
18:11:12.449,,669,596,520
18:11:12.486,,638,631,526
18:11:12.523,,700,664,564
18:11:12.559,,891,693,562
18:11:12.596,,1201,798,577
18:11:12.633,,1308,816,620
18:11:12.670,,1229,576,397
18:11:12.707,,1286,546,331
18:11:12.744,,1392,501,240
18:11:12.781,,1168,455,204
18:11:12.817,,962,407,188
18:11:12.854,,831,373,123
18:11:12.891,,786,388,54
18:11:12.928,,790,385,25
18:11:12.965,,781,312,6
18:11:13.002,,765,268,3
18:11:13.039,,695,279,48
18:11:13.076,,709,344,117
18:11:13.113,,885,428,235
18:11:13.150,,854,428,421
18:11:13.186,,866,366,421
18:11:13.223,,1185,393,462
18:11:13.260,,1314,551,616
18:11:13.296,,1089,630,749
18:11:13.333,,961,449,675
18:11:13.370,,901,393,636
18:11:13.406,,775,417,548
18:11:13.443,,752,496,523
18:11:13.480,,716,630,534
18:11:13.517,,809,711,488
18:11:13.554,,854,726,428
18:11:13.591,,1025,736,423
18:11:13.628,,1135,809,534
18:11:13.665,,1034,723,472
18:11:13.702,,1192,666,361
18:11:13.739,,1292,591,307
18:11:13.775,,1208,447,252
18:11:13.812,,1042,368,223
18:11:13.849,,860,331,194
18:11:13.886,,746,368,170
18:11:13.923,,747,349,125
18:11:13.960,,671,255,80
18:11:13.997,,641,217,92
18:11:14.034,,660,230,136
18:11:14.071,,708,313,206
18:11:14.108,,763,373,272
18:11:14.145,,939,446,340
18:11:14.181,,1092,479,402
18:11:14.218,,1430,577,440
18:11:14.255,,1518,579,428
18:11:14.292,,1147,595,441
18:11:14.329,,967,513,400
18:11:14.366,,838,500,340
18:11:14.403,,728,531,347
18:11:14.440,,672,549,364
18:11:14.477,,609,619,378
18:11:14.514,,657,685,385
18:11:14.551,,808,720,417
18:11:14.588,,943,770,433
18:11:14.624,,1247,1005,603
18:11:14.661,,1324,782,431
18:11:14.698,,1310,526,205
18:11:14.735,,1426,485,176
18:11:14.772,,1402,421,205
18:11:14.809,,1167,497,271
18:11:14.846,,1037,448,157
18:11:14.883,,802,308,52
18:11:14.920,,642,294,40
18:11:14.957,,637,305,54
18:11:14.994,,622,249,51
18:11:15.031,,615,223,62
18:11:15.068,,646,197,84
18:11:15.105,,737,265,123
18:11:15.142,,860,357,176
18:11:15.179,,901,465,263
18:11:15.216,,1258,720,425
18:11:15.252,,1668,910,560
18:11:15.289,,1281,711,499
18:11:15.326,,803,292,411
18:11:15.363,,711,121,340
18:11:15.400,,677,335,378
18:11:15.437,,725,568,544
18:11:15.474,,694,658,580
18:11:15.511,,658,640,542
18:11:15.548,,789,624,528
18:11:15.585,,1025,781,530
18:11:15.622,,1373,1054,663
18:11:15.659,,1255,776,473
18:11:15.696,,1334,545,359
18:11:15.733,,1380,528,259
18:11:15.770,,1243,523,229
18:11:15.807,,1043,490,265
18:11:15.844,,866,405,215
18:11:15.881,,778,356,102
18:11:15.918,,756,343,51
18:11:15.955,,784,312,48
18:11:15.992,,797,265,48
18:11:16.029,,763,232,62
18:11:16.066,,724,270,105
18:11:16.103,,814,345,150
18:11:16.140,,906,422,252
18:11:16.177,,1022,512,383
18:11:16.214,,1249,550,451
18:11:16.251,,1225,637,627
18:11:16.288,,1012,612,674
18:11:16.325,,988,369,556
18:11:16.362,,976,317,514
18:11:16.399,,887,449,536
18:11:16.436,,812,690,583
18:11:16.473,,801,857,560
18:11:16.510,,810,881,493
18:11:16.547,,858,821,423
18:11:16.584,,1026,861,464
18:11:16.621,,1107,915,519
18:11:16.658,,1139,792,462
18:11:16.695,,1337,711,366
18:11:16.732,,1453,594,275
18:11:16.769,,1303,473,247
18:11:16.806,,1121,407,227
18:11:16.843,,953,387,183
18:11:16.880,,834,384,118
18:11:16.917,,785,347,71
18:11:16.954,,726,261,53
18:11:16.991,,651,191,56
18:11:17.028,,646,198,94
18:11:17.065,,663,272,197
18:11:17.102,,739,368,286
18:11:17.139,,935,398,326
18:11:17.176,,998,431,380
18:11:17.213,,1343,563,465
18:11:17.250,,1596,644,474
18:11:17.287,,1275,610,442
18:11:17.324,,958,485,494
18:11:17.361,,899,500,485
18:11:17.398,,861,533,442
18:11:17.435,,789,559,475
18:11:17.472,,733,582,439
18:11:17.509,,758,674,413
18:11:17.546,,754,808,416
18:11:17.583,,828,902,424
18:11:17.620,,1067,1039,563
18:11:17.657,,1221,817,459
18:11:17.694,,1390,609,323
18:11:17.731,,1398,565,332
18:11:17.768,,1281,483,271
18:11:17.805,,1164,481,241
18:11:17.842,,1059,440,204
18:11:17.879,,955,427,151
18:11:17.916,,861,362,94
18:11:17.953,,760,258,45
18:11:17.990,,697,187,35
18:11:18.027,,680,182,50
18:11:18.064,,637,266,144
18:11:18.101,,663,358,245
18:11:18.138,,771,380,296
18:11:18.175,,929,423,334
18:11:18.212,,1331,573,415
18:11:18.249,,1584,670,418
18:11:18.286,,1355,686,388
18:11:18.323,,1148,571,378
18:11:18.360,,1013,572,326
18:11:18.397,,929,626,269
18:11:18.434,,812,678,299
18:11:18.471,,652,732,323
18:11:18.508,,679,825,357
18:11:18.545,,872,879,377
18:11:18.582,,1121,965,454
18:11:18.619,,1161,880,479
18:11:18.656,,1077,699,421
18:11:18.693,,1270,711,335
18:11:18.730,,1467,661,210
18:11:18.767,,1373,500,231
18:11:18.804,,1147,382,261
18:11:18.841,,1000,366,168
18:11:18.878,,929,391,71
18:11:18.915,,914,420,56
18:11:18.952,,920,332,16
18:11:18.989,,870,227,-15
18:11:19.026,,778,208,2
18:11:19.063,,837,317,48
18:11:19.100,,926,435,197
18:11:19.137,,698,429,369
18:11:19.174,,809,484,421
18:11:19.211,,1068,408,395
18:11:19.248,,1119,523,449
18:11:19.285,,1031,612,576
18:11:19.322,,941,629,674
18:11:19.359,,946,532,574
18:11:19.396,,924,425,511
18:11:19.434,,895,509,564
18:11:19.471,,874,696,562
18:11:19.508,,911,852,490
18:11:19.545,,1153,1072,557
18:11:19.582,,1135,1019,573
18:11:19.619,,1234,749,418
18:11:19.656,,1379,621,367
18:11:19.693,,1307,533,277
18:11:19.730,,1171,472,252
18:11:19.767,,1029,425,242
18:11:19.804,,888,429,183
18:11:19.841,,830,397,108
18:11:19.878,,829,348,74
18:11:19.915,,804,261,46
18:11:19.952,,761,187,43
18:11:19.989,,719,198,92
18:11:20.026,,689,278,152
18:11:20.063,,840,347,195
18:11:20.100,,917,385,260
18:11:20.137,,1182,516,325
18:11:20.174,,1444,643,416
18:11:20.211,,1282,808,547
18:11:20.248,,1063,690,586
18:11:20.285,,1031,471,493
18:11:20.322,,985,375,437
18:11:20.359,,852,454,515
18:11:20.396,,761,646,518
18:11:20.433,,762,849,502
18:11:20.470,,777,954,512
18:11:20.507,,936,950,502
18:11:20.544,,1181,968,599
18:11:20.581,,1209,720,489
18:11:20.618,,1295,646,370
18:11:20.655,,1531,651,284
18:11:20.692,,1514,563,255
18:11:20.729,,1269,465,237
18:11:20.766,,1076,393,171
18:11:20.803,,947,406,93
18:11:20.840,,877,409,58
18:11:20.877,,860,314,13
18:11:20.914,,779,201,-2
18:11:20.951,,666,140,10
18:11:20.988,,620,231,87
18:11:21.025,,723,331,171
18:11:21.062,,818,384,290
18:11:21.099,,905,467,379
18:11:21.136,,1225,616,452
18:11:21.173,,1407,680,476
18:11:21.210,,1220,689,509
18:11:21.247,,1053,609,599
18:11:21.284,,1030,471,592
18:11:21.321,,960,347,452
18:11:21.358,,811,479,490
18:11:21.395,,763,671,470
18:11:21.432,,764,802,406
18:11:21.469,,832,888,391
18:11:21.506,,1000,904,411
18:11:21.543,,1053,923,484
18:11:21.580,,980,772,446
18:11:21.617,,1137,700,342
18:11:21.654,,1337,680,260
18:11:21.691,,1308,537,230
18:11:21.728,,1147,419,245
18:11:21.765,,1004,361,206
18:11:21.802,,904,366,130
18:11:21.839,,860,378,94
18:11:21.876,,822,335,77
18:11:21.913,,750,239,56
18:11:21.950,,720,210,75
18:11:21.987,,682,240,144
18:11:22.024,,722,343,228
18:11:22.061,,935,439,338
18:11:22.098,,1006,465,381
18:11:22.135,,1431,629,483
18:11:22.172,,1187,672,489
18:11:22.209,,1033,601,500
18:11:22.246,,959,506,476
18:11:22.283,,837,502,482
18:11:22.320,,721,530,507
18:11:22.357,,668,565,466
18:11:22.394,,705,642,427
18:11:22.431,,722,710,382
18:11:22.468,,822,816,357
18:11:22.505,,1164,1037,469
18:11:22.542,,1101,859,465
18:11:22.579,,1249,691,346
18:11:22.616,,1426,624,289
18:11:22.653,,1456,519,240
18:11:22.691,,1232,436,231
18:11:22.727,,1001,377,215
18:11:22.765,,869,383,177
18:11:22.802,,794,343,111
18:11:22.839,,743,288,68
18:11:22.876,,655,216,73
18:11:22.913,,622,219,115
18:11:22.950,,646,234,142
18:11:22.987,,752,292,147
18:11:23.024,,938,413,237
18:11:23.061,,1007,587,372
18:11:23.098,,1205,717,449
18:11:23.135,,1409,742,489
18:11:23.172,,1206,706,529
18:11:23.209,,1016,524,501
18:11:23.246,,922,387,428
18:11:23.283,,821,404,414
18:11:23.320,,726,525,485
18:11:23.357,,695,609,489
18:11:23.394,,612,644,447
18:11:23.431,,701,681,443
18:11:23.468,,810,666,422
18:11:23.505,,856,686,417
18:11:23.542,,1040,763,500
18:11:23.579,,1142,756,507
18:11:23.616,,1132,631,403
18:11:23.653,,1299,605,364
18:11:23.690,,1348,521,265
18:11:23.727,,1132,439,221
18:11:23.764,,970,367,202
18:11:23.801,,812,333,157
18:11:23.838,,715,352,103
18:11:23.875,,727,363,85
18:11:23.912,,703,288,64
18:11:23.949,,659,243,61
18:11:23.986,,655,268,113
18:11:24.023,,708,314,163
18:11:24.060,,939,407,203
18:11:24.097,,1075,501,309
18:11:24.134,,1042,593,408
18:11:24.171,,1255,654,488
18:11:24.208,,1256,642,486
18:11:24.245,,1060,525,479
18:11:24.282,,920,323,490
18:11:24.319,,826,344,479
18:11:24.356,,709,438,458
18:11:24.393,,597,562,505
18:11:24.430,,606,600,488
18:11:24.467,,652,598,452
18:11:24.504,,760,633,438
18:11:24.541,,901,719,429
18:11:24.578,,1214,932,539
18:11:24.615,,1246,880,532
18:11:24.652,,1319,641,388
18:11:24.689,,1540,578,307
18:11:24.726,,1388,457,249
18:11:24.763,,1118,400,222
18:11:24.800,,885,353,194
18:11:24.837,,701,362,143
18:11:24.874,,610,355,88
18:11:24.911,,592,295,48
18:11:24.948,,557,217,38
18:11:24.985,,538,204,53
18:11:25.022,,621,280,119
18:11:25.059,,693,356,197
18:11:25.096,,909,452,262
18:11:25.133,,1167,539,384
18:11:25.170,,1214,578,472
18:11:25.207,,1586,612,476
18:11:25.244,,1490,544,438
18:11:25.281,,1049,497,470
18:11:25.318,,838,443,481
18:11:25.355,,775,491,407
18:11:25.393,,709,563,395
18:11:25.430,,612,617,440
18:11:25.467,,577,639,450
18:11:25.504,,708,650,452
18:11:25.541,,883,700,466
18:11:25.578,,965,686,399
18:11:25.615,,988,683,447
18:11:25.652,,1168,718,456
18:11:25.689,,1258,637,324
18:11:25.726,,1362,567,222
18:11:25.763,,1266,507,244
18:11:25.800,,1152,466,207
18:11:25.837,,1026,421,148
18:11:25.874,,915,367,105
18:11:25.911,,831,349,83
18:11:25.948,,779,317,59
18:11:25.985,,703,273,42
18:11:26.022,,659,255,47
18:11:26.059,,647,279,95
18:11:26.096,,657,322,142
18:11:26.133,,809,388,179
18:11:26.170,,986,442,253
18:11:26.207,,1004,537,353
18:11:26.244,,1330,640,443
18:11:26.281,,1468,669,456
18:11:26.318,,1140,554,441
18:11:26.355,,888,379,493
18:11:26.392,,850,375,438
18:11:26.429,,766,456,378
18:11:26.466,,682,553,432
18:11:26.503,,623,613,451
18:11:26.540,,686,668,456
18:11:26.577,,836,712,449
18:11:26.614,,973,775,453
18:11:26.651,,1174,935,575
18:11:26.688,,1111,805,501
18:11:26.725,,1192,652,361
18:11:26.762,,1390,609,307
18:11:26.799,,1399,501,241
18:11:26.836,,1232,421,229
18:11:26.873,,1039,341,187
18:11:26.910,,883,330,106
18:11:26.947,,798,359,57
18:11:26.984,,759,356,27
18:11:27.021,,708,279,4
18:11:27.058,,671,248,6
18:11:27.095,,653,276,50
18:11:27.132,,731,347,122
18:11:27.169,,948,461,230
18:11:27.206,,816,457,357
18:11:27.243,,904,504,451
18:11:27.280,,1250,580,534
18:11:27.317,,1250,613,578
18:11:27.354,,1042,432,580
18:11:27.391,,996,297,597
18:11:27.428,,928,365,507
18:11:27.465,,808,497,464
18:11:27.502,,757,579,480
18:11:27.539,,712,652,463
18:11:27.576,,740,702,439
18:11:27.613,,866,758,424
18:11:27.650,,1084,871,509
18:11:27.687,,1104,800,524
18:11:27.724,,1160,591,388
18:11:27.761,,1331,600,322
18:11:27.798,,1341,552,275
18:11:27.835,,1162,462,266
18:11:27.872,,981,388,244
18:11:27.909,,854,357,158
18:11:27.946,,797,370,94
18:11:27.983,,758,364,77
18:11:28.020,,720,294,52
18:11:28.057,,701,245,48
18:11:28.094,,714,233,70
18:11:28.131,,758,297,98
18:11:28.168,,975,392,130
18:11:28.205,,896,502,264
18:11:28.242,,977,621,364
18:11:28.279,,1279,730,464
18:11:28.316,,1225,678,434
18:11:28.353,,1020,377,339
18:11:28.390,,983,175,365
18:11:28.427,,913,366,440
18:11:28.464,,879,555,476
18:11:28.501,,758,661,513
18:11:28.538,,660,690,530
18:11:28.575,,675,674,540
18:11:28.612,,799,686,540
18:11:28.649,,990,698,534
18:11:28.686,,1176,750,609
18:11:28.723,,1172,620,488
18:11:28.760,,1266,597,377
18:11:28.797,,1430,613,301
18:11:28.834,,1361,579,243
18:11:28.871,,1187,484,233
18:11:28.908,,968,374,175
18:11:28.945,,810,334,83
18:11:28.982,,743,350,48
18:11:29.019,,692,325,37
18:11:29.056,,661,254,26
18:11:29.093,,660,218,36
18:11:29.130,,659,237,81
18:11:29.167,,732,331,143
18:11:29.204,,924,458,263
18:11:29.241,,906,469,388
18:11:29.278,,1192,551,432
18:11:29.315,,1489,578,445
18:11:29.352,,1310,624,477
18:11:29.389,,1080,531,559
18:11:29.426,,981,476,589
18:11:29.463,,889,464,498
18:11:29.500,,775,467,490
18:11:29.537,,715,559,522
18:11:29.574,,703,664,527
18:11:29.611,,809,720,502
18:11:29.648,,966,687,457
18:11:29.685,,1119,780,515
18:11:29.722,,1129,787,550
18:11:29.759,,1087,662,398
18:11:29.796,,1276,625,312
18:11:29.833,,1383,505,228
18:11:29.870,,1180,431,227
18:11:29.907,,1012,374,204
18:11:29.944,,870,339,132
18:11:29.981,,784,339,62
18:11:30.018,,750,340,39
18:11:30.055,,694,287,34
18:11:30.092,,647,257,38
18:11:30.129,,655,296,100
18:11:30.166,,680,351,200
18:11:30.203,,803,409,281
18:11:30.239,,885,393,341
18:11:30.276,,1012,430,401
18:11:30.313,,1406,535,488
18:11:30.350,,1372,589,522
18:11:30.387,,976,600,589
18:11:30.424,,870,446,574
18:11:30.461,,885,395,490
18:11:30.498,,853,427,464
18:11:30.535,,767,491,480
18:11:30.572,,718,598,447
18:11:30.609,,763,740,450
18:11:30.646,,775,779,401
18:11:30.683,,927,807,406
18:11:30.720,,1170,905,546
18:11:30.757,,1258,738,427
18:11:30.794,,1403,648,343
18:11:30.831,,1384,530,294
18:11:30.868,,1186,432,237
18:11:30.905,,985,373,200
18:11:30.942,,813,351,174
18:11:30.979,,760,379,153
18:11:31.016,,739,324,91
18:11:31.053,,691,243,50
18:11:31.090,,675,221,63
18:11:31.127,,685,233,86
18:11:31.164,,661,281,109
18:11:31.201,,845,380,160
18:11:31.238,,952,503,300
18:11:31.275,,1033,620,444
18:11:31.312,,1443,753,560
18:11:31.349,,1387,710,638
18:11:31.386,,896,479,649
18:11:31.423,,766,171,610
18:11:31.460,,710,190,539
18:11:31.497,,699,395,537
18:11:31.534,,704,588,591
18:11:31.571,,666,667,522
18:11:31.608,,707,677,447
18:11:31.645,,875,734,424
18:11:31.682,,1230,843,416
18:11:31.719,,1233,778,404
18:11:31.756,,1036,584,355
18:11:31.793,,1149,524,214
18:11:31.830,,1265,516,131
18:11:31.867,,1101,465,169
18:11:31.904,,883,367,166
18:11:31.941,,760,318,97
18:11:31.978,,694,325,89
18:11:32.015,,655,346,92
18:11:32.052,,635,291,92
18:11:32.089,,659,272,112
18:11:32.126,,737,321,155
18:11:32.163,,837,404,185
18:11:32.200,,1130,580,237
18:11:32.237,,1131,693,306
18:11:32.274,,1100,607,284
18:11:32.311,,1251,687,345
18:11:32.348,,1006,686,357
18:11:32.385,,780,437,250
18:11:32.422,,648,621,297
18:11:32.459,,492,582,186
18:11:32.496,,485,522,156
18:11:32.533,,498,558,186
18:11:32.570,,564,673,247
18:11:32.607,,674,763,332
18:11:32.644,,886,892,455
18:11:32.681,,1118,906,514
18:11:32.718,,1399,837,583
18:11:32.755,,1224,527,479
18:11:32.792,,1257,400,349
18:11:32.829,,1257,475,295
18:11:32.867,,1002,452,284
18:11:32.903,,836,395,257
18:11:32.941,,701,361,187
18:11:32.977,,638,348,55
18:11:33.014,,700,315,39
18:11:33.051,,649,256,40
18:11:33.088,,680,263,50
18:11:33.125,,711,343,112
18:11:33.162,,767,433,186
18:11:33.199,,956,515,305
18:11:33.237,,1077,548,411
18:11:33.273,,1191,498,408
18:11:33.311,,1409,512,446
18:11:33.348,,1118,541,515
18:11:33.385,,794,500,507
18:11:33.422,,750,446,437
18:11:33.459,,705,467,422
18:11:33.496,,645,517,455
18:11:33.533,,588,566,478
18:11:33.570,,597,590,450
18:11:33.607,,744,689,503
18:11:33.644,,970,736,492
18:11:33.681,,1310,844,550
18:11:33.718,,1266,707,514
18:11:33.755,,1170,561,351
18:11:33.792,,1266,571,278
18:11:33.829,,1293,503,176
18:11:33.866,,1099,435,177
18:11:33.903,,893,356,154
18:11:33.940,,731,332,85
18:11:33.977,,710,344,33
18:11:34.014,,692,332,15
18:11:34.051,,694,287,13
18:11:34.088,,721,267,37
18:11:34.125,,737,263,58
18:11:34.162,,804,331,103
18:11:34.199,,1113,501,253
18:11:34.236,,967,562,425
18:11:34.273,,1001,608,485
18:11:34.310,,1230,577,567
18:11:34.347,,1084,590,578
18:11:34.384,,881,425,542
18:11:34.421,,811,308,511
18:11:34.458,,760,357,450
18:11:34.495,,729,489,429
18:11:34.532,,753,593,468
18:11:34.569,,720,642,504
18:11:34.606,,772,672,522
18:11:34.643,,899,651,473
18:11:34.680,,1117,755,557
18:11:34.717,,1240,762,589
18:11:34.754,,1182,580,417
18:11:34.791,,1286,556,329
18:11:34.828,,1284,516,248
18:11:34.865,,1097,434,222
18:11:34.902,,914,352,203
18:11:34.939,,813,332,131
18:11:34.976,,748,344,75
18:11:35.013,,707,334,45
18:11:35.050,,664,269,27
18:11:35.087,,646,261,48
18:11:35.124,,672,308,124
18:11:35.161,,747,360,193
18:11:35.198,,961,455,282
18:11:35.235,,979,434,376
18:11:35.272,,1080,452,400
18:11:35.309,,1366,531,472
18:11:35.346,,1149,573,491
18:11:35.383,,880,528,487
18:11:35.420,,836,428,483
18:11:35.457,,822,479,497
18:11:35.494,,782,513,506
18:11:35.531,,745,547,501
18:11:35.568,,731,642,523
18:11:35.605,,779,757,511
18:11:35.642,,886,820,454
18:11:35.679,,1269,954,562
18:11:35.716,,1172,728,495
18:11:35.753,,1120,623,410
18:11:35.790,,1329,604,311
18:11:35.827,,1283,546,222
18:11:35.864,,1116,472,231
18:11:35.901,,956,378,216
18:11:35.938,,851,378,148
18:11:35.975,,823,375,91
18:11:36.012,,799,330,58
18:11:36.049,,751,252,51
18:11:36.086,,707,241,87
18:11:36.123,,665,261,161
18:11:36.160,,690,300,220
18:11:36.197,,841,374,344
18:11:36.234,,923,373,389
18:11:36.271,,1181,443,411
18:11:36.308,,1365,564,544
18:11:36.345,,1126,688,662
18:11:36.382,,912,579,596
18:11:36.419,,916,440,508
18:11:36.456,,873,422,520
18:11:36.493,,807,496,530
18:11:36.530,,706,613,492
18:11:36.567,,745,746,473
18:11:36.604,,810,838,403
18:11:36.641,,1164,1024,431
18:11:36.678,,1353,847,386
18:11:36.715,,944,690,441
18:11:36.752,,1145,683,362
18:11:36.789,,1333,664,202
18:11:36.826,,1273,557,223
18:11:36.863,,1053,365,236
18:11:36.900,,872,289,152
18:11:36.937,,740,291,91
18:11:36.974,,674,339,86
18:11:37.011,,660,299,94
18:11:37.048,,661,247,102
18:11:37.085,,689,256,143
18:11:37.122,,729,308,212
18:11:37.159,,810,367,269
18:11:37.196,,956,407,315
18:11:37.233,,1052,499,381
18:11:37.270,,1227,632,442
18:11:37.307,,1521,701,441
18:11:37.344,,1259,631,415
18:11:37.381,,886,526,448
18:11:37.418,,745,462,396
18:11:37.455,,694,493,325
18:11:37.492,,628,520,359
18:11:37.529,,600,556,391
18:11:37.566,,618,568,411
18:11:37.603,,715,607,438
18:11:37.640,,903,699,490
18:11:37.677,,985,662,465
18:11:37.714,,1059,678,535
18:11:37.751,,1255,761,617
18:11:37.788,,1269,614,469
18:11:37.825,,1331,517,347
18:11:37.862,,1293,448,316
18:11:37.899,,1038,394,256
18:11:37.936,,918,327,162
18:11:37.973,,750,295,106
18:11:38.010,,649,317,77
18:11:38.047,,675,354,64
18:11:38.084,,681,289,39
18:11:38.121,,613,231,14
18:11:38.158,,596,274,55
18:11:38.195,,624,361,136
18:11:38.232,,782,430,208
18:11:38.269,,1046,519,333
18:11:38.306,,1183,577,427
18:11:38.343,,1511,618,485
18:11:38.380,,1435,555,538
18:11:38.417,,944,494,595
18:11:38.454,,756,367,567
18:11:38.491,,725,354,483
18:11:38.528,,652,412,470
18:11:38.565,,587,526,496
18:11:38.602,,552,604,492
18:11:38.639,,632,672,504
18:11:38.676,,832,717,510
18:11:38.713,,1042,768,510
18:11:38.750,,1337,806,594
18:11:38.787,,1196,587,459
18:11:38.824,,1248,590,365
18:11:38.861,,1360,586,275
18:11:38.898,,1175,522,266
18:11:38.935,,948,409,236
18:11:38.972,,812,339,161
18:11:39.009,,751,372,99
18:11:39.046,,769,384,84
18:11:39.083,,742,296,64
18:11:39.120,,739,226,47
18:11:39.157,,735,234,102
18:11:39.194,,692,269,173
18:11:39.231,,784,364,256
18:11:39.268,,894,408,378
18:11:39.305,,898,409,406
18:11:39.342,,1238,503,470
18:11:39.379,,1525,652,534
18:11:39.416,,1333,736,573
18:11:39.453,,1011,592,573
18:11:39.490,,817,496,480
18:11:39.527,,757,490,403
18:11:39.564,,776,537,461
18:11:39.601,,707,594,492
18:11:39.638,,732,691,513
18:11:39.675,,808,699,459
18:11:39.712,,865,708,412
18:11:39.749,,991,794,485
18:11:39.786,,1144,805,523
18:11:39.823,,1186,689,403
18:11:39.860,,1372,613,335
18:11:39.897,,1285,480,267
18:11:39.934,,1057,419,241
18:11:39.971,,915,353,211
18:11:40.008,,797,359,163
18:11:40.045,,737,369,123
18:11:40.082,,746,315,99
18:11:40.119,,726,238,85
18:11:40.156,,687,212,117
18:11:40.193,,659,237,199
18:11:40.230,,769,366,301
18:11:40.267,,922,395,362
18:11:40.304,,895,404,369
18:11:40.341,,1230,596,485
18:11:40.378,,1556,754,564
18:11:40.415,,1235,701,518
18:11:40.452,,902,442,502
18:11:40.489,,799,390,475
18:11:40.526,,732,473,435
18:11:40.563,,694,542,476
18:11:40.601,,663,593,479
18:11:40.638,,703,633,474
18:11:40.675,,767,679,426
18:11:40.712,,923,832,409
18:11:40.749,,1240,1028,542
18:11:40.786,,1095,787,438
18:11:40.823,,1186,662,381
18:11:40.860,,1378,612,270
18:11:40.897,,1306,538,223
18:11:40.934,,1134,442,246
18:11:40.971,,949,368,211
18:11:41.008,,806,354,127
18:11:41.045,,748,363,82
18:11:41.082,,719,327,62
18:11:41.119,,685,251,47
18:11:41.156,,691,227,64
18:11:41.193,,688,232,93
18:11:41.230,,680,307,145
18:11:41.267,,894,408,215
18:11:41.304,,998,485,303
18:11:41.341,,1043,527,349
18:11:41.378,,1405,655,441
18:11:41.415,,1408,695,491
18:11:41.452,,1148,557,468
18:11:41.489,,963,372,472
18:11:41.526,,841,428,434
18:11:41.563,,766,555,410
18:11:41.600,,722,646,475
18:11:41.637,,639,684,522
18:11:41.674,,721,671,536
18:11:41.711,,877,658,521
18:11:41.748,,997,623,474
18:11:41.785,,1071,700,535
18:11:41.822,,1224,773,561
18:11:41.859,,1375,692,415
18:11:41.896,,1467,605,322
18:11:41.933,,1411,470,253
18:11:41.970,,1140,376,201
18:11:42.007,,945,312,140
18:11:42.044,,801,320,92
18:11:42.081,,723,366,69
18:11:42.118,,730,342,36
18:11:42.155,,693,240,3
18:11:42.192,,661,187,-8
18:11:42.229,,607,208,35
18:11:42.266,,570,293,94
18:11:42.303,,774,399,154
18:11:42.340,,970,476,250
18:11:42.377,,1080,594,358
18:11:42.414,,1544,843,524
18:11:42.451,,1624,818,522
18:11:42.488,,1243,464,477
18:11:42.525,,1054,73,510
18:11:42.562,,910,279,417
18:11:42.599,,774,651,454
18:11:42.636,,681,841,593
18:11:42.673,,602,796,622
18:11:42.710,,612,635,628
18:11:42.747,,780,518,563
18:11:42.784,,1017,624,532
18:11:42.821,,1228,826,625
18:11:42.858,,1536,771,505
18:11:42.895,,1679,631,345
18:11:42.932,,1593,489,293
18:11:42.969,,1292,412,253
18:11:43.006,,1043,400,179
18:11:43.043,,870,403,104
18:11:43.080,,743,397,60
18:11:43.117,,697,321,22
18:11:43.154,,673,229,-7
18:11:43.191,,676,165,-23
18:11:43.228,,619,189,22
18:11:43.265,,564,274,94
18:11:43.302,,755,391,188
18:11:43.339,,898,456,325
18:11:43.376,,1133,545,386
18:11:43.413,,1536,601,442
18:11:43.450,,1490,703,573
18:11:43.487,,1236,621,683
18:11:43.524,,1107,304,621
18:11:43.561,,994,256,557
18:11:43.598,,861,347,562
18:11:43.635,,713,579,565
18:11:43.672,,671,764,535
18:11:43.709,,699,850,507
18:11:43.746,,879,863,477
18:11:43.783,,1224,1015,565
18:11:43.820,,1150,836,525
18:11:43.857,,1126,703,331
18:11:43.894,,1443,576,228
18:11:43.931,,1208,428,238
18:11:43.968,,987,340,228
18:11:44.005,,834,352,126
18:11:44.042,,762,382,67
18:11:44.079,,805,371,46
18:11:44.116,,786,269,21
18:11:44.153,,756,205,19
18:11:44.190,,684,205,71
18:11:44.227,,627,278,128
18:11:44.264,,809,397,256
18:11:44.301,,856,467,463
18:11:44.338,,1053,487,476
18:11:44.375,,1505,512,518
18:11:44.412,,1450,667,701
18:11:44.449,,1077,675,832
18:11:44.486,,943,434,665
18:11:44.523,,891,296,487
18:11:44.560,,838,337,495
18:11:44.597,,724,519,570
18:11:44.634,,732,659,555
18:11:44.671,,791,736,477
18:11:44.708,,871,783,426
18:11:44.745,,1128,923,500
18:11:44.782,,1081,894,580
18:11:44.819,,1080,687,464
18:11:44.856,,1301,589,296
18:11:44.893,,1226,463,219
18:11:44.930,,1034,378,241
18:11:44.967,,921,356,250
18:11:45.004,,860,368,180
18:11:45.041,,839,361,115
18:11:45.078,,784,315,90
18:11:45.115,,715,238,96
18:11:45.152,,668,208,127
18:11:45.189,,673,255,187
18:11:45.226,,791,342,268
18:11:45.263,,976,400,341
18:11:45.300,,918,380,376
18:11:45.337,,1174,518,477
18:11:45.374,,1609,620,490
18:11:45.411,,1458,604,394
18:11:45.448,,1134,492,432
18:11:45.485,,909,524,494
18:11:45.522,,773,617,408
18:11:45.559,,687,636,434
18:11:45.596,,650,608,429
18:11:45.633,,686,626,436
18:11:45.670,,768,684,435
18:11:45.707,,925,807,413
18:11:45.744,,1218,964,525
18:11:45.781,,1080,816,505
18:11:45.818,,1168,768,425
18:11:45.855,,1418,655,289
18:11:45.893,,1311,486,238
18:11:45.930,,1133,388,253
18:11:45.967,,951,363,223
18:11:46.003,,832,380,141
18:11:46.040,,793,374,89
18:11:46.077,,774,313,63
18:11:46.114,,753,242,53
18:11:46.151,,765,230,78
18:11:46.188,,708,257,124
18:11:46.225,,703,323,190
18:11:46.262,,942,418,297
18:11:46.299,,1034,419,336
18:11:46.336,,1180,448,347
18:11:46.373,,1464,574,452
18:11:46.410,,1323,739,606
18:11:46.447,,1088,711,648
18:11:46.484,,968,504,541
18:11:46.521,,933,381,461
18:11:46.558,,811,439,478
18:11:46.595,,656,590,533
18:11:46.632,,630,771,525
18:11:46.670,,732,893,508
18:11:46.707,,851,800,468
18:11:46.744,,1058,737,509
18:11:46.781,,1329,780,564
18:11:46.818,,1443,660,377
18:11:46.855,,1539,638,314
18:11:46.892,,1599,532,246
18:11:46.929,,1304,448,211
18:11:46.966,,1113,392,157
18:11:47.002,,923,380,111
18:11:47.039,,753,376,86
18:11:47.076,,690,309,56
18:11:47.113,,614,188,29
18:11:47.150,,556,122,30
18:11:47.187,,527,177,111
18:11:47.224,,584,285,223
18:11:47.261,,851,439,326
18:11:47.298,,1048,496,354
18:11:47.335,,1329,709,449
18:11:47.372,,1524,738,513
18:11:47.409,,1261,733,547
18:11:47.446,,949,653,529
18:11:47.483,,832,538,475
18:11:47.520,,794,500,495
18:11:47.557,,798,490,515
18:11:47.594,,815,481,414
18:11:47.631,,773,624,411
18:11:47.668,,756,809,448
18:11:47.705,,786,867,394
18:11:47.742,,1064,907,447
18:11:47.779,,1327,862,564
18:11:47.816,,1366,625,484
18:11:47.853,,1457,540,387
18:11:47.890,,1526,523,285
18:11:47.927,,1284,481,242
18:11:47.964,,995,348,259
18:11:48.001,,845,301,201
18:11:48.038,,700,335,111
18:11:48.075,,656,297,61
18:11:48.112,,620,232,18
18:11:48.149,,621,192,18
18:11:48.186,,662,229,51
18:11:48.223,,680,296,83
18:11:48.260,,936,386,99
18:11:48.297,,1107,490,195
18:11:48.334,,1320,697,314
18:11:48.371,,1529,892,511
18:11:48.408,,1194,845,518
18:11:48.445,,868,536,386
18:11:48.482,,844,187,385
18:11:48.519,,878,144,503
18:11:48.555,,839,326,566
18:11:48.592,,770,589,591
18:11:48.629,,731,831,647
18:11:48.666,,773,846,640
18:11:48.703,,830,744,569
18:11:48.740,,966,678,591
18:11:48.777,,1253,771,653
18:11:48.814,,1429,662,488
18:11:48.851,,1423,591,394
18:11:48.888,,1454,522,347
18:11:48.925,,1280,462,251
18:11:48.962,,1073,415,186
18:11:48.999,,892,352,135
18:11:49.036,,745,348,93
18:11:49.073,,691,332,58
18:11:49.110,,655,259,25
18:11:49.147,,641,190,5
18:11:49.184,,592,169,35
18:11:49.221,,554,234,102
18:11:49.257,,651,335,185
18:11:49.294,,857,486,373
18:11:49.331,,1072,549,468
18:11:49.368,,1486,615,518
18:11:49.405,,1543,649,616
18:11:49.442,,1181,687,711
18:11:49.479,,1017,497,607
18:11:49.516,,956,447,556
18:11:49.553,,820,467,581
18:11:49.590,,674,543,609
18:11:49.627,,670,666,603
18:11:49.664,,711,766,540
18:11:49.701,,780,824,459
18:11:49.738,,972,874,475
18:11:49.775,,1138,902,572
18:11:49.812,,1301,818,482
18:11:49.849,,1575,742,374
18:11:49.886,,1553,576,272
18:11:49.923,,1270,459,254
18:11:49.960,,1114,389,223
18:11:49.997,,939,384,163
18:11:50.034,,794,404,115
18:11:50.071,,750,346,87
18:11:50.108,,746,218,51
18:11:50.145,,688,110,34
18:11:50.182,,608,107,93
18:11:50.219,,556,202,186
18:11:50.256,,692,364,309
18:11:50.293,,825,379,368
18:11:50.330,,1060,437,380
18:11:50.367,,1647,645,487
18:11:50.404,,1766,855,566
18:11:50.441,,1341,830,635
18:11:50.478,,964,588,587
18:11:50.515,,889,468,458
18:11:50.552,,845,396,455
18:11:50.589,,758,515,494
18:11:50.626,,692,732,509
18:11:50.663,,662,884,491
18:11:50.700,,790,952,457
18:11:50.737,,1181,987,499
18:11:50.774,,1260,796,553
18:11:50.811,,1269,657,440
18:11:50.848,,1513,663,337
18:11:50.885,,1608,622,264
18:11:50.922,,1340,524,289
18:11:50.959,,1060,422,237
18:11:50.996,,880,364,120
18:11:51.033,,768,371,68
18:11:51.070,,733,350,51
18:11:51.107,,683,246,41
18:11:51.144,,629,143,25
18:11:51.181,,597,146,66
18:11:51.218,,571,237,186
18:11:51.255,,690,363,311
18:11:51.292,,924,414,403
18:11:51.329,,1037,411,398
18:11:51.366,,1476,615,513
18:11:51.403,,1756,826,632
18:11:51.440,,1407,844,651
18:11:51.477,,1044,594,574
18:11:51.514,,890,439,489
18:11:51.551,,845,429,424
18:11:51.588,,710,580,461
18:11:51.625,,612,728,482
18:11:51.662,,599,834,503
18:11:51.699,,675,808,469
18:11:51.736,,791,746,443
18:11:51.773,,986,760,509
18:11:51.810,,1259,846,531
18:11:51.847,,1307,719,413
18:11:51.884,,1386,659,374
18:11:51.921,,1417,582,283
18:11:51.958,,1255,522,236
18:11:51.995,,1110,440,203
18:11:52.032,,969,372,137
18:11:52.069,,826,349,87
18:11:52.106,,766,326,67
18:11:52.143,,704,254,60
18:11:52.180,,651,191,55
18:11:52.217,,617,214,140
18:11:52.254,,603,263,237
18:11:52.291,,731,357,343
18:11:52.328,,867,342,399
18:11:52.365,,1058,377,408
18:11:52.402,,1519,616,541
18:11:52.439,,1603,876,661
18:11:52.476,,1238,800,615
18:11:52.513,,1008,580,494
18:11:52.550,,903,555,480
18:11:52.587,,808,575,478
18:11:52.624,,710,601,425
18:11:52.661,,689,716,427
18:11:52.698,,740,804,404
18:11:52.735,,773,826,361
18:11:52.773,,921,827,379
18:11:52.810,,1103,869,487
18:11:52.847,,1117,827,507
18:11:52.884,,1247,739,420
18:11:52.921,,1467,646,345
18:11:52.958,,1426,471,281
18:11:52.995,,1148,335,240
18:11:53.032,,895,296,205
18:11:53.069,,697,326,171
18:11:53.106,,648,364,136
18:11:53.143,,657,286,93
18:11:53.180,,628,165,69
18:11:53.217,,580,125,87
18:11:53.254,,592,202,154
18:11:53.291,,650,322,252
18:11:53.328,,789,423,354
18:11:53.365,,1046,501,432
18:11:53.402,,1225,535,472
18:11:53.439,,1640,585,469
18:11:53.476,,1747,668,475
18:11:53.513,,1188,710,563
18:11:53.550,,814,597,546
18:11:53.587,,729,536,445
18:11:53.624,,658,521,401
18:11:53.661,,540,536,434
18:11:53.698,,541,598,473
18:11:53.735,,627,645,456
18:11:53.772,,725,766,427
18:11:53.809,,1190,1015,490
18:11:53.846,,1402,914,461
18:11:53.883,,1233,690,384
18:11:53.920,,1394,659,349
18:11:53.957,,1437,612,243
18:11:53.994,,1243,527,210
18:11:54.031,,1025,396,192
18:11:54.068,,849,367,137
18:11:54.105,,763,385,83
18:11:54.142,,737,368,52
18:11:54.179,,693,272,32
18:11:54.216,,681,201,17
18:11:54.253,,673,217,71
18:11:54.290,,637,293,189
18:11:54.327,,769,421,303
18:11:54.364,,964,481,456
18:11:54.401,,939,432,493
18:11:54.438,,1184,414,509
18:11:54.475,,1422,534,586
18:11:54.512,,1191,615,599
18:11:54.549,,898,530,571
18:11:54.586,,864,438,519
18:11:54.623,,860,425,420
18:11:54.660,,804,481,391
18:11:54.697,,754,601,446
18:11:54.734,,798,748,427
18:11:54.771,,855,879,442
18:11:54.808,,1052,888,512
18:11:54.845,,1130,753,491
18:11:54.882,,1124,666,410
18:11:54.919,,1320,655,354
18:11:54.956,,1249,535,291
18:11:54.993,,1106,449,279
18:11:55.030,,1027,375,244
18:11:55.067,,909,371,173
18:11:55.104,,833,358,131
18:11:55.141,,798,293,102
18:11:55.178,,701,185,60
18:11:55.215,,600,144,55
18:11:55.252,,575,244,144
18:11:55.289,,583,342,255
18:11:55.326,,760,420,344
18:11:55.363,,1020,458,429
18:11:55.400,,1133,408,421
18:11:55.437,,1612,438,369
18:11:55.474,,1813,520,290
18:11:55.511,,1395,665,331
18:11:55.548,,972,721,448
18:11:55.585,,821,758,373
18:11:55.622,,696,722,344
18:11:55.659,,624,608,366
18:11:55.696,,620,583,358
18:11:55.733,,703,668,365
18:11:55.770,,805,818,330
18:11:55.807,,1117,1014,393
18:11:55.844,,1085,856,465
18:11:55.881,,1060,763,393
18:11:55.918,,1384,783,272
18:11:55.955,,1527,638,209
18:11:55.992,,1354,454,249
18:11:56.029,,1130,370,248
18:11:56.066,,969,399,164
18:11:56.103,,873,432,124
18:11:56.140,,846,376,86
18:11:56.177,,778,260,64
18:11:56.214,,706,166,78
18:11:56.251,,671,156,109
18:11:56.288,,628,203,141
18:11:56.325,,636,274,182
18:11:56.362,,847,377,251
18:11:56.399,,1155,524,314
18:11:56.436,,1564,679,351
18:11:56.473,,1590,820,499
18:11:56.510,,1181,861,680
18:11:56.547,,928,642,562
18:11:56.584,,908,383,389
18:11:56.621,,867,291,476
18:11:56.658,,774,456,554
18:11:56.695,,679,646,537
18:11:56.732,,695,829,526
18:11:56.769,,790,911,487
18:11:56.806,,1127,1004,549
18:11:56.843,,1259,837,529
18:11:56.880,,1224,668,448
18:11:56.917,,1438,653,348
18:11:56.954,,1504,627,246
18:11:56.991,,1339,540,260
18:11:57.028,,1128,428,240
18:11:57.065,,954,378,129
18:11:57.102,,853,369,59
18:11:57.139,,791,343,40
18:11:57.176,,725,246,22
18:11:57.213,,662,163,12
18:11:57.250,,598,171,43
18:11:57.287,,573,265,116
18:11:57.324,,697,355,199
18:11:57.361,,795,373,295
18:11:57.398,,1042,448,342
18:11:57.435,,1590,618,428
18:11:57.472,,1644,771,519
18:11:57.509,,1267,722,597
18:11:57.546,,996,550,615
18:11:57.583,,1021,448,484
18:11:57.620,,911,379,461
18:11:57.657,,752,460,542
18:11:57.694,,641,673,589
18:11:57.731,,686,803,572
18:11:57.768,,711,873,479
18:11:57.805,,1083,983,503
18:11:57.842,,1362,938,516
18:11:57.879,,1393,736,419
18:11:57.916,,1491,713,389
18:11:57.953,,1508,665,272
18:11:57.990,,1320,568,225
18:11:58.027,,1142,448,196
18:11:58.064,,979,383,131
18:11:58.101,,843,353,77
18:11:58.138,,789,330,51
18:11:58.175,,719,240,20
18:11:58.212,,637,148,-12
18:11:58.249,,562,159,19
18:11:58.286,,523,234,74
18:11:58.323,,595,303,115
18:11:58.360,,985,453,184
18:11:58.397,,1146,525,268
18:11:58.434,,1573,803,398
18:11:58.471,,1826,971,612
18:11:58.508,,1336,988,705
18:11:58.545,,1010,557,568
18:11:58.582,,1001,223,498
18:11:58.619,,913,310,559
18:11:58.656,,790,520,585
18:11:58.693,,636,770,551
18:11:58.730,,570,899,551
18:11:58.767,,671,809,460
18:11:58.804,,1040,936,560
18:11:58.841,,1392,848,592
18:11:58.878,,1430,620,402
18:11:58.915,,1676,587,340
18:11:58.952,,1530,524,266
18:11:58.989,,1259,519,274
18:11:59.026,,1061,459,237
18:11:59.063,,886,424,139
18:11:59.100,,782,401,82
18:11:59.137,,757,304,49
18:11:59.174,,730,166,21
18:11:59.211,,686,95,22
18:11:59.248,,616,120,80
18:11:59.285,,598,241,189
18:11:59.322,,739,357,300
18:11:59.359,,828,368,346
18:11:59.396,,1249,576,475
18:11:59.433,,1807,772,585
18:11:59.470,,1659,804,605
18:11:59.507,,1260,562,611
18:11:59.544,,1067,408,524
18:11:59.581,,896,457,483
18:11:59.618,,818,469,493
18:11:59.655,,725,592,447
18:11:59.692,,661,754,377
18:11:59.729,,660,858,290
18:11:59.766,,820,1002,272
18:11:59.803,,1207,1262,465
18:11:59.840,,1131,933,382
18:11:59.877,,1343,886,393
18:11:59.915,,1530,773,238
18:11:59.951,,1487,635,181
18:11:59.989,,1428,439,221
18:12:00.025,,1248,344,206
18:12:00.062,,1010,353,147
18:12:00.099,,876,349,97
18:12:00.136,,781,254,49
18:12:00.173,,661,128,9
18:12:00.210,,624,141,32
18:12:00.247,,589,211,108
18:12:00.284,,675,311,188
18:12:00.321,,875,396,302
18:12:00.358,,1034,416,369
18:12:00.395,,1438,563,439
18:12:00.432,,1648,708,494
18:12:00.469,,1425,763,619
18:12:00.506,,1178,589,619
18:12:00.543,,1058,471,496
18:12:00.580,,943,428,504
18:12:00.617,,859,437,470
18:12:00.654,,766,643,413
18:12:00.691,,711,840,337
18:12:00.728,,685,926,277
18:12:00.766,,831,1026,355
18:12:00.803,,1078,1083,530
18:12:00.840,,1150,866,455
18:12:00.877,,1378,765,359
18:12:00.914,,1531,655,266
18:12:00.951,,1385,495,237
18:12:00.988,,1225,389,233
18:12:01.025,,1052,371,206
18:12:01.062,,935,400,150
18:12:01.099,,866,375,101
18:12:01.136,,792,286,56
18:12:01.173,,761,209,47
18:12:01.210,,694,170,76
18:12:01.247,,666,223,104
18:12:01.284,,841,334,183
18:12:01.321,,876,375,302
18:12:01.358,,1016,468,371
18:12:01.395,,1312,533,443
18:12:01.432,,1388,702,536
18:12:01.469,,1258,722,588
18:12:01.506,,1144,553,580
18:12:01.543,,1030,449,553
18:12:01.580,,864,452,565
18:12:01.617,,822,458,528
18:12:01.654,,766,646,482
18:12:01.691,,696,903,422
18:12:01.728,,761,1012,421
18:12:01.765,,1072,991,508
18:12:01.802,,1191,755,505
18:12:01.839,,1264,578,417
18:12:01.876,,1505,618,360
18:12:01.913,,1532,604,269
18:12:01.950,,1329,502,253
18:12:01.987,,1155,402,247
18:12:02.024,,963,374,176
18:12:02.061,,827,380,107
18:12:02.098,,770,349,80
18:12:02.135,,692,229,46
18:12:02.172,,595,114,8
18:12:02.209,,516,141,43
18:12:02.246,,518,257,135
18:12:02.283,,700,390,223
18:12:02.320,,927,409,265
18:12:02.357,,1151,522,339
18:12:02.394,,1661,799,501
18:12:02.431,,1531,937,649
18:12:02.468,,976,713,707
18:12:02.505,,902,241,581
18:12:02.542,,930,106,578
18:12:02.579,,878,206,629
18:12:02.616,,736,463,473
18:12:02.653,,577,850,376
18:12:02.690,,894,1161,447
18:12:02.727,,1420,1248,374
18:12:02.764,,1202,817,203
18:12:02.801,,1207,422,258
18:12:02.838,,1347,351,53
18:12:02.875,,1241,517,16
18:12:02.912,,1029,585,169
18:12:02.949,,1076,472,120
18:12:02.986,,834,283,18
18:12:03.023,,671,281,-5
18:12:03.060,,687,319,35
18:12:03.097,,705,277,52
18:12:03.134,,691,301,84
18:12:03.171,,716,297,138
18:12:03.207,,739,259,149
18:12:03.244,,934,353,186
18:12:03.281,,1090,425,224
18:12:03.318,,1484,597,259
18:12:03.355,,1791,781,374
18:12:03.392,,1311,800,498
18:12:03.429,,929,521,405
18:12:03.466,,849,437,202
18:12:03.503,,730,547,238
18:12:03.540,,683,599,401
18:12:03.577,,637,664,410
18:12:03.614,,630,689,395
18:12:03.651,,734,706,399
18:12:03.688,,865,834,434
18:12:03.725,,1191,1018,597
18:12:03.762,,1302,853,512
18:12:03.799,,1472,683,429
18:12:03.836,,1640,542,345
18:12:03.873,,1429,431,301
18:12:03.910,,1193,382,267
18:12:03.947,,1003,364,206
18:12:03.984,,857,386,126
18:12:04.021,,825,372,69
18:12:04.058,,781,279,43
18:12:04.095,,728,169,14
18:12:04.132,,672,142,18
18:12:04.169,,589,222,94
18:12:04.206,,595,315,187
18:12:04.243,,825,436,321
18:12:04.280,,908,455,406
18:12:04.317,,1254,547,452
18:12:04.354,,1636,613,487
18:12:04.391,,1438,755,659
18:12:04.428,,1149,631,745
18:12:04.465,,1046,455,614
18:12:04.502,,887,460,547
18:12:04.539,,748,507,462
18:12:04.576,,681,601,346
18:12:04.613,,711,743,251
18:12:04.650,,709,848,117
18:12:04.687,,1079,1218,179
18:12:04.724,,1183,1171,300
18:12:04.761,,1097,977,417
18:12:04.798,,1353,874,325
18:12:04.835,,1332,731,174
18:12:04.871,,1275,509,137
18:12:04.908,,1220,302,173
18:12:04.945,,1024,299,208
18:12:04.982,,863,344,198
18:12:05.019,,831,337,163
18:12:05.055,,751,180,84
18:12:05.092,,646,118,66
18:12:05.129,,626,188,128
18:12:05.166,,737,321,210
18:12:05.203,,973,433,295
18:12:05.240,,998,440,346
18:12:05.277,,1378,667,456
18:12:05.314,,1633,757,437
18:12:05.350,,1321,655,365
18:12:05.387,,1081,369,370
18:12:05.424,,915,429,401
18:12:05.461,,814,555,405
18:12:05.498,,749,568,374
18:12:05.535,,660,636,353
18:12:05.572,,704,726,395
18:12:05.609,,775,741,417
18:12:05.646,,1154,1030,588
18:12:05.683,,1063,845,475
18:12:05.720,,1359,774,404
18:12:05.757,,1546,608,308
18:12:05.794,,1353,434,263
18:12:05.831,,1140,364,266
18:12:05.868,,945,354,226
18:12:05.905,,813,398,151
18:12:05.942,,757,383,100
18:12:05.979,,732,300,62
18:12:06.016,,718,225,52
18:12:06.053,,713,189,74
18:12:06.090,,690,214,108
18:12:06.127,,784,333,167
18:12:06.164,,966,436,266
18:12:06.201,,893,398,286
18:12:06.238,,1175,534,357
18:12:06.275,,1516,682,452
18:12:06.312,,1368,789,504
18:12:06.349,,1150,591,573
18:12:06.386,,1001,428,581
18:12:06.423,,880,430,516
18:12:06.460,,803,450,474
18:12:06.497,,702,566,449
18:12:06.534,,663,715,457
18:12:06.571,,681,814,419
18:12:06.608,,852,876,371
18:12:06.645,,1190,980,471
18:12:06.682,,1179,795,480
18:12:06.719,,1265,726,421
18:12:06.756,,1518,691,320
18:12:06.793,,1397,556,249
18:12:06.830,,1190,418,223
18:12:06.867,,1006,349,205
18:12:06.904,,879,360,157
18:12:06.941,,777,352,104
18:12:06.978,,728,286,68
18:12:07.015,,666,205,49
18:12:07.052,,622,190,75
18:12:07.089,,578,230,144
18:12:07.126,,602,326,217
18:12:07.163,,855,423,307
18:12:07.200,,935,451,371
18:12:07.237,,1281,575,454
18:12:07.274,,1592,676,586
18:12:07.311,,1208,713,654
18:12:07.348,,891,455,571
18:12:07.385,,877,298,514
18:12:07.422,,837,365,481
18:12:07.459,,732,515,507
18:12:07.496,,681,661,523
18:12:07.533,,701,788,512
18:12:07.570,,744,823,465
18:12:07.607,,814,800,458
18:12:07.644,,1089,879,535
18:12:07.681,,1267,836,480
18:12:07.719,,1349,707,375
18:12:07.756,,1430,649,380
18:12:07.793,,1302,539,294
18:12:07.830,,1128,459,221
18:12:07.867,,996,381,180
18:12:07.904,,855,376,146
18:12:07.941,,800,379,119
18:12:07.978,,795,302,68
18:12:08.014,,737,200,21
18:12:08.051,,676,159,32
18:12:08.088,,620,211,88
18:12:08.125,,600,313,173
18:12:08.162,,796,420,294
18:12:08.199,,921,504,431
18:12:08.236,,1093,591,503
18:12:08.273,,1512,659,576
18:12:08.310,,1402,709,641
18:12:08.347,,1062,556,653
18:12:08.384,,958,400,571
18:12:08.421,,869,402,493
18:12:08.458,,753,519,535
18:12:08.495,,687,600,513
18:12:08.533,,672,668,460
18:12:08.570,,721,715,423
18:12:08.607,,786,724,380
18:12:08.644,,957,802,439
18:12:08.681,,1112,867,558
18:12:08.718,,1173,756,450
18:12:08.755,,1367,685,370
18:12:08.792,,1429,540,309
18:12:08.829,,1234,399,251
18:12:08.866,,993,323,212
18:12:08.903,,841,334,204
18:12:08.940,,764,349,155
18:12:08.977,,691,311,99
18:12:09.014,,639,218,76
18:12:09.051,,607,198,103
18:12:09.088,,633,220,140
18:12:09.125,,650,271,191
18:12:09.162,,842,397,281
18:12:09.199,,970,467,392
18:12:09.236,,1212,601,475
18:12:09.273,,1501,646,584
18:12:09.310,,1265,701,696
18:12:09.347,,878,529,619
18:12:09.384,,779,286,518
18:12:09.421,,692,308,528
18:12:09.458,,656,421,566
18:12:09.495,,616,529,554
18:12:09.532,,668,610,513
18:12:09.569,,782,671,482
18:12:09.606,,1006,779,432
18:12:09.643,,1508,998,511
18:12:09.680,,1160,759,472
18:12:09.717,,1064,655,465
18:12:09.754,,1317,630,298
18:12:09.791,,1263,564,202
18:12:09.828,,1065,395,243
18:12:09.865,,871,289,246
18:12:09.902,,702,277,144
18:12:09.939,,640,289,89
18:12:09.976,,662,293,97
18:12:10.013,,646,226,100
18:12:10.050,,640,194,104
18:12:10.087,,698,247,147
18:12:10.124,,749,351,212
18:12:10.161,,970,442,268
18:12:10.198,,1066,508,356
18:12:10.235,,1368,635,425
18:12:10.272,,1716,674,451
18:12:10.309,,1375,624,436
18:12:10.346,,969,444,429
18:12:10.383,,774,432,395
18:12:10.420,,722,592,403
18:12:10.457,,688,630,462
18:12:10.494,,564,613,461
18:12:10.531,,610,616,442
18:12:10.568,,757,689,437
18:12:10.605,,885,825,423
18:12:10.642,,1296,1043,522
18:12:10.679,,1351,840,446
18:12:10.716,,1397,747,388
18:12:10.753,,1547,667,327
18:12:10.790,,1386,558,251
18:12:10.827,,1206,445,211
18:12:10.864,,996,356,164
18:12:10.901,,836,343,101
18:12:10.938,,766,353,77
18:12:10.975,,757,315,45
18:12:11.012,,725,215,-2
18:12:11.049,,678,171,-5
18:12:11.086,,617,235,62
18:12:11.123,,674,324,109
18:12:11.160,,994,433,161
18:12:11.197,,969,482,293
18:12:11.234,,1167,639,373
18:12:11.271,,1476,735,487
18:12:11.308,,1382,773,494
18:12:11.345,,1214,471,418
18:12:11.382,,1080,281,517
18:12:11.419,,991,332,542
18:12:11.456,,823,493,488
18:12:11.493,,640,657,512
18:12:11.530,,578,745,520
18:12:11.567,,636,777,531
18:12:11.604,,919,782,540
18:12:11.641,,1303,901,592
18:12:11.678,,1260,839,542
18:12:11.715,,1394,643,473
18:12:11.752,,1622,609,327
18:12:11.789,,1609,546,221
18:12:11.826,,1289,459,249
18:12:11.863,,1031,398,208
18:12:11.900,,877,388,104
18:12:11.937,,791,397,45
18:12:11.974,,767,358,21
18:12:12.011,,755,241,-10
18:12:12.048,,694,162,-20
18:12:12.085,,614,179,22
18:12:12.122,,686,293,76
18:12:12.159,,891,387,181
18:12:12.196,,840,439,346
18:12:12.233,,1055,565,443
18:12:12.270,,1472,660,529
18:12:12.307,,1416,762,598
18:12:12.344,,1218,550,561
18:12:12.381,,1172,347,555
18:12:12.418,,1058,365,553
18:12:12.455,,884,475,564
18:12:12.492,,781,547,522
18:12:12.529,,706,676,477
18:12:12.566,,696,790,462
18:12:12.603,,823,837,427
18:12:12.640,,1162,1061,586
18:12:12.677,,1144,922,551
18:12:12.714,,1396,723,462
18:12:12.751,,1637,596,291
18:12:12.788,,1488,460,219
18:12:12.825,,1252,393,277
18:12:12.862,,1036,391,251
18:12:12.899,,882,396,137
18:12:12.936,,808,367,65
18:12:12.973,,766,293,31
18:12:13.010,,697,173,9
18:12:13.047,,622,132,13
18:12:13.084,,602,207,77
18:12:13.121,,670,306,139
18:12:13.158,,889,404,203
18:12:13.195,,935,404,279
18:12:13.232,,1312,616,381
18:12:13.269,,1617,711,444
18:12:13.306,,1406,715,417
18:12:13.343,,1130,500,446
18:12:13.380,,1037,461,557
18:12:13.417,,976,484,534
18:12:13.454,,837,494,524
18:12:13.491,,758,630,513
18:12:13.528,,741,794,504
18:12:13.565,,778,865,478
18:12:13.602,,868,909,477
18:12:13.639,,1161,1018,610
18:12:13.676,,1299,803,443
18:12:13.713,,1473,698,363
18:12:13.750,,1578,585,298
18:12:13.787,,1402,500,273
18:12:13.824,,1203,432,225
18:12:13.861,,1034,372,144
18:12:13.898,,913,379,89
18:12:13.935,,840,371,63
18:12:13.972,,761,295,21
18:12:14.009,,684,194,-12
18:12:14.046,,633,177,8
18:12:14.083,,608,260,64
18:12:14.120,,816,385,147
18:12:14.157,,760,417,299
18:12:14.194,,999,541,401
18:12:14.231,,1344,606,474
18:12:14.268,,1324,670,529
18:12:14.305,,1116,514,541
18:12:14.342,,1048,374,590
18:12:14.379,,983,385,621
18:12:14.416,,849,431,587
18:12:14.453,,739,532,610
18:12:14.490,,735,689,583
18:12:14.527,,781,809,503
18:12:14.564,,948,915,459
18:12:14.601,,1239,996,529
18:12:14.638,,1123,746,414
18:12:14.675,,1250,712,408
18:12:14.712,,1404,679,289
18:12:14.749,,1306,605,216
18:12:14.786,,1140,456,217
18:12:14.823,,986,375,191
18:12:14.860,,874,373,126
18:12:14.897,,837,367,76
18:12:14.934,,787,301,39
18:12:14.971,,727,228,29
18:12:15.008,,675,212,54
18:12:15.045,,664,256,92
18:12:15.082,,824,330,119
18:12:15.119,,912,447,270
18:12:15.156,,815,471,378
18:12:15.193,,1053,550,446
18:12:15.230,,1332,695,573
18:12:15.267,,1147,679,629
18:12:15.304,,1019,366,570
18:12:15.341,,905,347,676
18:12:15.378,,825,441,691
18:12:15.415,,710,526,681
18:12:15.452,,632,584,585
18:12:15.489,,655,674,527
18:12:15.526,,741,735,455
18:12:15.563,,867,826,399
18:12:15.600,,1155,932,481
18:12:15.637,,1229,855,453
18:12:15.674,,1326,781,300
18:12:15.711,,1500,760,259
18:12:15.748,,1345,594,215
18:12:15.785,,1123,439,190
18:12:15.822,,919,387,148
18:12:15.859,,820,442,88
18:12:15.896,,688,418,81
18:12:15.933,,595,440,74
18:12:15.970,,517,381,106
18:12:16.007,,428,458,164
18:12:16.044,,296,492,252
18:12:16.081,,230,687,342
18:12:16.118,,251,990,428
18:12:16.155,,281,947,492
18:12:16.191,,357,1004,374
18:12:16.228,,345,1143,421
18:12:16.265,,236,1120,435
18:12:16.302,,126,847,389
18:12:16.339,,56,629,377
18:12:16.376,,17,626,365
18:12:16.413,,17,679,293
18:12:16.450,,51,707,272
18:12:16.487,,123,950,292
18:12:16.524,,218,954,314
18:12:16.561,,329,804,309
18:12:16.598,,545,848,392
18:12:16.635,,783,1165,445
18:12:16.672,,840,1315,394
18:12:16.709,,943,1037,307
18:12:16.746,,977,735,255
18:12:16.783,,803,521,271
18:12:16.820,,632,410,219
18:12:16.857,,491,387,169
18:12:16.894,,472,386,133
18:12:16.931,,515,373,116
18:12:16.968,,539,363,124
18:12:17.005,,657,394,145
18:12:17.042,,808,427,144
18:12:17.079,,936,506,185
18:12:17.116,,1369,666,251
18:12:17.153,,1189,686,412
18:12:17.190,,967,670,485
18:12:17.227,,1189,558,473
18:12:17.264,,862,445,386
18:12:17.301,,659,265,316
18:12:17.338,,511,289,368
18:12:17.375,,478,405,391
18:12:17.412,,449,450,398
18:12:17.449,,491,464,414
18:12:17.486,,615,501,447
18:12:17.523,,808,583,489
18:12:17.560,,1068,657,472
18:12:17.597,,1405,746,487
18:12:17.634,,1323,716,510
18:12:17.671,,1081,584,350
18:12:17.708,,1076,492,284
18:12:17.745,,1086,465,199
18:12:17.782,,889,417,181
18:12:17.819,,716,367,187
18:12:17.856,,625,346,143
18:12:17.893,,608,356,86
18:12:17.930,,659,365,65
18:12:17.967,,701,318,58
18:12:18.004,,746,294,78
18:12:18.041,,794,310,110
18:12:18.078,,880,387,145
18:12:18.115,,1111,478,218
18:12:18.152,,966,547,380
18:12:18.189,,1075,557,420
18:12:18.226,,1167,519,459
18:12:18.263,,944,510,496
18:12:18.300,,754,456,543
18:12:18.337,,732,401,550
18:12:18.375,,713,389,508
18:12:18.411,,628,426,517
18:12:18.449,,653,497,550
18:12:18.486,,694,588,575
18:12:18.523,,842,669,571
18:12:18.560,,1112,719,518
18:12:18.597,,1427,816,563
18:12:18.634,,1185,683,511
18:12:18.671,,991,534,388
18:12:18.708,,1168,567,284
18:12:18.745,,1271,528,186
18:12:18.782,,1106,453,212
18:12:18.819,,917,373,215
18:12:18.856,,781,341,128
18:12:18.893,,711,345,61
18:12:18.930,,697,354,52
18:12:18.967,,661,279,55
18:12:19.004,,657,255,77
18:12:19.041,,685,267,134
18:12:19.078,,757,301,180
18:12:19.115,,977,372,248
18:12:19.152,,1034,415,330
18:12:19.189,,1121,506,385
18:12:19.226,,1421,658,525
18:12:19.263,,1251,696,593
18:12:19.300,,926,573,564
18:12:19.337,,892,361,501
18:12:19.374,,881,398,469
18:12:19.411,,799,494,506
18:12:19.448,,751,597,533
18:12:19.485,,708,651,468
18:12:19.522,,737,738,458
18:12:19.559,,852,803,425
18:12:19.596,,1081,854,434
18:12:19.633,,1205,826,523
18:12:19.670,,1189,656,437
18:12:19.707,,1363,637,331
18:12:19.744,,1448,590,251
18:12:19.781,,1303,502,238
18:12:19.818,,1065,395,221
18:12:19.855,,879,328,137
18:12:19.892,,774,322,72
18:12:19.929,,710,329,58
18:12:19.966,,651,265,36
18:12:20.003,,623,214,32
18:12:20.040,,624,213,68
18:12:20.077,,644,273,119
18:12:20.114,,814,364,165
18:12:20.150,,1032,474,312
18:12:20.187,,1073,530,405
18:12:20.224,,1387,601,469
18:12:20.261,,1473,653,549
18:12:20.298,,1134,619,612
18:12:20.335,,964,382,559
18:12:20.372,,887,326,489
18:12:20.409,,768,439,508
18:12:20.446,,704,596,566
18:12:20.483,,672,676,522
18:12:20.520,,728,759,508
18:12:20.557,,832,788,442
18:12:20.594,,1135,915,486
18:12:20.631,,1232,791,491
18:12:20.668,,1089,600,366
18:12:20.705,,1255,655,308
18:12:20.742,,1413,659,237
18:12:20.779,,1272,579,262
18:12:20.816,,1096,435,239
18:12:20.853,,953,353,141
18:12:20.890,,855,344,77
18:12:20.927,,795,353,68
18:12:20.964,,723,275,55
18:12:21.001,,700,228,60
18:12:21.038,,698,213,87
18:12:21.075,,670,249,124
18:12:21.112,,822,336,167
18:12:21.149,,961,446,274
18:12:21.186,,1050,515,338
18:12:21.223,,1394,651,430
18:12:21.260,,1403,690,485
18:12:21.297,,1118,632,469
18:12:21.334,,999,489,476
18:12:21.371,,1011,424,434
18:12:21.408,,934,451,401
18:12:21.445,,777,579,462
18:12:21.482,,703,685,457
18:12:21.519,,751,774,445
18:12:21.556,,775,806,434
18:12:21.593,,926,792,419
18:12:21.630,,1157,890,543
18:12:21.667,,1164,746,465
18:12:21.704,,1282,618,353
18:12:21.741,,1448,576,275
18:12:21.778,,1495,528,226
18:12:21.815,,1298,461,260
18:12:21.852,,1095,367,213
18:12:21.889,,910,317,105
18:12:21.926,,802,317,64
18:12:21.963,,734,311,55
18:12:21.999,,650,212,32
18:12:22.036,,629,177,25
18:12:22.073,,619,242,78
18:12:22.110,,632,334,152
18:12:22.147,,827,431,234
18:12:22.184,,940,482,336
18:12:22.221,,1101,554,392
18:12:22.258,,1456,622,456
18:12:22.295,,1414,697,536
18:12:22.332,,1091,598,593
18:12:22.369,,966,461,578
18:12:22.406,,864,505,600
18:12:22.443,,706,576,621
18:12:22.480,,622,605,560
18:12:22.517,,645,641,482
18:12:22.554,,717,711,440
18:12:22.591,,795,807,331
18:12:22.628,,1203,1053,392
18:12:22.665,,1384,951,474
18:12:22.702,,1215,726,439
18:12:22.739,,1411,679,316
18:12:22.776,,1448,605,213
18:12:22.813,,1286,504,208
18:12:22.850,,1066,380,215
18:12:22.887,,872,323,159
18:12:22.924,,728,296,103
18:12:22.961,,659,275,73
18:12:22.998,,597,193,48
18:12:23.035,,530,153,38
18:12:23.072,,533,199,67
18:12:23.109,,609,288,125
18:12:23.146,,741,384,192
18:12:23.183,,1085,556,287
18:12:23.220,,1268,764,447
18:12:23.257,,1317,765,493
18:12:23.294,,1688,647,439
18:12:23.331,,1375,489,439
18:12:23.368,,954,366,437
18:12:23.405,,777,422,453
18:12:23.442,,673,600,417
18:12:23.479,,577,678,377
18:12:23.516,,509,673,391
18:12:23.553,,533,604,421
18:12:23.590,,661,611,411
18:12:23.627,,882,713,412
18:12:23.664,,1036,743,406
18:12:23.701,,1244,808,508
18:12:23.738,,1266,734,452
18:12:23.775,,1325,640,328
18:12:23.812,,1386,583,287
18:12:23.849,,1223,502,256
18:12:23.886,,1067,426,201
18:12:23.923,,883,335,142
18:12:23.960,,769,314,94
18:12:23.997,,717,331,85
18:12:24.034,,720,310,59
18:12:24.071,,721,251,36
18:12:24.108,,697,220,47
18:12:24.145,,671,261,77
18:12:24.182,,803,351,111
18:12:24.219,,940,462,239
18:12:24.256,,897,545,371
18:12:24.293,,1138,659,473
18:12:24.330,,1413,726,552
18:12:24.367,,1144,646,586
18:12:24.404,,907,386,611
18:12:24.441,,906,235,579
18:12:24.478,,827,334,512
18:12:24.515,,738,505,550
18:12:24.552,,664,609,563
18:12:24.589,,649,669,556
18:12:24.626,,808,701,548
18:12:24.663,,951,659,471
18:12:24.700,,1097,691,473
18:12:24.737,,1262,734,559
18:12:24.774,,1097,623,448
18:12:24.811,,1120,582,335
18:12:24.848,,1224,546,262
18:12:24.885,,1150,509,231
18:12:24.922,,1015,421,216
18:12:24.959,,885,322,164
18:12:24.995,,789,296,91
18:12:25.032,,744,303,55
18:12:25.069,,685,271,43
18:12:25.106,,598,210,30
18:12:25.143,,554,240,59
18:12:25.180,,617,332,130
18:12:25.217,,774,407,194
18:12:25.254,,1113,501,254
18:12:25.291,,1068,562,381
18:12:25.328,,1175,643,485
18:12:25.365,,1475,665,477
18:12:25.402,,1257,533,420
18:12:25.439,,950,270,439
18:12:25.476,,830,292,439
18:12:25.513,,713,525,409
18:12:25.550,,648,662,468
18:12:25.587,,662,658,505
18:12:25.624,,657,562,498
18:12:25.661,,786,561,533
18:12:25.698,,924,603,507
18:12:25.735,,1046,743,551
18:12:25.772,,1231,802,633
18:12:25.809,,1344,649,417
18:12:25.846,,1497,588,330
18:12:25.883,,1363,496,304
18:12:25.920,,1137,435,252
18:12:25.957,,970,371,179
18:12:25.994,,861,366,115
18:12:26.031,,789,363,84
18:12:26.068,,730,309,49
18:12:26.105,,639,210,11
18:12:26.142,,553,166,6
18:12:26.179,,528,235,65
18:12:26.216,,579,333,147
18:12:26.253,,825,441,200
18:12:26.290,,963,541,315
18:12:26.326,,1167,669,415
18:12:26.363,,1551,723,436
18:12:26.400,,1378,658,413
18:12:26.437,,1011,447,480
18:12:26.474,,865,371,620
18:12:26.511,,861,375,614
18:12:26.548,,731,352,555
18:12:26.585,,602,474,564
18:12:26.622,,575,615,579
18:12:26.659,,704,669,555
18:12:26.696,,908,708,489
18:12:26.733,,1312,881,579
18:12:26.770,,1325,784,554
18:12:26.807,,1296,599,392
18:12:26.844,,1417,571,335
18:12:26.881,,1369,525,227
18:12:26.918,,1137,466,193
18:12:26.955,,933,367,169
18:12:26.992,,807,347,115
18:12:27.029,,749,368,70
18:12:27.066,,741,354,43
18:12:27.103,,691,262,16
18:12:27.140,,637,218,15
18:12:27.177,,609,251,78
18:12:27.213,,613,325,180
18:12:27.250,,840,415,257
18:12:27.287,,871,435,358
18:12:27.324,,1079,537,572
18:12:27.361,,1256,706,649
18:12:27.398,,956,516,596
18:12:27.435,,901,275,547
18:12:27.472,,854,319,596
18:12:27.509,,790,434,609
18:12:27.546,,719,529,596
18:12:27.583,,732,614,566
18:12:27.620,,798,673,500
18:12:27.657,,932,724,428
18:12:27.694,,1143,801,446
18:12:27.731,,1201,827,548
18:12:27.767,,970,682,442
18:12:27.804,,1130,637,311
18:12:27.841,,1224,589,237
18:12:27.878,,1149,465,217
18:12:27.915,,993,345,208
18:12:27.952,,857,312,164
18:12:27.989,,778,338,109
18:12:28.026,,730,357,88
18:12:28.063,,683,295,66
18:12:28.100,,665,252,76
18:12:28.137,,672,281,144
18:12:28.174,,685,316,205
18:12:28.210,,865,382,262
18:12:28.247,,1018,459,382
18:12:28.284,,945,470,421
18:12:28.321,,1244,551,465
18:12:28.358,,1375,625,518
18:12:28.395,,1071,599,550
18:12:28.431,,842,434,537
18:12:28.468,,781,410,512
18:12:28.505,,693,458,490
18:12:28.542,,680,517,511
18:12:28.579,,668,547,489
18:12:28.616,,742,600,481
18:12:28.653,,883,657,424
18:12:28.690,,1126,774,408
18:12:28.727,,1168,825,541
18:12:28.764,,1024,715,499
18:12:28.800,,1185,676,371
18:12:28.837,,1301,570,277
18:12:28.874,,1150,404,252
18:12:28.911,,931,312,224
18:12:28.947,,749,308,190
18:12:28.984,,704,353,167
18:12:29.021,,708,351,121
18:12:29.058,,682,277,94
18:12:29.095,,688,251,112
18:12:29.132,,716,251,128
18:12:29.169,,704,288,154
18:12:29.206,,838,392,204
18:12:29.243,,1053,551,337
18:12:29.280,,1066,623,448
18:12:29.316,,1321,658,545
18:12:29.353,,1254,646,663
18:12:29.389,,912,495,609
18:12:29.426,,746,277,498
18:12:29.463,,685,316,518
18:12:29.500,,678,467,562
18:12:29.537,,658,534,549
18:12:29.574,,662,567,510
18:12:29.610,,793,604,490
18:12:29.647,,886,599,432
18:12:29.684,,909,599,403
18:12:29.721,,1021,698,480
18:12:29.758,,1138,741,535
18:12:29.795,,1154,615,409
18:12:29.832,,1179,540,362
18:12:29.868,,1166,459,312
18:12:29.905,,981,385,227
18:12:29.942,,806,303,187
18:12:29.979,,672,298,183
18:12:30.015,,657,335,171
18:12:30.052,,664,302,123
18:12:30.089,,647,253,122
18:12:30.126,,671,257,154
18:12:30.163,,733,296,193
18:12:30.200,,897,377,234
18:12:30.237,,1114,478,318
18:12:30.274,,957,500,415
18:12:30.310,,1158,576,500
18:12:30.347,,1315,623,560
18:12:30.384,,1074,563,517
18:12:30.420,,846,348,475
18:12:30.457,,763,330,493
18:12:30.494,,657,409,480
18:12:30.531,,581,475,482
18:12:30.568,,566,512,496
18:12:30.605,,671,524,488
18:12:30.642,,809,538,436
18:12:30.679,,1219,700,410
18:12:30.715,,1358,855,558
18:12:30.752,,975,715,508
18:12:30.789,,1045,564,382
18:12:30.826,,1182,552,245
18:12:30.863,,1131,438,223
18:12:30.899,,896,319,247
18:12:30.936,,751,310,227
18:12:30.973,,672,321,154
18:12:31.009,,648,344,114
18:12:31.046,,668,315,106
18:12:31.083,,661,257,100
18:12:31.120,,697,269,127
18:12:31.157,,777,341,171
18:12:31.194,,1040,436,204
18:12:31.231,,1178,539,356
18:12:31.267,,962,526,446
18:12:31.304,,1179,547,504
18:12:31.340,,1143,521,478
18:12:31.377,,929,452,449
18:12:31.414,,823,354,493
18:12:31.451,,751,440,564
18:12:31.488,,691,446,552
18:12:31.525,,662,417,527
18:12:31.561,,613,440,522
18:12:31.598,,715,499,507
18:12:31.635,,849,552,484
18:12:31.672,,992,585,430
18:12:31.709,,1225,735,522
18:12:31.746,,1003,696,529
18:12:31.783,,1009,607,369
18:12:31.820,,1143,572,323
18:12:31.856,,1120,465,265
18:12:31.893,,955,376,219
18:12:31.930,,790,302,196
18:12:31.967,,702,322,177
18:12:32.003,,676,340,136
18:12:32.040,,662,313,99
18:12:32.077,,670,264,96
18:12:32.114,,691,282,139
18:12:32.151,,754,316,163
18:12:32.188,,921,368,176
18:12:32.225,,1086,472,264
18:12:32.262,,952,521,374
18:12:32.298,,1222,659,463
18:12:32.335,,1292,626,488
18:12:32.371,,1008,449,389
18:12:32.407,,834,181,353
18:12:32.444,,735,272,418
18:12:32.480,,653,417,454
18:12:32.517,,653,505,518
18:12:32.554,,655,484,514
18:12:32.591,,741,467,529
18:12:32.628,,914,532,526
18:12:32.665,,1188,692,523
18:12:32.702,,1425,857,660
18:12:32.739,,1175,656,524
18:12:32.776,,1145,478,362
18:12:32.812,,1217,426,266
18:12:32.849,,1105,379,210
18:12:32.886,,886,370,207
18:12:32.922,,753,356,202
18:12:32.959,,682,349,126
18:12:32.996,,690,346,61
18:12:33.033,,702,319,52
18:12:33.070,,709,275,53
18:12:33.107,,703,296,85
18:12:33.144,,690,347,147
18:12:33.180,,801,389,169
18:12:33.217,,1008,445,242
18:12:33.254,,1000,468,335
18:12:33.291,,1299,588,428
18:12:33.328,,1340,590,503
18:12:33.364,,1019,595,519
18:12:33.401,,822,392,504
18:12:33.438,,814,316,512
18:12:33.474,,694,364,549
18:12:33.511,,665,436,613
18:12:33.548,,685,455,634
18:12:33.585,,809,470,626
18:12:33.622,,967,512,597
18:12:33.659,,1322,702,551
18:12:33.696,,1413,930,589
18:12:33.733,,1243,723,458
18:12:33.769,,1335,493,293
18:12:33.806,,1310,404,194
18:12:33.841,,1078,409,237
18:12:33.877,,863,390,215
18:12:33.914,,754,290,102
18:12:33.951,,699,274,24
18:12:33.988,,676,294,21
18:12:34.024,,619,261,18
18:12:34.061,,582,269,10
18:12:34.098,,604,338,60
18:12:34.135,,669,430,159
18:12:34.172,,893,467,205
18:12:34.209,,1094,510,301
18:12:34.246,,988,483,380
18:12:34.282,,1351,532,429
18:12:34.318,,1323,503,451
18:12:34.354,,1017,498,528
18:12:34.391,,888,401,607
18:12:34.428,,844,354,589
18:12:34.465,,744,387,562
18:12:34.502,,698,394,559
18:12:34.539,,656,446,543
18:12:34.576,,672,545,526
18:12:34.613,,775,639,514
18:12:34.650,,902,668,487
18:12:34.687,,1181,771,537
18:12:34.723,,1413,791,618
18:12:34.760,,1290,548,361
18:12:34.797,,1320,475,308
18:12:34.834,,1228,422,248
18:12:34.871,,1021,428,188
18:12:34.908,,816,375,155
18:12:34.945,,700,333,124
18:12:34.981,,656,334,78
18:12:35.018,,672,318,38
18:12:35.055,,696,282,36
18:12:35.092,,662,265,53
18:12:35.129,,662,297,98
18:12:35.166,,692,348,167
18:12:35.203,,874,421,246
18:12:35.240,,918,461,369
18:12:35.277,,1071,525,456
18:12:35.314,,1423,604,591
18:12:35.351,,1259,650,758
18:12:35.388,,873,444,752
18:12:35.425,,813,172,660
18:12:35.462,,796,216,610
18:12:35.499,,709,374,552
18:12:35.536,,591,460,482
18:12:35.573,,538,570,477
18:12:35.610,,694,604,415
18:12:35.647,,886,682,345
18:12:35.684,,1361,932,438
18:12:35.720,,1236,857,437
18:12:35.757,,1013,625,404
18:12:35.794,,1212,505,270
18:12:35.831,,1324,468,158
18:12:35.868,,1072,389,212
18:12:35.905,,887,311,225
18:12:35.942,,736,301,178
18:12:35.979,,649,309,129
18:12:36.016,,612,298,105
18:12:36.053,,580,229,98
18:12:36.090,,590,227,115
18:12:36.127,,691,273,142
18:12:36.164,,902,369,155
18:12:36.201,,1161,469,187
18:12:36.238,,1126,586,318
18:12:36.275,,1338,722,462
18:12:36.312,,1270,706,484
18:12:36.349,,906,615,397
18:12:36.386,,788,366,340
18:12:36.423,,812,344,402
18:12:36.460,,768,414,513
18:12:36.497,,749,467,561
18:12:36.534,,786,457,504
18:12:36.571,,729,497,462
18:12:36.608,,820,617,495
18:12:36.645,,939,707,469
18:12:36.682,,1234,827,535
18:12:36.719,,1293,700,554
18:12:36.756,,1223,483,401
18:12:36.792,,1322,415,267
18:12:36.829,,1286,427,223
18:12:36.866,,1040,475,248
18:12:36.903,,874,423,220
18:12:36.940,,724,350,143
18:12:36.977,,651,313,71
18:12:37.014,,627,300,60
18:12:37.051,,595,251,66
18:12:37.088,,614,259,75
18:12:37.125,,687,303,109
18:12:37.162,,733,351,169
18:12:37.199,,901,403,199
18:12:37.236,,1183,501,303
18:12:37.273,,1072,527,389
18:12:37.310,,1337,567,405
18:12:37.347,,1349,602,449
18:12:37.384,,1039,599,485
18:12:37.421,,853,459,476
18:12:37.458,,768,393,440
18:12:37.495,,676,431,440
18:12:37.532,,637,485,456
18:12:37.569,,607,536,457
18:12:37.606,,690,621,490
18:12:37.643,,844,631,473
18:12:37.680,,918,624,420
18:12:37.717,,1038,694,476
18:12:37.753,,1162,755,549
18:12:37.790,,1149,634,401
18:12:37.827,,1300,579,325
18:12:37.864,,1357,493,297
18:12:37.901,,1136,402,229
18:12:37.938,,960,327,170
18:12:37.975,,819,293,129
18:12:38.012,,739,353,98
18:12:38.049,,704,365,77
18:12:38.086,,667,292,42
18:12:38.123,,636,240,79
18:12:38.160,,704,362,136
18:12:38.197,,962,454,213
18:12:38.234,,965,553,452
18:12:38.271,,895,566,507
18:12:38.308,,1206,551,449
18:12:38.345,,1236,534,452
18:12:38.382,,994,481,556
18:12:38.418,,854,432,598
18:12:38.455,,786,471,533
18:12:38.492,,664,512,496
18:12:38.529,,631,520,515
18:12:38.566,,614,499,488
18:12:38.603,,712,535,455
18:12:38.640,,878,616,429
18:12:38.677,,1149,716,417
18:12:38.714,,1241,762,499
18:12:38.751,,955,625,446
18:12:38.788,,937,577,342
18:12:38.825,,1200,599,251
18:12:38.862,,1178,505,220
18:12:38.899,,974,383,228
18:12:38.936,,836,316,193
18:12:38.972,,746,321,120
18:12:39.009,,708,365,88
18:12:39.046,,708,339,82
18:12:39.083,,719,273,80
18:12:39.120,,730,276,107
18:12:39.157,,755,322,151
18:12:39.194,,775,362,188
18:12:39.231,,928,422,251
18:12:39.268,,1004,469,330
18:12:39.305,,1051,483,376
18:12:39.341,,1268,588,516
18:12:39.378,,1108,645,652
18:12:39.415,,860,505,595
18:12:39.452,,761,287,517
18:12:39.489,,734,293,533
18:12:39.526,,688,399,546
18:12:39.563,,659,483,524
18:12:39.600,,673,548,496
18:12:39.637,,806,628,488
18:12:39.674,,857,666,460
18:12:39.710,,1057,742,474
18:12:39.747,,1163,797,579
18:12:39.784,,1255,688,483
18:12:39.821,,1395,594,369
18:12:39.858,,1329,488,298
18:12:39.895,,1072,394,246
18:12:39.932,,885,340,206
18:12:39.968,,728,331,170
18:12:40.005,,643,352,134
18:12:40.042,,662,323,107
18:12:40.079,,680,244,85
18:12:40.116,,670,183,85
18:12:40.152,,690,205,121
18:12:40.189,,774,310,180
18:12:40.226,,1023,453,269
18:12:40.263,,1051,538,403
18:12:40.300,,1057,598,522
18:12:40.336,,1406,624,551
18:12:40.373,,1297,535,444
18:12:40.410,,1036,313,477
18:12:40.447,,890,290,562
18:12:40.483,,774,437,472
18:12:40.520,,655,537,397
18:12:40.557,,565,563,348
18:12:40.594,,550,604,317
18:12:40.631,,679,672,307
18:12:40.668,,792,760,306
18:12:40.705,,1206,994,424
18:12:40.741,,1305,1056,490
18:12:40.778,,1312,766,390
18:12:40.815,,1504,673,305
18:12:40.852,,1380,564,232
18:12:40.888,,1160,426,248
18:12:40.925,,968,328,242
18:12:40.962,,802,318,179
18:12:40.999,,706,341,135
18:12:41.035,,685,335,98
18:12:41.072,,702,246,52
18:12:41.109,,728,192,35
18:12:41.146,,710,222,64
18:12:41.183,,735,336,137
18:12:41.220,,960,447,193
18:12:41.257,,893,489,259
18:12:41.293,,1239,674,337
18:12:41.330,,1591,805,460
18:12:41.366,,1270,741,416
18:12:41.403,,953,367,358
18:12:41.440,,886,203,375
18:12:41.476,,805,401,413
18:12:41.513,,750,598,523
18:12:41.550,,659,641,583
18:12:41.587,,618,638,612
18:12:41.624,,795,617,629
18:12:41.661,,1004,549,537
18:12:41.698,,1105,550,531
18:12:41.734,,1176,680,628
18:12:41.771,,1213,698,488
18:12:41.808,,1383,680,326
18:12:41.844,,1408,585,277
18:12:41.880,,1213,450,285
18:12:41.916,,1066,359,203
18:12:41.953,,870,323,83
18:12:41.989,,757,305,38
18:12:42.026,,699,337,30
18:12:42.063,,659,290,25
18:12:42.100,,664,266,19
18:12:42.137,,658,276,41
18:12:42.174,,708,318,84
18:12:42.210,,882,407,155
18:12:42.247,,815,441,305
18:12:42.284,,853,512,387
18:12:42.320,,1191,628,545
18:12:42.357,,1300,652,632
18:12:42.392,,1052,439,618
18:12:42.426,,932,182,637
18:12:42.462,,909,138,646
18:12:42.499,,814,290,581
18:12:42.536,,735,478,588
18:12:42.573,,677,614,567
18:12:42.610,,701,675,510
18:12:42.646,,817,745,495
18:12:42.683,,1142,857,532
18:12:42.720,,1354,935,577
18:12:42.757,,1141,640,464
18:12:42.794,,1099,475,362
18:12:42.830,,1241,505,223
18:12:42.866,,1233,500,207
18:12:42.902,,1048,437,291
18:12:42.939,,889,356,228
18:12:42.976,,780,279,85
18:12:43.012,,714,297,31
18:12:43.049,,652,306,41
18:12:43.086,,602,244,46
18:12:43.122,,603,245,67
18:12:43.159,,668,310,131
18:12:43.196,,796,399,207
18:12:43.232,,1014,468,295
18:12:43.268,,977,482,407
18:12:43.304,,1286,511,454
18:12:43.340,,1490,461,403
18:12:43.376,,1143,500,449
18:12:43.413,,861,463,574
18:12:43.450,,811,466,540
18:12:43.487,,761,488,476
18:12:43.523,,704,470,472
18:12:43.560,,629,526,467
18:12:43.597,,758,649,432
18:12:43.634,,896,808,403
18:12:43.671,,1282,1059,489
18:12:43.708,,1216,863,400
18:12:43.744,,1105,687,372
18:12:43.781,,1277,661,288
18:12:43.817,,1227,603,206
18:12:43.854,,1049,492,200
18:12:43.890,,933,359,163
18:12:43.924,,832,337,107
18:12:43.957,,820,390,89
18:12:43.991,,896,435,84
18:12:44.024,,881,352,54
18:12:44.058,,827,243,7
18:12:44.092,,787,282,38
18:12:44.126,,728,360,127
18:12:44.159,,705,416,160
18:12:44.193,,807,432,171
18:12:44.226,,896,491,277
18:12:44.260,,1132,631,382
18:12:44.294,,1000,635,431
18:12:44.328,,847,537,333
18:12:44.362,,777,364,260
18:12:44.397,,756,326,387
18:12:44.431,,786,390,573
18:12:44.466,,816,395,656
18:12:44.501,,801,414,689
18:12:44.536,,771,408,655
18:12:44.571,,803,359,570
18:12:44.606,,726,293,509
18:12:44.641,,633,240,418
18:12:44.677,,593,240,422
18:12:44.712,,658,379,415
18:12:44.748,,1553,1009,574
18:12:44.784,,1996,1256,506
18:12:44.821,,1963,789,-28
18:12:44.857,,1344,328,35
18:12:44.893,,839,216,216
18:12:44.928,,624,356,169
18:12:44.963,,599,597,21
18:12:44.998,,487,400,61
18:12:45.034,,510,14,66
18:12:45.069,,579,-146,67
18:12:45.105,,920,52,13
18:12:45.140,,1454,335,1
18:12:45.175,,1533,689,336
18:12:45.210,,1403,551,422
18:12:45.245,,1100,411,358
18:12:45.280,,908,363,216
18:12:45.316,,808,226,222
18:12:45.351,,833,345,394
18:12:45.386,,760,578,559
18:12:45.421,,809,583,462
18:12:45.456,,877,617,403
18:12:45.490,,931,842,584
18:12:45.525,,1043,1123,769
18:12:45.560,,1356,1084,657
18:12:45.595,,1681,773,419
18:12:45.630,,1716,506,332
18:12:45.665,,1335,326,345
18:12:45.699,,1042,482,340
18:12:45.734,,1020,504,221
18:12:45.768,,909,570,174
18:12:45.803,,886,523,113
18:12:45.839,,848,337,52
18:12:45.875,,810,176,1
18:12:45.910,,724,85,-10
18:12:45.946,,686,203,62
18:12:45.981,,833,352,130
18:12:46.017,,877,367,172
18:12:46.052,,1153,546,258
18:12:46.086,,1325,621,367
18:12:46.121,,1154,740,442
18:12:46.156,,971,645,403
18:12:46.192,,948,443,396
18:12:46.227,,976,296,537
18:12:46.262,,1021,330,643
18:12:46.297,,993,484,626
18:12:46.332,,971,778,634
18:12:46.367,,966,918,632
18:12:46.402,,894,901,606
18:12:46.436,,1052,947,652
18:12:46.471,,1218,845,551
18:12:46.505,,1408,714,463
18:12:46.540,,1480,594,350
18:12:46.575,,1344,501,274
18:12:46.610,,1179,424,241
18:12:46.645,,1001,377,198
18:12:46.680,,904,391,115
18:12:46.716,,876,374,54
18:12:46.751,,838,319,12
18:12:46.787,,768,236,-8
18:12:46.823,,677,180,1
18:12:46.859,,608,244,63
18:12:46.895,,686,323,134
18:12:46.930,,843,325,196
18:12:46.965,,977,433,273
18:12:47.000,,1312,685,390
18:12:47.035,,1448,749,449
18:12:47.070,,1151,640,396
18:12:47.106,,940,453,437
18:12:47.141,,1019,421,561
18:12:47.177,,907,356,605
18:12:47.212,,914,307,525
18:12:47.247,,846,520,511
18:12:47.281,,851,780,520
18:12:47.316,,933,902,523
18:12:47.350,,1182,972,588
18:12:47.384,,1184,822,596
18:12:47.419,,1195,685,480
18:12:47.453,,1438,646,390
18:12:47.487,,1370,535,288
18:12:47.522,,1190,422,270
18:12:47.557,,1015,336,262
18:12:47.591,,862,317,171
18:12:47.626,,771,310,101
18:12:47.662,,734,291,70
18:12:47.697,,682,218,46
18:12:47.732,,629,184,43
18:12:47.767,,627,233,97
18:12:47.802,,631,341,212
18:12:47.837,,804,418,274
18:12:47.872,,984,432,326
18:12:47.907,,1209,548,439
18:12:47.941,,1678,671,498
18:12:47.976,,1579,625,428
18:12:48.010,,1089,504,472
18:12:48.045,,874,418,548
18:12:48.079,,841,456,442
18:12:48.113,,799,523,403
18:12:48.147,,701,611,443
18:12:48.181,,657,694,413
18:12:48.217,,721,749,369
18:12:48.253,,803,843,380
18:12:48.290,,1053,993,458
18:12:48.326,,1104,938,505
18:12:48.360,,1170,776,409
18:12:48.394,,1458,738,309
18:12:48.427,,1414,591,258
18:12:48.461,,1270,428,258
18:12:48.496,,1124,338,243
18:12:48.530,,973,358,185
18:12:48.565,,881,374,134
18:12:48.601,,815,337,99
18:12:48.636,,736,214,63
18:12:48.671,,676,144,139
18:12:48.707,,679,332,274
18:12:48.742,,812,421,401
18:12:48.777,,865,372,434
18:12:48.812,,1022,346,425
18:12:48.847,,1522,514,450
18:12:48.882,,1637,630,394
18:12:48.916,,1322,615,350
18:12:48.950,,1036,549,371
18:12:48.984,,888,623,309
18:12:49.018,,788,696,294
18:12:49.053,,673,695,366
18:12:49.089,,690,691,324
18:12:49.125,,801,763,326
18:12:49.161,,897,846,337
18:12:49.197,,986,956,431
18:12:49.234,,1089,920,530
18:12:49.270,,1206,769,359
18:12:49.305,,1480,744,284
18:12:49.339,,1506,614,279
18:12:49.372,,1350,486,293
18:12:49.406,,1160,426,254
18:12:49.440,,1003,389,154
18:12:49.475,,924,396,95
18:12:49.510,,884,362,65
18:12:49.545,,848,282,41
18:12:49.580,,819,206,25
18:12:49.616,,753,205,45
18:12:49.651,,710,299,113
18:12:49.686,,803,364,177
18:12:49.721,,822,399,281
18:12:49.755,,978,493,378
18:12:49.790,,1272,545,430
18:12:49.824,,1257,584,473
18:12:49.859,,1040,554,515
18:12:49.893,,1008,465,519
18:12:49.928,,1035,424,503
18:12:49.962,,929,450,490
18:12:49.997,,852,543,537
18:12:50.031,,809,693,510
18:12:50.065,,842,832,478
18:12:50.100,,929,831,458
18:12:50.134,,1015,770,496
18:12:50.168,,1038,780,591
18:12:50.202,,1148,723,491
18:12:50.236,,1418,667,367
18:12:50.270,,1505,556,316
18:12:50.305,,1345,394,272
18:12:50.339,,1126,332,219
18:12:50.374,,907,342,187
18:12:50.408,,800,455,184
18:12:50.443,,792,415,151
18:12:50.478,,757,220,-5
18:12:50.513,,735,135,-26
18:12:50.549,,725,149,53
18:12:50.584,,700,261,152
18:12:50.620,,755,335,228
18:12:50.655,,799,363,326
18:12:50.690,,1024,477,427
18:12:50.724,,1516,533,432
18:12:50.759,,1602,642,472
18:12:50.794,,1299,585,499
18:12:50.828,,1010,447,554
18:12:50.863,,911,456,533
18:12:50.897,,877,451,475
18:12:50.932,,824,492,440
18:12:50.966,,816,709,385
18:12:51.000,,858,933,318
18:12:51.036,,708,1015,321
18:12:51.072,,774,1000,477
18:12:51.108,,1117,1146,584
18:12:51.143,,1678,899,353
18:12:51.177,,1931,690,315
18:12:51.211,,1678,444,343
18:12:51.245,,1409,382,303
18:12:51.279,,1170,450,257
18:12:51.313,,951,472,185
18:12:51.347,,808,413,110
18:12:51.382,,739,240,53
18:12:51.418,,701,130,14
18:12:51.453,,697,88,9
18:12:51.489,,699,135,21
18:12:51.524,,870,321,95
18:12:51.559,,858,415,233
18:12:51.593,,1061,638,397
18:12:51.628,,1450,793,589
18:12:51.662,,1449,755,509
18:12:51.697,,1260,421,404
18:12:51.732,,1179,218,641
18:12:51.766,,1067,406,817
18:12:51.801,,940,528,678
18:12:51.835,,754,615,555
18:12:51.870,,725,746,521
18:12:51.904,,756,733,409
18:12:51.939,,927,840,354
18:12:51.976,,1257,1010,478
18:12:52.013,,1139,817,402
18:12:52.050,,1341,769,416
18:12:52.086,,1321,688,316
18:12:52.122,,1267,590,256
18:12:52.155,,1125,447,257
18:12:52.189,,940,357,235
18:12:52.223,,801,313,184
18:12:52.257,,730,251,146
18:12:52.292,,669,163,115
18:12:52.326,,628,140,125
18:12:52.361,,656,175,170
18:12:52.396,,652,240,220
18:12:52.430,,815,342,278
18:12:52.464,,1051,434,364
18:12:52.498,,1374,593,422
18:12:52.532,,1775,715,442
18:12:52.566,,1558,684,417
18:12:52.599,,1116,572,395
18:12:52.634,,917,458,289
18:12:52.671,,799,573,283
18:12:52.708,,709,665,410
18:12:52.745,,636,665,422
18:12:52.782,,684,672,344
18:12:52.819,,757,734,360
18:12:52.856,,860,808,355
18:12:52.893,,1149,921,443
18:12:52.930,,1153,858,506
18:12:52.967,,1176,729,357
18:12:53.003,,1430,691,312
18:12:53.039,,1480,564,272
18:12:53.075,,1300,451,261
18:12:53.108,,1074,379,236
18:12:53.142,,878,360,172
18:12:53.177,,793,353,126
18:12:53.211,,731,293,90
18:12:53.247,,711,221,84
18:12:53.282,,704,168,93
18:12:53.318,,715,194,125
18:12:53.354,,834,317,180
18:12:53.390,,1049,427,264
18:12:53.427,,1004,440,311
18:12:53.463,,1334,631,402
18:12:53.500,,1521,661,407
18:12:53.536,,1281,688,360
18:12:53.573,,1146,550,430
18:12:53.610,,1046,588,547
18:12:53.646,,891,548,491
18:12:53.683,,771,419,450
18:12:53.720,,676,467,376
18:12:53.757,,719,683,340
18:12:53.794,,733,854,307
18:12:53.831,,912,952,285
18:12:53.868,,1210,1102,455
18:12:53.905,,1021,864,469
18:12:53.942,,1252,773,375
18:12:53.979,,1426,715,219
18:12:54.016,,1356,538,195
18:12:54.053,,1206,352,210
18:12:54.089,,1013,326,207
18:12:54.126,,899,389,175
18:12:54.163,,882,381,120
18:12:54.200,,827,278,64
18:12:54.237,,773,196,62
18:12:54.273,,698,174,92
18:12:54.310,,628,245,140
18:12:54.347,,767,351,214
18:12:54.384,,854,387,290
18:12:54.421,,1140,502,319
18:12:54.458,,1499,643,422
18:12:54.495,,1276,804,591
18:12:54.532,,935,707,668
18:12:54.569,,903,381,517
18:12:54.606,,939,216,477
18:12:54.643,,912,321,571
18:12:54.679,,817,547,625
18:12:54.716,,829,734,564
18:12:54.753,,836,785,491
18:12:54.790,,888,802,441
18:12:54.827,,1116,917,518
18:12:54.864,,1104,847,491
18:12:54.901,,1305,750,399
18:12:54.938,,1410,619,294
18:12:54.975,,1211,500,256
18:12:55.012,,1057,425,246
18:12:55.049,,915,369,193
18:12:55.086,,826,375,137
18:12:55.123,,815,356,106
18:12:55.160,,811,292,81
18:12:55.197,,794,233,72
18:12:55.234,,721,188,92
18:12:55.271,,652,212,128
18:12:55.307,,721,316,190
18:12:55.344,,844,420,312
18:12:55.381,,969,502,414
18:12:55.418,,1341,620,500
18:12:55.455,,1445,648,547
18:12:55.492,,1089,623,568
18:12:55.529,,883,441,536
18:12:55.565,,881,421,463
18:12:55.602,,839,487,458
18:12:55.639,,750,533,513
18:12:55.676,,717,602,477
18:12:55.713,,763,734,447
18:12:55.750,,847,816,424
18:12:55.787,,958,805,423
18:12:55.824,,1120,861,547
18:12:55.861,,1215,761,502
18:12:55.898,,1397,673,377
18:12:55.935,,1417,580,312
18:12:55.972,,1272,464,261
18:12:56.009,,1118,395,227
18:12:56.045,,927,350,194
18:12:56.082,,774,353,144
18:12:56.119,,728,337,103
18:12:56.156,,700,250,52
18:12:56.192,,652,180,37
18:12:56.229,,639,182,76
18:12:56.265,,677,271,128
18:12:56.302,,908,407,213
18:12:56.338,,948,472,371
18:12:56.375,,1076,560,458
18:12:56.411,,1472,624,512
18:12:56.447,,1392,587,490
18:12:56.483,,1003,480,542
18:12:56.519,,921,342,582
18:12:56.556,,874,398,511
18:12:56.593,,762,484,505
18:12:56.630,,718,544,503
18:12:56.667,,712,595,455
18:12:56.704,,770,650,400
18:12:56.741,,833,732,371
18:12:56.778,,1061,861,401
18:12:56.815,,1062,927,527
18:12:56.852,,1146,805,450
18:12:56.888,,1359,688,351
18:12:56.925,,1328,539,278
18:12:56.962,,1198,414,250
18:12:56.999,,1021,351,240
18:12:57.035,,852,357,202
18:12:57.071,,775,366,162
18:12:57.107,,737,323,122
18:12:57.143,,700,245,103
18:12:57.180,,682,192,113
18:12:57.216,,698,212,157
18:12:57.252,,692,281,221
18:12:57.288,,861,391,298
18:12:57.324,,973,420,348
18:12:57.360,,1040,481,389
18:12:57.397,,1459,631,464
18:12:57.433,,1559,712,473
18:12:57.470,,1168,632,469
18:12:57.507,,889,466,496
18:12:57.544,,804,466,423
18:12:57.581,,734,501,399
18:12:57.618,,682,554,454
18:12:57.655,,626,595,435
18:12:57.692,,684,667,433
18:12:57.729,,775,739,436
18:12:57.766,,927,776,410
18:12:57.803,,1198,855,544
18:12:57.840,,1098,700,523
18:12:57.877,,1195,640,385
18:12:57.914,,1380,597,314
18:12:57.950,,1267,462,294
18:12:57.987,,1034,369,245
18:12:58.024,,836,319,190
18:12:58.061,,737,346,147
18:12:58.097,,747,375,121
18:12:58.133,,763,313,86
18:12:58.170,,712,231,71
18:12:58.207,,712,223,88
18:12:58.243,,730,289,150
18:12:58.280,,796,379,219
18:12:58.317,,978,460,320
18:12:58.354,,911,480,453
18:12:58.391,,1147,518,509
18:12:58.428,,1398,515,535
18:12:58.465,,1170,481,536
18:12:58.502,,877,379,548
18:12:58.539,,790,386,524
18:12:58.576,,752,478,461
18:12:58.613,,662,546,500
18:12:58.650,,644,568,519
18:12:58.687,,706,577,493
18:12:58.724,,798,621,460
18:12:58.761,,884,680,414
18:12:58.798,,1062,783,435
18:12:58.835,,1071,824,522
18:12:58.872,,1082,723,415
18:12:58.909,,1265,673,334
18:12:58.946,,1245,532,276
18:12:58.983,,1124,406,223
18:12:59.020,,1000,332,194
18:12:59.057,,862,331,175
18:12:59.093,,770,365,150
18:12:59.130,,727,345,116
18:12:59.167,,679,259,75
18:12:59.204,,658,230,91
18:12:59.240,,690,255,143
18:12:59.276,,752,328,193
18:12:59.312,,958,442,331
18:12:59.349,,1124,572,435
18:12:59.385,,1468,662,532
18:12:59.422,,1257,582,476
18:12:59.458,,937,366,400
18:12:59.495,,784,307,453
18:12:59.532,,739,452,480
18:12:59.569,,715,557,534
18:12:59.606,,710,547,524
18:12:59.643,,701,526,478
18:12:59.680,,829,580,432
18:12:59.717,,960,670,369
18:12:59.754,,1067,822,420
18:12:59.791,,1112,881,536
18:12:59.828,,1125,751,408
18:12:59.865,,1421,693,325
18:12:59.902,,1458,499,256
18:12:59.939,,1204,384,227
18:12:59.976,,987,339,220
18:13:00.013,,820,362,207
18:13:00.050,,722,354,138
18:13:00.087,,702,284,79
18:13:00.124,,716,200,60
18:13:00.161,,821,210,82
18:13:00.197,,1065,296,154
18:13:00.234,,929,340,257
18:13:00.271,,884,506,454
18:13:00.308,,785,477,537
18:13:00.345,,1035,590,560
18:13:00.382,,1306,505,496
18:13:00.419,,1009,462,556
18:13:00.456,,892,374,542
18:13:00.493,,702,295,515
18:13:00.530,,612,325,481
18:13:00.567,,689,429,456
18:13:00.604,,799,547,339
18:13:00.641,,1218,845,297
18:13:00.678,,1222,1110,422
18:13:00.715,,1190,908,384
18:13:00.752,,1267,738,414
18:13:00.789,,1174,659,214
18:13:00.826,,1056,566,168
18:13:00.862,,1035,397,213
18:13:00.899,,898,336,241
18:13:00.936,,815,321,201
18:13:00.973,,722,264,133
18:13:01.010,,662,234,128
18:13:01.047,,709,250,169
18:13:01.084,,799,287,212
18:13:01.120,,808,297,255
18:13:01.157,,932,370,328
18:13:01.193,,1031,427,409
18:13:01.230,,992,492,419
18:13:01.267,,1344,570,415
18:13:01.303,,1402,579,381
18:13:01.340,,1114,498,297
18:13:01.377,,872,399,274
18:13:01.414,,749,490,299
18:13:01.451,,700,645,316
18:13:01.488,,646,678,349
18:13:01.525,,611,627,334
18:13:01.562,,739,640,352
18:13:01.599,,843,693,345
18:13:01.636,,921,754,351
18:13:01.673,,1064,856,504
18:13:01.710,,1061,804,471
18:13:01.747,,1260,743,339
18:13:01.784,,1388,616,291
18:13:01.820,,1228,447,264
18:13:01.857,,1095,377,233
18:13:01.894,,966,353,195
18:13:01.931,,866,363,149
18:13:01.968,,811,354,107
18:13:02.005,,757,296,73
18:13:02.042,,723,240,61
18:13:02.079,,738,246,88
18:13:02.116,,756,287,124
18:13:02.153,,871,359,165
18:13:02.190,,966,443,264
18:13:02.226,,836,427,331
18:13:02.263,,1124,556,396
18:13:02.300,,1364,606,442
18:13:02.337,,1174,602,445
18:13:02.374,,992,419,451
18:13:02.411,,901,416,513
18:13:02.448,,829,491,471
18:13:02.485,,752,513,471
18:13:02.522,,720,564,497
18:13:02.559,,728,642,494
18:13:02.596,,822,715,463
18:13:02.633,,958,720,422
18:13:02.670,,1173,806,489
18:13:02.707,,1112,791,512
18:13:02.744,,1155,712,379
18:13:02.781,,1344,655,297
18:13:02.818,,1288,510,233
18:13:02.855,,1132,411,202
18:13:02.892,,990,342,186
18:13:02.929,,863,361,144
18:13:02.966,,803,370,100
18:13:03.003,,807,324,59
18:13:03.040,,775,253,46
18:13:03.076,,696,235,79
18:13:03.113,,726,254,102
18:13:03.150,,925,363,155
18:13:03.187,,864,399,271
18:13:03.224,,823,456,347
18:13:03.260,,1130,602,451
18:13:03.297,,1288,654,505
18:13:03.333,,1085,528,439
18:13:03.369,,984,292,451
18:13:03.406,,929,349,533
18:13:03.443,,824,470,499
18:13:03.480,,737,552,503
18:13:03.517,,701,593,475
18:13:03.554,,760,670,461
18:13:03.591,,865,699,439
18:13:03.628,,983,700,446
18:13:03.665,,1127,782,546
18:13:03.702,,1109,741,483
18:13:03.739,,1261,701,372
18:13:03.775,,1336,624,305
18:13:03.812,,1198,502,264
18:13:03.849,,1060,414,225
18:13:03.885,,932,344,171
18:13:03.922,,825,350,124
18:13:03.959,,800,354,92
18:13:03.996,,755,289,53
18:13:04.032,,713,224,30
18:13:04.069,,697,231,55
18:13:04.106,,660,289,122
18:13:04.143,,685,330,179
18:13:04.180,,884,412,281
18:13:04.217,,986,452,383
18:13:04.254,,1226,516,435
18:13:04.291,,1471,577,537
18:13:04.327,,1213,607,595
18:13:04.364,,940,489,552
18:13:04.401,,921,369,510
18:13:04.438,,893,420,485
18:13:04.475,,806,516,494
18:13:04.512,,689,609,486
18:13:04.549,,664,689,453
18:13:04.586,,746,786,439
18:13:04.623,,861,781,399
18:13:04.660,,1122,840,469
18:13:04.697,,1158,755,498
18:13:04.734,,1288,692,402
18:13:04.771,,1479,675,333
18:13:04.807,,1445,552,281
18:13:04.844,,1226,450,242
18:13:04.881,,1009,369,206
18:13:04.918,,837,380,155
18:13:04.955,,769,391,128
18:13:04.992,,749,309,89
18:13:05.029,,707,214,61
18:13:05.066,,699,168,81
18:13:05.103,,687,197,123
18:13:05.140,,789,306,189
18:13:05.176,,892,391,285
18:13:05.213,,922,457,369
18:13:05.250,,1249,628,480
18:13:05.287,,1503,715,516
18:13:05.323,,1233,645,481
18:13:05.360,,953,482,516
18:13:05.397,,918,420,524
18:13:05.434,,819,469,500
18:13:05.471,,734,513,533
18:13:05.508,,709,588,533
18:13:05.544,,738,640,476
18:13:05.581,,768,712,424
18:13:05.618,,871,756,387
18:13:05.655,,1062,829,438
18:13:05.692,,1211,867,575
18:13:05.729,,1215,668,404
18:13:05.766,,1457,615,318
18:13:05.803,,1450,511,267
18:13:05.839,,1188,446,253
18:13:05.876,,988,368,225
18:13:05.913,,802,334,164
18:13:05.950,,682,328,110
18:13:05.987,,623,284,88
18:13:06.024,,609,208,77
18:13:06.061,,588,198,112
18:13:06.097,,636,241,183
18:13:06.134,,692,279,243
18:13:06.171,,854,315,286
18:13:06.207,,1153,410,366
18:13:06.243,,1325,527,405
18:13:06.279,,1657,626,438
18:13:06.316,,1747,691,437
18:13:06.353,,1268,676,367
18:13:06.390,,860,601,368
18:13:06.427,,750,570,318
18:13:06.464,,640,620,330
18:13:06.501,,567,625,374
18:13:06.538,,537,618,357
18:13:06.575,,595,656,363
18:13:06.612,,718,752,377
18:13:06.649,,835,801,384
18:13:06.686,,985,817,473
18:13:06.722,,1200,875,501
18:13:06.759,,1527,798,390
18:13:06.796,,1764,617,289
18:13:06.833,,1494,434,288
18:13:06.869,,1239,385,243
18:13:06.906,,1055,405,184
18:13:06.942,,926,440,149
18:13:06.978,,833,412,107
18:13:07.013,,760,288,68
18:13:07.047,,681,177,56
18:13:07.082,,629,143,81
18:13:07.116,,617,193,162
18:13:07.151,,638,262,245
18:13:07.185,,751,306,304
18:13:07.219,,893,387,366
18:13:07.254,,1276,644,468
18:13:07.290,,1725,791,526
18:13:07.327,,1560,763,527
18:13:07.363,,1141,597,538
18:13:07.400,,909,488,449
18:13:07.437,,792,499,363
18:13:07.474,,742,558,386
18:13:07.511,,659,620,371
18:13:07.548,,628,711,321
18:13:07.585,,740,753,283
18:13:07.622,,749,763,312
18:13:07.659,,818,787,356
18:13:07.696,,1089,943,473
18:13:07.732,,1217,840,447
18:13:07.769,,1352,692,397
18:13:07.806,,1525,610,389
18:13:07.843,,1461,470,315
18:13:07.880,,1226,363,246
18:13:07.917,,971,299,234
18:13:07.954,,817,333,219
18:13:07.990,,676,307,147
18:13:08.027,,673,248,98
18:13:08.064,,632,171,80
18:13:08.101,,656,211,100
18:13:08.138,,716,273,127
18:13:08.175,,766,365,171
18:13:08.212,,966,499,255
18:13:08.249,,994,601,385
18:13:08.285,,1138,637,457
18:13:08.322,,1536,701,534
18:13:08.359,,1393,623,559
18:13:08.396,,1042,422,508
18:13:08.432,,806,356,501
18:13:08.469,,739,451,456
18:13:08.506,,655,570,449
18:13:08.543,,597,641,467
18:13:08.580,,572,633,430
18:13:08.617,,627,640,414
18:13:08.654,,744,710,423
18:13:08.691,,857,738,395
18:13:08.728,,1084,773,436
18:13:08.765,,1277,752,493
18:13:08.802,,1262,615,401
18:13:08.839,,1462,597,348
18:13:08.876,,1399,529,310
18:13:08.912,,1200,459,252
18:13:08.949,,999,373,205
18:13:08.986,,813,333,164
18:13:09.023,,685,325,134
18:13:09.060,,638,278,90
18:13:09.097,,598,193,63
18:13:09.134,,544,162,70
18:13:09.171,,582,241,122
18:13:09.208,,658,330,211
18:13:09.245,,781,383,256
18:13:09.282,,1055,458,337
18:13:09.319,,1369,587,454
18:13:09.356,,1425,588,455
18:13:09.392,,1625,558,436
18:13:09.429,,1379,555,474
18:13:09.466,,964,535,390
18:13:09.503,,775,513,375
18:13:09.540,,682,544,389
18:13:09.577,,564,575,393
18:13:09.614,,551,597,376
18:13:09.651,,582,583,358
18:13:09.688,,672,630,351
18:13:09.725,,775,690,358
18:13:09.762,,865,696,367
18:13:09.799,,1045,775,438
18:13:09.836,,1304,836,544
18:13:09.873,,1302,670,397
18:13:09.909,,1389,560,318
18:13:09.946,,1300,484,344
18:13:09.983,,1110,420,261
18:13:10.020,,934,327,167
18:13:10.057,,796,285,138
18:13:10.094,,717,315,133
18:13:10.131,,721,310,120
18:13:10.168,,652,197,71
18:13:10.205,,655,255,138
18:13:10.242,,737,357,224
18:13:10.279,,943,457,311
18:13:10.315,,1034,503,400
18:13:10.352,,1073,549,457
18:13:10.389,,1459,637,506
18:13:10.426,,1381,617,482
18:13:10.463,,1066,458,423
18:13:10.500,,838,374,443
18:13:10.537,,728,464,424
18:13:10.574,,662,558,428
18:13:10.611,,588,577,447
18:13:10.648,,550,579,457
18:13:10.685,,641,592,476
18:13:10.722,,891,631,463
18:13:10.759,,1328,761,480
18:13:10.796,,1400,744,535
18:13:10.833,,1016,573,475
18:13:10.870,,1005,524,352
18:13:10.907,,1299,534,220
18:13:10.944,,1176,429,210
18:13:10.981,,901,326,232
18:13:11.018,,780,312,194
18:13:11.055,,679,294,104
18:13:11.092,,669,344,88
18:13:11.129,,712,300,79
18:13:11.166,,672,263,95
18:13:11.203,,681,278,124
18:13:11.240,,698,320,160
18:13:11.277,,782,408,240
18:13:11.314,,947,541,363
18:13:11.351,,972,577,424
18:13:11.388,,1161,593,492
18:13:11.425,,1278,681,651
18:13:11.462,,969,577,657
18:13:11.499,,792,373,541
18:13:11.536,,714,323,525
18:13:11.573,,648,407,547
18:13:11.610,,623,529,556
18:13:11.647,,633,601,563
18:13:11.684,,751,595,533
18:13:11.721,,887,569,480
18:13:11.758,,1028,611,453
18:13:11.795,,1212,707,510
18:13:11.832,,1109,626,491
18:13:11.869,,1084,540,389
18:13:11.906,,1225,496,272
18:13:11.943,,1224,431,206
18:13:11.980,,1022,397,189
18:13:12.017,,799,363,177
18:13:12.054,,649,355,131
18:13:12.091,,577,332,68
18:13:12.128,,547,307,48
18:13:12.165,,552,273,67
18:13:12.201,,563,275,107
18:13:12.238,,569,284,140
18:13:12.275,,604,317,220
18:13:12.312,,655,350,319
18:13:12.349,,708,318,354
18:13:12.386,,1100,381,368
18:13:12.423,,1602,558,478
18:13:12.460,,1522,609,530
18:13:12.497,,1501,673,679
18:13:12.534,,910,618,720
18:13:12.571,,645,436,471
18:13:12.608,,639,279,379
18:13:12.645,,565,370,453
18:13:12.682,,499,519,499
18:13:12.719,,515,544,450
18:13:12.756,,614,556,390
18:13:12.793,,760,615,436
18:13:12.830,,854,651,410
18:13:12.867,,1300,818,474
18:13:12.904,,1438,760,497
18:13:12.941,,1448,588,318
18:13:12.978,,1374,539,313
18:13:13.015,,1111,466,257
18:13:13.052,,935,452,212
18:13:13.089,,790,380,175
18:13:13.126,,661,348,136
18:13:13.163,,617,292,107
18:13:13.200,,633,236,85
18:13:13.237,,659,219,81
18:13:13.273,,681,239,127
18:13:13.310,,722,274,171
18:13:13.347,,870,366,231
18:13:13.384,,1115,468,337
18:13:13.421,,1041,493,414
18:13:13.458,,1293,586,467
18:13:13.495,,1509,602,479
18:13:13.532,,1232,531,395
18:13:13.569,,957,393,389
18:13:13.606,,792,431,402
18:13:13.643,,732,563,367
18:13:13.680,,693,611,396
18:13:13.717,,661,592,410
18:13:13.754,,663,589,434
18:13:13.791,,750,622,458
18:13:13.828,,833,633,446
18:13:13.865,,870,609,431
18:13:13.902,,947,674,500
18:13:13.939,,1213,783,558
18:13:13.976,,1277,650,404
18:13:14.013,,1362,594,366
18:13:14.050,,1358,513,311
18:13:14.086,,1140,427,201
18:13:14.123,,1016,354,162
18:13:14.160,,880,316,139
18:13:14.197,,774,346,107
18:13:14.234,,727,322,69
18:13:14.271,,657,239,30
18:13:14.308,,624,231,52
18:13:14.345,,606,268,130
18:13:14.382,,700,347,197
18:13:14.419,,939,429,295
18:13:14.456,,889,388,373
18:13:14.493,,1132,514,478
18:13:14.529,,1468,624,574
18:13:14.566,,1271,612,521
18:13:14.603,,977,455,524
18:13:14.640,,893,362,569
18:13:14.677,,792,424,511
18:13:14.714,,702,480,493
18:13:14.751,,665,558,504
18:13:14.788,,667,638,480
18:13:14.825,,744,708,464
18:13:14.862,,870,747,420
18:13:14.899,,1104,830,463
18:13:14.936,,1163,778,505
18:13:14.973,,1111,656,414
18:13:15.010,,1278,654,350
18:13:15.047,,1304,573,268
18:13:15.084,,1108,454,231
18:13:15.121,,909,353,205
18:13:15.158,,788,325,150
18:13:15.195,,728,357,108
18:13:15.232,,732,368,92
18:13:15.269,,739,293,66
18:13:15.306,,704,235,68
18:13:15.343,,694,257,125
18:13:15.380,,743,312,180
18:13:15.417,,959,413,238
18:13:15.454,,1047,464,345
18:13:15.491,,996,523,430
18:13:15.528,,1221,603,528
18:13:15.564,,1230,603,557
18:13:15.601,,942,489,514
18:13:15.638,,841,314,484
18:13:15.675,,800,338,473
18:13:15.712,,730,413,440
18:13:15.749,,684,489,473
18:13:15.786,,662,557,497
18:13:15.823,,662,579,479
18:13:15.860,,789,605,468
18:13:15.897,,890,571,435
18:13:15.934,,939,597,447
18:13:15.971,,1038,667,536
18:13:16.008,,1129,653,486
18:13:16.045,,1273,598,360
18:13:16.082,,1389,558,336
18:13:16.119,,1184,451,264
18:13:16.156,,985,351,191
18:13:16.193,,838,285,163
18:13:16.230,,731,331,134
18:13:16.267,,677,354,109
18:13:16.304,,640,306,84
18:13:16.341,,635,251,79
18:13:16.378,,617,248,119
18:13:16.415,,672,279,152
18:13:16.452,,838,373,193
18:13:16.488,,1067,450,280
18:13:16.525,,1026,534,379
18:13:16.562,,1353,671,485
18:13:16.599,,1411,637,508
18:13:16.636,,1022,494,430
18:13:16.673,,840,268,408
18:13:16.710,,792,334,407
18:13:16.747,,701,469,418
18:13:16.784,,647,541,489
18:13:16.821,,619,568,514
18:13:16.858,,650,569,508
18:13:16.895,,770,591,502
18:13:16.932,,874,594,468
18:13:16.969,,976,652,474
18:13:17.006,,1065,723,552
18:13:17.043,,1190,677,462
18:13:17.080,,1348,649,358
18:13:17.117,,1418,598,330
18:13:17.154,,1198,478,262
18:13:17.191,,1050,369,188
18:13:17.228,,910,310,153
18:13:17.265,,808,354,136
18:13:17.302,,746,352,119
18:13:17.339,,666,271,77
18:13:17.375,,582,189,65
18:13:17.412,,547,199,118
18:13:17.449,,581,261,185
18:13:17.486,,672,360,258
18:13:17.523,,955,443,324
18:13:17.560,,1025,554,405
18:13:17.597,,1213,621,498
18:13:17.634,,1571,713,563
18:13:17.671,,1317,639,515
18:13:17.708,,943,398,453
18:13:17.745,,786,367,478
18:13:17.782,,750,473,432
18:13:17.819,,655,590,430
18:13:17.856,,591,660,450
18:13:17.893,,620,629,432
18:13:17.930,,689,646,427
18:13:17.967,,793,676,393
18:13:18.003,,927,732,414
18:13:18.040,,1166,856,543
18:13:18.077,,1289,759,433
18:13:18.114,,1458,664,332
18:13:18.151,,1387,527,329
18:13:18.188,,1151,404,257
18:13:18.225,,973,349,183
18:13:18.262,,830,330,146
18:13:18.299,,719,367,144
18:13:18.336,,686,341,126
18:13:18.373,,647,242,66
18:13:18.410,,610,192,68
18:13:18.447,,629,239,133
18:13:18.484,,707,328,185
18:13:18.521,,929,426,242
18:13:18.558,,996,507,362
18:13:18.595,,1141,599,444
18:13:18.632,,1459,630,515
18:13:18.669,,1236,585,517
18:13:18.706,,878,417,500
18:13:18.743,,749,316,506
18:13:18.780,,716,373,457
18:13:18.817,,630,485,502
18:13:18.854,,637,554,540
18:13:18.891,,688,587,522
18:13:18.928,,800,607,515
18:13:18.965,,884,592,442
18:13:19.002,,1020,632,407
18:13:19.039,,1232,729,513
18:13:19.076,,1068,672,483
18:13:19.113,,1054,601,385
18:13:19.149,,1172,561,314
18:13:19.186,,1108,502,258
18:13:19.223,,964,388,224
18:13:19.260,,832,299,191
18:13:19.297,,729,292,141
18:13:19.334,,691,309,101
18:13:19.371,,688,299,86
18:13:19.408,,664,251,94
18:13:19.445,,675,276,122
18:13:19.482,,745,354,186
18:13:19.519,,867,428,251
18:13:19.556,,1098,474,310
18:13:19.593,,1036,464,394
18:13:19.630,,1206,520,453
18:13:19.667,,1420,540,475
18:13:19.704,,1094,483,415
18:13:19.741,,806,360,378
18:13:19.778,,698,381,379
18:13:19.815,,655,510,396
18:13:19.851,,617,497,448
18:13:19.888,,620,462,430
18:13:19.925,,654,502,423
18:13:19.962,,824,578,433
18:13:19.999,,964,640,419
18:13:20.036,,1334,793,494
18:13:20.073,,1179,734,558
18:13:20.110,,983,623,406
18:13:20.147,,1172,594,342
18:13:20.184,,1206,468,268
18:13:20.221,,1024,343,226
18:13:20.258,,847,278,207
18:13:20.295,,742,309,170
18:13:20.332,,702,354,119
18:13:20.369,,718,338,88
18:13:20.406,,701,268,90
18:13:20.443,,675,256,96
18:13:20.480,,727,313,141
18:13:20.517,,801,361,194
18:13:20.554,,890,379,235
18:13:20.591,,1014,443,338
18:13:20.628,,985,487,421
18:13:20.665,,1262,544,484
18:13:20.702,,1284,550,525
18:13:20.739,,968,489,556
18:13:20.775,,778,352,521
18:13:20.812,,685,358,470
18:13:20.849,,624,425,481
18:13:20.886,,603,504,543
18:13:20.923,,641,502,511
18:13:20.960,,694,517,483
18:13:20.997,,790,573,495
18:13:21.034,,870,579,414
18:13:21.071,,1266,802,579
18:13:21.108,,1200,655,445
18:13:21.145,,1340,579,299
18:13:21.182,,1340,527,341
18:13:21.218,,1174,428,275
18:13:21.255,,978,341,161
18:13:21.292,,795,260,122
18:13:21.329,,646,326,159
18:13:21.366,,637,340,141
18:13:21.403,,592,242,72
18:13:21.440,,567,212,89
18:13:21.477,,623,277,147
18:13:21.514,,716,340,179
18:13:21.551,,919,418,236
18:13:21.588,,1118,529,375
18:13:21.625,,1135,616,494
18:13:21.662,,1456,658,576
18:13:21.699,,1231,574,591
18:13:21.736,,873,373,499
18:13:21.772,,741,235,433
18:13:21.809,,640,355,442
18:13:21.846,,566,481,478
18:13:21.883,,562,534,477
18:13:21.920,,610,548,491
18:13:21.957,,749,535,467
18:13:21.994,,858,587,459
18:13:22.031,,871,594,427
18:13:22.068,,950,644,491
18:13:22.105,,1263,792,624
18:13:22.142,,1233,587,447
18:13:22.179,,1268,475,277
18:13:22.216,,1249,484,314
18:13:22.253,,1091,452,237
18:13:22.290,,942,395,181
18:13:22.326,,813,318,152
18:13:22.363,,676,356,117
18:13:22.400,,645,346,87
18:13:22.437,,655,279,72
18:13:22.474,,649,236,91
18:13:22.511,,691,265,139
18:13:22.547,,807,313,191
18:13:22.584,,1087,426,269
18:13:22.621,,1076,443,392
18:13:22.658,,952,458,457
18:13:22.694,,1201,560,555
18:13:22.730,,1177,598,590
18:13:22.765,,908,466,501
18:13:22.801,,795,286,467
18:13:22.838,,805,370,461
18:13:22.875,,763,508,463
18:13:22.912,,734,587,499
18:13:22.949,,700,605,484
18:13:22.986,,737,603,459
18:13:23.023,,804,631,446
18:13:23.060,,952,636,421
18:13:23.097,,1146,691,495
18:13:23.134,,1176,662,518
18:13:23.171,,1138,589,383
18:13:23.207,,1257,581,330
18:13:23.244,,1170,497,281
18:13:23.281,,972,410,219
18:13:23.317,,805,309,169
18:13:23.354,,719,307,143
18:13:23.390,,732,343,127
18:13:23.427,,744,323,95
18:13:23.464,,723,266,79
18:13:23.501,,720,267,110
18:13:23.538,,747,297,137
18:13:23.575,,907,364,152
18:13:23.611,,1102,473,253
18:13:23.648,,923,520,387
18:13:23.684,,1093,620,471
18:13:23.720,,1201,600,535
18:13:23.757,,993,469,474
18:13:23.793,,860,236,422
18:13:23.829,,792,289,490
18:13:23.866,,735,430,509
18:13:23.903,,669,502,496
18:13:23.940,,649,558,505
18:13:23.977,,685,582,511
18:13:24.014,,823,600,523
18:13:24.051,,941,582,484
18:13:24.088,,976,583,459
18:13:24.125,,1064,631,522
18:13:24.162,,1061,611,499
18:13:24.198,,1012,520,387
18:13:24.235,,1153,538,355
18:13:24.271,,1228,489,292
18:13:24.307,,1045,394,204
18:13:24.343,,888,312,172
18:13:24.380,,772,315,169
18:13:24.417,,713,369,141
18:13:24.454,,705,344,96
18:13:24.490,,660,257,72
18:13:24.527,,649,256,113
18:13:24.564,,674,297,160
18:13:24.601,,804,361,189
18:13:24.638,,1061,438,242
18:13:24.675,,1049,495,350
18:13:24.711,,1296,641,482
18:13:24.746,,1288,608,577
18:13:24.782,,893,529,555
18:13:24.818,,721,294,507
18:13:24.854,,709,236,507
18:13:24.891,,669,334,520
18:13:24.928,,653,435,532
18:13:24.965,,667,523,513
18:13:25.002,,761,621,516
18:13:25.039,,861,639,473
18:13:25.076,,991,668,432
18:13:25.113,,1292,791,533
18:13:25.150,,1123,705,524
18:13:25.187,,1098,609,402
18:13:25.224,,1232,560,320
18:13:25.260,,1181,457,242
18:13:25.297,,996,363,213
18:13:25.334,,820,292,195
18:13:25.371,,712,330,153
18:13:25.408,,696,362,121
18:13:25.445,,685,312,80
18:13:25.482,,665,245,82
18:13:25.519,,678,260,123
18:13:25.556,,735,310,168
18:13:25.593,,835,364,215
18:13:25.630,,1058,445,300
18:13:25.667,,955,439,398
18:13:25.704,,1205,531,460
18:13:25.741,,1377,526,523
18:13:25.778,,1098,519,508
18:13:25.815,,846,406,523
18:13:25.852,,782,379,529
18:13:25.889,,689,425,492
18:13:25.925,,611,466,526
18:13:25.962,,601,501,543
18:13:25.999,,696,526,511
18:13:26.036,,813,576,492
18:13:26.073,,929,595,411
18:13:26.110,,1076,696,427
18:13:26.147,,1128,770,520
18:13:26.184,,1034,687,406
18:13:26.221,,1202,658,322
18:13:26.257,,1229,569,290
18:13:26.293,,1111,442,246
18:13:26.329,,993,337,195
18:13:26.366,,888,312,168
18:13:26.403,,799,335,147
18:13:26.439,,739,323,117
18:13:26.475,,661,261,99
18:13:26.511,,609,231,115
18:13:26.547,,640,283,176
18:13:26.583,,668,339,243
18:13:26.619,,830,389,293
18:13:26.656,,1028,424,347
18:13:26.692,,1089,462,388
18:13:26.729,,1437,595,468
18:13:26.765,,1333,616,519
18:13:26.801,,944,539,459
18:13:26.838,,775,387,414
18:13:26.874,,730,420,386
18:13:26.911,,692,490,392
18:13:26.948,,665,556,439
18:13:26.985,,653,579,431
18:13:27.022,,730,617,438
18:13:27.059,,858,662,433
18:13:27.096,,952,660,398
18:13:27.133,,1084,721,483
18:13:27.170,,1084,701,521
18:13:27.207,,1126,631,390
18:13:27.243,,1311,594,347
18:13:27.279,,1268,473,292
18:13:27.316,,1056,395,234
18:13:27.352,,900,326,194
18:13:27.389,,824,321,155
18:13:27.425,,758,342,118
18:13:27.460,,726,329,94
18:13:27.495,,684,253,62
18:13:27.531,,675,241,77
18:13:27.567,,675,279,113
18:13:27.603,,755,346,141
18:13:27.640,,960,425,211
18:13:27.677,,945,483,334
18:13:27.713,,1110,564,409
18:13:27.750,,1370,627,507
18:13:27.787,,1146,571,541
18:13:27.823,,894,396,531
18:13:27.860,,854,299,550
18:13:27.897,,787,354,550
18:13:27.934,,693,426,561
18:13:27.970,,679,513,588
18:13:28.007,,664,554,557
18:13:28.044,,709,598,504
18:13:28.081,,868,623,431
18:13:28.118,,1007,652,413
18:13:28.155,,1268,744,528
18:13:28.192,,1113,668,486
18:13:28.229,,1199,641,397
18:13:28.265,,1337,589,299
18:13:28.302,,1220,462,237
18:13:28.338,,1020,372,232
18:13:28.374,,823,310,195
18:13:28.411,,688,315,137
18:13:28.448,,639,312,104
18:13:28.483,,642,272,86
18:13:28.518,,628,223,83
18:13:28.554,,628,255,123
18:13:28.589,,738,350,208
18:13:28.623,,835,407,281
18:13:28.656,,1020,438,341
18:13:28.690,,1111,445,419
18:13:28.726,,1199,497,468
18:13:28.762,,1438,579,525
18:13:28.799,,1150,564,513
18:13:28.836,,845,465,458
18:13:28.873,,743,397,451
18:13:28.910,,674,434,425
18:13:28.946,,631,487,444
18:13:28.983,,604,526,447
18:13:29.020,,624,550,421
18:13:29.057,,775,585,421
18:13:29.094,,891,599,431
18:13:29.131,,974,636,433
18:13:29.168,,1120,713,530
18:13:29.204,,1150,682,519
18:13:29.241,,1205,557,357
18:13:29.277,,1287,504,308
18:13:29.310,,1126,431,261
18:13:29.344,,970,389,200
18:13:29.377,,847,311,154
18:13:29.411,,732,312,120
18:13:29.445,,677,333,88
18:13:29.479,,692,322,65
18:13:29.512,,705,275,60
18:13:29.546,,742,281,73
18:13:29.580,,789,324,130
18:13:29.614,,879,433,224
18:13:29.648,,1051,508,332
18:13:29.681,,841,491,437
18:13:29.715,,976,519,484
18:13:29.749,,1337,560,546
18:13:29.783,,1117,503,588
18:13:29.816,,814,317,581
18:13:29.850,,731,236,582
18:13:29.884,,651,326,496
18:13:29.918,,562,448,508
18:13:29.952,,589,500,559
18:13:29.986,,676,542,556
18:13:30.021,,897,552,524
18:13:30.055,,1238,638,492
18:13:30.090,,1457,760,551
18:13:30.124,,1095,670,450
18:13:30.157,,933,581,393
18:13:30.191,,1085,574,226
18:13:30.225,,1029,480,149
18:13:30.259,,866,323,173
18:13:30.293,,781,267,169
18:13:30.327,,710,299,109
18:13:30.361,,719,356,67
18:13:30.395,,776,379,78
18:13:30.429,,829,333,91
18:13:30.463,,880,332,135
18:13:30.497,,894,352,191
18:13:30.531,,973,396,228
18:13:30.565,,989,427,338
18:13:30.599,,764,408,369
18:13:30.634,,987,493,457
18:13:30.668,,1034,507,551
18:13:30.702,,832,498,544
18:13:30.736,,751,328,518
18:13:30.770,,735,270,526
18:13:30.804,,691,339,524
18:13:30.839,,699,426,514
18:13:30.873,,764,500,539
18:13:30.907,,845,575,547
18:13:30.941,,990,623,517
18:13:30.975,,1065,636,489
18:13:31.009,,1115,670,547
18:13:31.043,,1017,632,509
18:13:31.077,,1154,595,371
18:13:31.112,,1268,513,299
18:13:31.146,,1088,390,232
18:13:31.181,,931,313,187
18:13:31.215,,799,285,161
18:13:31.249,,725,366,129
18:13:31.284,,746,408,98
18:13:31.318,,775,358,76
18:13:31.353,,765,300,83
18:13:31.387,,745,304,137
18:13:31.422,,794,329,172
18:13:31.457,,918,394,223
18:13:31.491,,1012,449,350
18:13:31.526,,923,465,434
18:13:31.560,,1102,462,468
18:13:31.594,,1105,454,515
18:13:31.629,,839,467,550
18:13:31.664,,728,368,531
18:13:31.698,,714,369,513
18:13:31.732,,728,418,490
18:13:31.767,,765,483,483
18:13:31.801,,814,568,496
18:13:31.835,,877,597,483
18:13:31.869,,925,593,460
18:13:31.903,,1135,675,527
18:13:31.938,,1230,698,617
18:13:31.972,,868,521,494
18:13:32.006,,992,450,351
18:13:32.041,,1171,455,304
18:13:32.075,,1120,374,277
18:13:32.110,,1013,298,220
18:13:32.145,,897,272,190
18:13:32.180,,887,333,134
18:13:32.214,,937,403,114
18:13:32.249,,970,383,97
18:13:32.284,,881,362,119
18:13:32.318,,749,398,213
18:13:32.353,,795,389,244
18:13:32.388,,805,295,211
18:13:32.422,,743,267,238
18:13:32.457,,795,338,333
18:13:32.491,,888,457,430
18:13:32.526,,950,494,410
18:13:32.560,,914,426,397
18:13:32.594,,794,440,509
18:13:32.629,,740,466,570
18:13:32.663,,768,459,559
18:13:32.697,,745,419,546
18:13:32.732,,779,420,547
18:13:32.766,,841,479,558
18:13:32.800,,915,530,530
18:13:32.835,,969,552,465
18:13:32.869,,1080,617,461
18:13:32.903,,1024,693,532
18:13:32.937,,886,670,510
18:13:32.971,,1048,585,358
18:13:33.005,,1216,497,243
18:13:33.040,,1244,380,229
18:13:33.074,,1020,310,210
18:13:33.108,,831,302,166
18:13:33.143,,730,353,118
18:13:33.177,,717,410,98
18:13:33.211,,738,372,86
18:13:33.246,,739,304,80
18:13:33.280,,773,323,127
18:13:33.315,,839,339,162
18:13:33.349,,1074,385,188
18:13:33.384,,1005,384,282
18:13:33.418,,877,494,404
18:13:33.452,,966,628,559
18:13:33.486,,1033,583,559
18:13:33.521,,899,309,436
18:13:33.555,,753,139,454
18:13:33.589,,759,282,501
18:13:33.624,,726,472,490
18:13:33.658,,680,577,510
18:13:33.692,,684,554,532
18:13:33.726,,806,491,473
18:13:33.760,,909,519,428
18:13:33.794,,1183,692,440
18:13:33.828,,1245,815,533
18:13:33.862,,928,656,449
18:13:33.896,,1053,497,320
18:13:33.930,,1121,496,200
18:13:33.964,,1057,419,187
18:13:33.998,,909,341,207
18:13:34.032,,799,315,171
18:13:34.066,,709,338,108
18:13:34.100,,674,370,63
18:13:34.135,,691,335,22
18:13:34.169,,634,273,24
18:13:34.204,,586,342,86
18:13:34.238,,703,462,185
18:13:34.273,,954,602,322
18:13:34.308,,1180,638,387
18:13:34.343,,1258,465,382
18:13:34.378,,1149,277,392
18:13:34.414,,996,272,453
18:13:34.449,,1111,452,500
18:13:34.484,,998,510,469
18:13:34.519,,785,418,372
18:13:34.554,,613,363,367
18:13:34.588,,499,407,362
18:13:34.623,,483,474,349
18:13:34.657,,524,453,352
18:13:34.692,,631,424,375
18:13:34.727,,798,434,366
18:13:34.762,,1031,490,358
18:13:34.796,,1097,539,377
18:13:34.831,,1147,602,415
18:13:34.865,,1137,671,473
18:13:34.900,,936,595,397
18:13:34.935,,936,519,305
18:13:34.971,,1028,505,281
18:13:35.006,,1092,426,222
18:13:35.042,,994,324,166
18:13:35.078,,844,272,127
18:13:35.114,,715,294,102
18:13:35.150,,697,375,70
18:13:35.185,,773,439,63
18:13:35.221,,848,419,65
18:13:35.257,,889,432,126
18:13:35.293,,965,485,222
18:13:35.329,,991,463,236
18:13:35.365,,1002,397,255
18:13:35.401,,861,319,338
18:13:35.438,,770,319,394
18:13:35.474,,947,429,468
18:13:35.510,,990,442,479
18:13:35.546,,862,347,428
18:13:35.582,,694,333,458
18:13:35.617,,628,384,469
18:13:35.653,,593,402,430
18:13:35.689,,606,376,423
18:13:35.725,,626,380,451
18:13:35.760,,651,406,431
18:13:35.796,,741,431,407
18:13:35.832,,860,464,421
18:13:35.868,,1000,488,414
18:13:35.903,,973,495,423
18:13:35.939,,907,518,434
18:13:35.975,,966,640,510
18:13:36.011,,847,646,542
18:13:36.048,,924,533,431
18:13:36.084,,1085,423,308
18:13:36.121,,1130,346,249
18:13:36.157,,990,295,278
18:13:36.194,,832,324,256
18:13:36.230,,739,391,202
18:13:36.267,,742,436,161
18:13:36.303,,780,389,144
18:13:36.340,,792,303,135
18:13:36.377,,817,320,175
18:13:36.413,,860,384,254
18:13:36.450,,891,393,306
18:13:36.486,,961,376,349
18:13:36.523,,869,377,465
18:13:36.559,,777,366,510
18:13:36.596,,1105,443,516
18:13:36.632,,1217,429,391
18:13:36.668,,1028,417,292
18:13:36.704,,800,435,340
18:13:36.739,,684,507,359
18:13:36.775,,595,592,290
18:13:36.810,,598,570,295
18:13:36.845,,632,510,340
18:13:36.881,,735,477,355
18:13:36.916,,875,515,379
18:13:36.951,,986,568,405
18:13:36.987,,1131,713,468
18:13:37.023,,1044,797,595
18:13:37.058,,954,683,455
18:13:37.095,,1128,582,316
18:13:37.131,,1216,494,252
18:13:37.168,,1165,349,220
18:13:37.205,,1035,268,208
18:13:37.241,,896,288,168
18:13:37.278,,834,365,117
18:13:37.314,,840,418,68
18:13:37.351,,825,396,46
18:13:37.388,,793,324,36
18:13:37.424,,796,344,51
18:13:37.461,,846,402,89
18:13:37.497,,879,449,176
18:13:37.534,,907,510,331
18:13:37.571,,871,456,386
18:13:37.607,,830,380,408
18:13:37.644,,1008,422,500
18:13:37.680,,1056,444,611
18:13:37.717,,861,382,622
18:13:37.754,,680,282,604
18:13:37.790,,626,254,555
18:13:37.827,,588,338,518
18:13:37.863,,592,419,505
18:13:37.900,,632,450,461
18:13:37.937,,770,482,398
18:13:37.973,,1063,578,430
18:13:38.010,,1057,622,435
18:13:38.046,,1107,657,420
18:13:38.083,,1204,732,537
18:13:38.119,,1102,669,457
18:13:38.156,,949,506,327
18:13:38.193,,999,406,259
18:13:38.229,,933,373,258
18:13:38.266,,800,351,233
18:13:38.303,,734,310,179
18:13:38.339,,667,306,136
18:13:38.376,,681,367,108
18:13:38.412,,755,411,94
18:13:38.449,,854,393,84
18:13:38.486,,930,398,115
18:13:38.522,,1032,437,180
18:13:38.559,,1098,480,229
18:13:38.595,,1067,474,259
18:13:38.632,,887,437,310
18:13:38.669,,665,402,339
18:13:38.705,,750,415,369
18:13:38.742,,963,451,439
18:13:38.778,,907,383,432
18:13:38.815,,726,323,432
18:13:38.852,,614,355,474
18:13:38.888,,610,427,463
18:13:38.925,,624,467,442
18:13:38.961,,659,445,467
18:13:38.998,,714,448,491
18:13:39.035,,912,485,448
18:13:39.071,,1006,528,434
18:13:39.108,,1021,553,431
18:13:39.144,,1096,625,483
18:13:39.181,,1044,664,503
18:13:39.218,,935,573,401
18:13:39.254,,1090,489,271
18:13:39.291,,1122,462,250
18:13:39.327,,1038,376,221
18:13:39.364,,918,302,175
18:13:39.401,,759,278,141
18:13:39.437,,639,342,103
18:13:39.474,,643,403,73
18:13:39.511,,685,404,73
18:13:39.547,,747,377,103
18:13:39.584,,863,419,162
18:13:39.620,,1019,463,212
18:13:39.657,,1126,488,250
18:13:39.694,,1107,473,311
18:13:39.730,,895,471,390
18:13:39.767,,777,517,463
18:13:39.803,,880,454,445
18:13:39.840,,996,248,367
18:13:39.876,,878,70,313
18:13:39.913,,681,193,335
18:13:39.950,,632,383,340
18:13:39.986,,622,546,348
18:13:40.023,,640,545,376
18:13:40.060,,657,445,411
18:13:40.097,,676,402,416
18:13:40.133,,807,455,412
18:13:40.170,,967,522,444
18:13:40.207,,1011,540,491
18:13:40.243,,1059,567,539
18:13:40.280,,1006,611,613
18:13:40.316,,921,586,582
18:13:40.353,,1037,508,452
18:13:40.389,,1127,440,349
18:13:40.426,,1040,337,304
18:13:40.463,,908,284,247
18:13:40.499,,769,280,191
18:13:40.536,,668,340,124
18:13:40.572,,634,420,86
18:13:40.609,,692,465,93
18:13:40.646,,758,445,121
18:13:40.682,,849,441,163
18:13:40.719,,990,436,224
18:13:40.755,,1072,418,265
18:13:40.792,,1089,336,272
18:13:40.829,,863,354,351
18:13:40.865,,778,449,443
18:13:40.902,,915,478,488
18:13:40.938,,945,396,446
18:13:40.975,,806,233,364
18:13:41.011,,667,200,350
18:13:41.048,,617,321,373
18:13:41.084,,628,425,387
18:13:41.121,,655,436,396
18:13:41.158,,724,439,431
18:13:41.194,,815,501,481
18:13:41.231,,987,555,506
18:13:41.267,,1127,551,507
18:13:41.304,,1228,578,557
18:13:41.340,,1190,610,596
18:13:41.377,,996,536,531
18:13:41.414,,823,420,416
18:13:41.450,,971,398,310
18:13:41.487,,1024,405,278
18:13:41.524,,965,345,222
18:13:41.560,,872,300,136
18:13:41.597,,782,294,83
18:13:41.634,,725,379,64
18:13:41.670,,763,477,63
18:13:41.707,,846,497,75
18:13:41.743,,911,449,97
18:13:41.780,,955,444,166
18:13:41.817,,988,425,230
18:13:41.853,,1011,365,272
18:13:41.890,,869,297,315
18:13:41.926,,650,320,387
18:13:41.963,,734,424,475
18:13:41.999,,920,477,511
18:13:42.036,,943,395,475
18:13:42.073,,795,284,465
18:13:42.109,,692,302,491
18:13:42.146,,707,366,479
18:13:42.182,,712,419,461
18:13:42.219,,704,419,458
18:13:42.255,,680,443,472
18:13:42.292,,755,470,457
18:13:42.329,,879,490,426
18:13:42.365,,1021,541,450
18:13:42.402,,1067,615,506
18:13:42.438,,952,621,544
18:13:42.475,,815,516,473
18:13:42.512,,924,448,338
18:13:42.548,,1056,451,284
18:13:42.585,,1083,360,281
18:13:42.621,,919,306,227
18:13:42.658,,754,281,161
18:13:42.694,,662,332,117
18:13:42.731,,708,418,90
18:13:42.768,,837,464,111
18:13:42.804,,904,424,129
18:13:42.841,,962,441,187
18:13:42.877,,978,459,270
18:13:42.914,,1020,462,331
18:13:42.950,,1018,332,315
18:13:42.987,,884,252,316
18:13:43.023,,855,380,413
18:13:43.060,,942,478,476
18:13:43.097,,879,421,460
18:13:43.133,,704,272,399
18:13:43.170,,581,245,369
18:13:43.206,,579,371,394
18:13:43.243,,629,434,412
18:13:43.279,,686,425,434
18:13:43.316,,696,427,473
18:13:43.353,,783,453,457
18:13:43.389,,946,497,451
18:13:43.426,,1031,515,469
18:13:43.462,,1098,571,495
18:13:43.499,,977,631,574
18:13:43.536,,899,609,537
18:13:43.572,,1013,526,423
18:13:43.609,,1173,455,286
18:13:43.645,,1050,344,252
18:13:43.682,,861,289,217
18:13:43.719,,731,280,171
18:13:43.755,,611,360,141
18:13:43.792,,606,419,109
18:13:43.828,,696,418,95
18:13:43.865,,791,392,119
18:13:43.902,,909,433,182
18:13:43.938,,994,435,259
18:13:43.975,,1120,429,296
18:13:44.011,,1230,398,337
18:13:44.048,,1096,412,424
18:13:44.084,,884,438,472
18:13:44.121,,848,432,464
18:13:44.158,,834,405,444
18:13:44.194,,715,306,398
18:13:44.231,,590,256,358
18:13:44.267,,546,326,370
18:13:44.304,,553,401,397
18:13:44.340,,603,444,421
18:13:44.377,,646,427,437
18:13:44.414,,684,423,443
18:13:44.450,,837,462,433
18:13:44.487,,982,486,451
18:13:44.524,,1016,477,449
18:13:44.560,,1098,524,478
18:13:44.597,,1152,621,562
18:13:44.633,,1057,579,543
18:13:44.670,,994,451,438
18:13:44.707,,1054,396,306
18:13:44.743,,1026,371,257
18:13:44.780,,862,338,229
18:13:44.816,,710,314,171
18:13:44.853,,614,324,138
18:13:44.890,,593,375,114
18:13:44.926,,662,410,91
18:13:44.963,,754,379,91
18:13:45.000,,816,384,137
18:13:45.036,,930,441,195
18:13:45.073,,1074,510,295
18:13:45.109,,1131,509,368
18:13:45.146,,1140,387,372
18:13:45.182,,1079,324,403
18:13:45.219,,859,329,446
18:13:45.256,,789,366,423
18:13:45.292,,835,397,395
18:13:45.329,,765,367,386
18:13:45.365,,661,349,356
18:13:45.402,,602,360,352
18:13:45.439,,619,417,355
18:13:45.475,,687,433,348
18:13:45.512,,726,407,366
18:13:45.548,,691,410,400
18:13:45.585,,740,461,410
18:13:45.622,,907,517,452
18:13:45.658,,1043,530,485
18:13:45.695,,1106,522,501
18:13:45.731,,1028,570,579
18:13:45.768,,901,570,561
18:13:45.805,,924,488,411
18:13:45.841,,1044,438,311
18:13:45.878,,1052,359,289
18:13:45.914,,924,304,241
18:13:45.951,,830,289,162
18:13:45.987,,748,335,128
18:13:46.024,,724,407,98
18:13:46.061,,775,437,78
18:13:46.097,,836,422,89
18:13:46.134,,872,412,126
18:13:46.170,,964,453,182
18:13:46.207,,1027,463,221
18:13:46.244,,1141,462,245
18:13:46.280,,1052,385,292
18:13:46.317,,802,359,380
18:13:46.353,,655,341,421
18:13:46.390,,771,422,458
18:13:46.426,,850,465,513
18:13:46.463,,825,372,494
18:13:46.499,,742,278,461
18:13:46.536,,654,323,452
18:13:46.572,,657,416,400
18:13:46.609,,658,452,381
18:13:46.646,,703,425,403
18:13:46.682,,731,405,383
18:13:46.719,,834,433,359
18:13:46.755,,974,490,390
18:13:46.792,,1044,500,398
18:13:46.828,,1087,548,431
18:13:46.865,,1072,630,518
18:13:46.902,,979,594,521
18:13:46.938,,888,431,408
18:13:46.975,,1006,348,292
18:13:47.011,,997,334,271
18:13:47.048,,893,305,254
18:13:47.084,,791,301,185
18:13:47.121,,695,314,132
18:13:47.157,,650,380,103
18:13:47.194,,698,443,89
18:13:47.230,,796,458,100
18:13:47.267,,879,439,139
18:13:47.303,,994,478,225
18:13:47.340,,1072,474,303
18:13:47.376,,1135,393,315
18:13:47.413,,1067,272,334
18:13:47.449,,918,316,427
18:13:47.486,,758,409,488
18:13:47.522,,799,492,523
18:13:47.559,,829,422,505
18:13:47.595,,753,274,433
18:13:47.632,,628,215,376
18:13:47.668,,572,294,343
18:13:47.705,,589,377,333
18:13:47.742,,637,436,349
18:13:47.778,,674,431,367
18:13:47.815,,680,447,400
18:13:47.851,,783,498,447
18:13:47.888,,917,517,478
18:13:47.925,,1006,478,464
18:13:47.961,,1128,507,515
18:13:47.998,,1077,608,633
18:13:48.034,,991,593,627
18:13:48.071,,872,471,543
18:13:48.107,,1027,400,389
18:13:48.144,,1044,358,320
