Sensors' Acquisition [Hz]: Acc@26.0 
hh:mm:ss.ms, Annotation , AccX [mg], AccY, AccZ
02:15:04.656,,1120,31,233
02:15:04.693,,980,59,273
02:15:04.716,>Walk,,,
02:15:04.730,,816,117,300
02:15:04.767,,784,146,289
02:15:04.804,,788,86,276
02:15:04.841,,770,26,279
02:15:04.878,,819,48,304
02:15:04.915,,938,79,311
02:15:04.952,,1134,70,290
02:15:04.989,,1259,66,279
02:15:05.026,,1105,73,270
02:15:05.063,,1075,224,201
02:15:05.100,,1022,179,156
02:15:05.137,,943,114,167
02:15:05.174,,876,119,175
02:15:05.211,,863,151,166
02:15:05.335,,941,107,174
02:15:05.335,,941,107,174
02:15:05.336,,941,107,174
02:15:05.359,,941,130,187
02:15:05.396,,926,121,221
02:15:05.433,,982,117,280
02:15:05.470,,1042,72,336
02:15:05.507,,971,35,351
02:15:05.544,,1035,33,327
02:15:05.581,,968,65,362
02:15:05.619,,839,142,386
02:15:05.656,,749,170,374
02:15:05.693,,704,175,331
02:15:05.730,,692,151,326
02:15:05.767,,683,137,329
02:15:05.804,,714,132,347
02:15:05.841,,823,107,364
02:15:05.878,,1005,44,347
02:15:05.915,,1192,8,324
02:15:05.952,,1340,48,344
02:15:06.040,,1036,211,292
02:15:06.040,,1036,211,292
02:15:06.063,,1043,170,245
02:15:06.100,,1041,98,272
02:15:06.137,,1056,49,272
02:15:06.174,,1004,42,255
02:15:06.211,,944,41,232
02:15:06.248,,877,21,210
02:15:06.285,,813,33,201
02:15:06.322,,745,63,231
02:15:06.359,,735,91,245
02:15:06.396,,879,71,247
02:15:06.433,,928,22,261
02:15:06.470,,1071,38,303
02:15:06.507,,1178,4,388
02:15:06.544,,903,-5,425
02:15:06.581,,772,-65,333
02:15:06.618,,938,-114,246
02:15:06.655,,1039,-132,235
02:15:06.692,,917,-8,317
02:15:06.784,,706,167,370
02:15:06.785,,706,167,370
02:15:06.803,,724,164,335
02:15:06.840,,758,131,363
02:15:06.878,,735,109,386
02:15:06.915,,856,115,398
02:15:06.952,,1184,81,385
02:15:06.989,,1382,15,300
02:15:07.026,,1519,20,269
02:15:07.063,,1064,135,314
02:15:07.100,,838,239,216
02:15:07.137,,956,179,143
02:15:07.174,,1115,72,161
02:15:07.211,,1032,49,155
02:15:07.248,,916,105,151
02:15:07.285,,883,162,125
02:15:07.322,,933,125,113
02:15:07.359,,1000,60,122
02:15:07.396,,950,66,134
02:15:07.433,,975,111,159
02:15:07.520,,979,80,220
02:15:07.521,,979,80,220
02:15:07.544,,940,26,285
02:15:07.581,,840,24,378
02:15:07.618,,813,-2,396
02:15:07.655,,907,-40,338
02:15:07.692,,1012,-74,268
02:15:07.729,,996,-62,372
02:15:07.766,,910,-33,430
02:15:07.803,,923,135,426
02:15:07.840,,938,191,373
02:15:07.877,,875,46,411
02:15:07.914,,794,29,432
02:15:07.951,,746,75,442
02:15:07.989,,780,69,450
02:15:08.026,,864,23,455
02:15:08.063,,929,7,440
02:15:08.100,,954,5,400
02:15:08.137,,937,-52,361
02:15:08.174,,918,-28,343
02:15:08.265,,1039,133,371
02:15:08.265,,1039,133,371
02:15:08.285,,1180,176,413
02:15:08.322,,1053,87,328
02:15:08.359,,877,-243,193
02:15:08.396,,1036,-57,164
02:15:08.433,,1138,28,168
02:15:08.470,,1145,88,196
02:15:08.507,,998,102,228
02:15:08.544,,866,120,207
02:15:08.581,,798,140,167
02:15:08.618,,773,107,171
02:15:08.655,,767,72,186
02:15:08.692,,752,52,203
02:15:08.729,,749,51,212
02:15:08.766,,849,68,226
02:15:08.803,,988,67,227
02:15:08.840,,1083,73,280
02:15:08.877,,1292,41,417
02:15:08.968,,917,621,1278
02:15:08.968,,917,621,1278
02:15:08.988,,990,617,1188
02:15:09.025,,1260,480,1007
02:15:09.062,,1441,379,785
02:15:09.099,,1463,356,560
02:15:09.136,,1308,246,419
02:15:09.173,,1031,123,306
02:15:09.211,,765,64,260
02:15:09.248,,554,-12,292
02:15:09.285,,308,-101,376
02:15:09.322,,77,-177,436
02:15:09.359,,30,-151,696
02:15:09.396,,24,-278,876
02:15:09.433,,-34,-338,897
02:15:09.470,,-178,-250,977
02:15:09.507,,-216,-257,1135
02:15:09.544,,-150,-171,1013
02:15:09.581,,-140,-67,939
02:15:09.670,,4,-136,905
02:15:09.670,,4,-136,905
02:15:09.692,,75,-146,753
02:15:09.729,,88,-249,636
02:15:09.766,,116,-295,487
02:15:09.803,,249,-161,388
02:15:09.840,,426,-90,378
02:15:09.877,,630,-55,378
02:15:09.914,,956,-10,322
02:15:09.951,,1433,-29,282
02:15:09.988,,1792,21,212
02:15:10.025,,1948,135,278
02:15:10.062,,1877,231,383
02:15:10.099,,1627,254,377
02:15:10.136,,1082,144,412
02:15:10.173,,823,142,408
02:15:10.210,,948,157,385
02:15:10.247,,1040,183,420
02:15:10.284,,980,149,489
02:15:10.322,,893,169,472
02:15:10.416,,938,16,479
02:15:10.416,,938,16,479
02:15:10.433,,938,16,479
02:15:10.470,,948,-63,443
02:15:10.507,,1008,50,425
02:15:10.544,,1270,187,321
02:15:10.581,,1358,350,179
02:15:10.618,,1313,436,83
02:15:10.655,,1345,570,-52
02:15:10.692,,1191,612,18
02:15:10.729,,1042,736,-70
02:15:10.766,,976,557,7
02:15:10.803,,891,367,213
02:15:10.840,,784,267,271
02:15:10.877,,730,295,338
02:15:10.914,,707,197,485
02:15:10.951,,648,115,543
02:15:10.988,,594,-47,516
02:15:11.025,,539,241,665
02:15:11.062,,491,272,720
02:15:11.099,,540,236,831
02:15:11.136,,560,245,874
02:15:11.173,,578,278,898
02:15:11.210,,719,340,960
02:15:11.247,,714,402,761
02:15:11.284,,558,264,716
02:15:11.321,,386,-22,805
02:15:11.358,,518,143,816
02:15:11.395,,498,138,832
02:15:11.432,,477,149,860
02:15:11.469,,376,169,843
02:15:11.506,,389,194,816
02:15:11.543,,360,113,784
02:15:11.581,,445,181,793
02:15:11.618,,432,149,794
02:15:11.655,,464,256,850
02:15:11.692,,548,336,925
02:15:11.729,,547,313,890
02:15:11.766,,480,246,894
02:15:11.803,,425,271,928
02:15:11.840,,365,250,930
02:15:11.877,,405,332,932
02:15:11.914,,402,371,880
02:15:11.951,,326,298,828
02:15:11.988,,352,204,780
02:15:12.025,,452,183,774
02:15:12.062,,518,275,795
02:15:12.099,,557,223,691
02:15:12.136,,518,149,533
02:15:12.173,,477,169,414
02:15:12.210,,475,224,320
02:15:12.247,,581,278,279
02:15:12.284,,826,312,272
02:15:12.321,,1157,371,243
02:15:12.358,,1547,428,151
02:15:12.395,,1634,475,105
02:15:12.432,,1354,452,184
02:15:12.469,,1293,393,152
02:15:12.506,,1198,417,88
02:15:12.543,,954,312,156
02:15:12.580,,768,205,228
02:15:12.617,,718,141,201
02:15:12.654,,789,119,154
02:15:12.692,,892,104,156
02:15:12.729,,929,118,216
02:15:12.766,,898,184,280
02:15:12.803,,859,239,342
02:15:12.840,,827,247,410
02:15:12.877,,778,190,418
02:15:12.914,,764,159,411
02:15:12.951,,813,128,401
02:15:12.988,,909,151,417
02:15:13.025,,1098,206,438
02:15:13.062,,1144,205,417
02:15:13.099,,971,168,323
02:15:13.136,,894,141,271
02:15:13.173,,961,141,252
02:15:13.210,,1037,144,233
02:15:13.247,,975,160,234
02:15:13.284,,872,212,234
02:15:13.321,,877,247,220
02:15:13.358,,927,219,201
02:15:13.395,,951,168,205
02:15:13.432,,944,153,214
02:15:13.469,,930,166,205
02:15:13.506,,933,160,205
02:15:13.543,,908,154,204
02:15:13.580,,894,178,212
02:15:13.617,,933,174,206
02:15:13.654,,925,169,216
02:15:13.691,,914,160,231
02:15:13.728,,897,193,228
02:15:13.765,,903,223,244
02:15:13.802,,919,250,251
02:15:13.839,,939,256,240
02:15:13.876,,984,245,249
02:15:13.913,,1002,233,241
02:15:13.951,,990,219,242
02:15:13.988,,968,219,241
02:15:14.025,,945,214,232
02:15:14.062,,922,200,225
02:15:14.099,,917,198,210
02:15:14.136,,926,197,200
02:15:14.173,,918,201,196
02:15:14.210,,920,211,184
02:15:14.247,,938,225,179
02:15:14.284,,954,230,170
02:15:14.321,,962,238,167
02:15:14.358,,949,250,171
02:15:14.395,,924,256,181
02:15:14.432,,934,260,177
02:15:14.469,,980,256,172
02:15:14.506,,934,259,167
02:15:14.543,,968,253,169
02:15:14.580,,1005,234,168
02:15:14.617,,965,197,170
02:15:14.654,,905,220,187
02:15:14.691,,884,215,218
02:15:14.728,,916,172,237
02:15:14.765,,949,149,246
02:15:14.802,,955,175,240
02:15:14.839,,966,200,236
02:15:14.876,,966,157,231
02:15:14.913,,949,167,217
02:15:14.950,,929,195,203
02:15:14.987,,922,206,202
02:15:15.024,,904,206,201
02:15:15.061,,905,216,203
02:15:15.098,,918,229,220
02:15:15.135,,922,232,238
02:15:15.172,,934,266,262
02:15:15.209,,945,263,288
02:15:15.247,,950,234,307
02:15:15.284,,950,202,302
02:15:15.321,,957,193,232
02:15:15.358,,950,172,210
02:15:15.395,,941,148,205
02:15:15.432,,930,141,219
02:15:15.469,,918,154,234
02:15:15.506,,914,158,232
02:15:15.543,,926,148,227
02:15:15.580,,933,141,233
02:15:15.617,,935,141,226
02:15:15.654,,928,140,217
02:15:15.691,,926,140,214
02:15:15.728,,924,148,220
02:15:15.765,,917,154,226
02:15:15.802,,922,152,231
02:15:15.839,,923,150,237
02:15:15.876,,927,151,243
02:15:15.913,,938,152,246
02:15:15.950,,945,154,267
02:15:15.987,,956,187,295
02:15:16.024,,943,219,290
02:15:16.061,,937,216,272
02:15:16.098,,942,191,253
02:15:16.135,,944,177,231
02:15:16.172,,947,162,208
02:15:16.209,,940,153,210
02:15:16.246,,933,148,227
02:15:16.283,,932,114,263
02:15:16.320,,930,116,301
02:15:16.358,,928,169,315
02:15:16.395,,928,208,301
02:15:16.432,,928,206,284
02:15:16.469,,922,195,268
02:15:16.506,,925,194,271
02:15:16.543,,929,193,281
02:15:16.580,,929,201,285
02:15:16.617,,930,204,325
02:15:16.654,,941,227,404
02:15:16.691,,974,339,505
02:15:16.728,,1030,500,596
02:15:16.765,,1050,620,694
02:15:16.802,,1003,496,742
02:15:16.839,,920,351,574
02:15:16.876,,852,39,501
02:15:16.913,,751,-73,497
02:15:16.950,,662,-61,491
02:15:16.987,,586,-83,466
02:15:17.024,,549,-98,488
02:15:17.061,,538,-120,544
02:15:17.098,,578,-132,632
02:15:17.135,,616,-107,725
02:15:17.172,,663,-94,793
02:15:17.209,,625,-78,785
02:15:17.246,,559,-75,771
02:15:17.283,,501,-55,767
02:15:17.320,,463,-85,743
02:15:17.358,,457,-119,726
02:15:17.395,,475,-67,674
02:15:17.432,,497,37,623
02:15:17.469,,458,86,523
02:15:17.506,,452,96,431
02:15:17.543,,540,175,403
02:15:17.580,,759,284,459
02:15:17.617,,1069,353,545
02:15:17.654,,1312,342,566
02:15:17.691,,1296,178,449
02:15:17.728,,1277,-188,722
02:15:17.765,,1068,1026,665
02:15:17.802,,985,411,442
02:15:17.839,,879,299,290
02:15:17.876,,818,196,213
02:15:17.913,,841,205,204
02:15:17.950,,892,272,217
02:15:17.987,,936,315,242
02:15:18.024,,942,298,247
02:15:18.061,,934,258,247
02:15:18.098,,934,212,274
02:15:18.135,,942,87,350
02:15:18.172,,950,75,348
02:15:18.209,,958,123,373
02:15:18.246,,943,62,348
02:15:18.283,,956,96,312
02:15:18.320,,942,35,315
02:15:18.358,,926,24,302
02:15:18.395,,924,49,281
02:15:18.432,,910,120,271
02:15:18.469,,893,132,266
02:15:18.506,,883,130,262
02:15:18.543,,877,131,263
02:15:18.580,,889,177,292
02:15:18.617,,907,180,318
02:15:18.654,,907,185,299
02:15:18.691,,905,210,281
02:15:18.728,,913,253,280
02:15:18.765,,914,240,281
02:15:18.802,,944,246,297
02:15:18.839,,967,247,286
02:15:18.876,,958,196,302
02:15:18.913,,941,216,300
02:15:18.950,,925,159,299
02:15:18.987,,930,115,307
02:15:19.024,,953,84,301
02:15:19.061,,964,106,274
02:15:19.098,,959,70,252
02:15:19.135,,956,98,235
02:15:19.172,,937,136,228
02:15:19.209,,893,182,236
02:15:19.246,,834,195,228
02:15:19.284,,813,211,217
02:15:19.321,,904,222,198
02:15:19.358,,1013,261,186
02:15:19.395,,1050,307,166
02:15:19.432,,1017,316,166
02:15:19.469,,946,321,190
02:15:19.506,,898,301,190
02:15:19.543,,907,266,187
02:15:19.580,,909,242,190
02:15:19.617,,893,251,197
02:15:19.654,,889,274,203
02:15:19.691,,908,291,210
02:15:19.728,,917,294,218
02:15:19.765,,937,297,230
02:15:19.802,,947,298,235
02:15:19.839,,935,276,238
02:15:19.876,,926,270,249
02:15:19.913,,937,290,253
02:15:19.950,,971,297,257
02:15:19.987,,931,270,265
02:15:20.024,,881,266,244
02:15:20.061,,904,260,231
02:15:20.098,,920,246,215
02:15:20.135,,897,234,191
02:15:20.172,,913,255,171
02:15:20.209,,970,281,161
02:15:20.246,,1010,318,172
02:15:20.283,,961,205,214
02:15:20.320,,897,253,273
02:15:20.358,,820,266,308
02:15:20.395,,792,238,287
02:15:20.432,,802,218,276
02:15:20.469,,989,281,270
02:15:20.506,,958,212,313
02:15:20.543,,947,276,401
02:15:20.580,,869,251,340
02:15:20.617,,895,322,223
02:15:20.654,,900,286,192
02:15:20.691,,862,266,191
02:15:20.728,,840,314,205
02:15:20.765,,873,345,210
02:15:20.802,,914,354,199
02:15:20.839,,914,344,196
02:15:20.876,,938,351,186
02:15:20.913,,956,347,186
02:15:20.950,,933,332,191
02:15:20.987,,920,322,193
02:15:21.024,,892,306,200
02:15:21.061,,867,285,203
02:15:21.098,,869,286,207
02:15:21.135,,887,291,216
02:15:21.172,,897,282,209
02:15:21.209,,906,287,218
02:15:21.246,,922,300,224
02:15:21.283,,917,290,240
02:15:21.320,,923,284,257
02:15:21.357,,957,272,264
02:15:21.395,,1020,269,261
02:15:21.432,,1119,288,273
02:15:21.469,,1011,274,291
02:15:21.506,,843,263,299
02:15:21.543,,840,228,284
02:15:21.580,,907,194,245
02:15:21.617,,919,156,230
02:15:21.654,,888,192,214
02:15:21.691,,899,244,196
02:15:21.728,,949,238,194
02:15:21.765,,965,217,199
02:15:21.802,,938,222,208
02:15:21.839,,864,246,249
02:15:21.876,,809,256,270
02:15:21.913,,812,239,281
02:15:21.950,,828,217,292
02:15:21.987,,825,232,302
02:15:22.024,,847,243,354
02:15:22.061,,877,196,369
02:15:22.098,,926,180,449
02:15:22.135,,926,155,399
02:15:22.172,,1106,269,294
02:15:22.209,,1018,349,254
02:15:22.246,,772,269,196
02:15:22.283,,775,222,182
02:15:22.320,,883,381,150
02:15:22.357,,1005,422,124
02:15:22.394,,1084,341,146
02:15:22.431,,1081,302,163
02:15:22.469,,1004,218,173
02:15:22.506,,896,172,197
02:15:22.543,,847,208,216
02:15:22.580,,847,238,222
02:15:22.617,,877,239,210
02:15:22.654,,943,219,196
02:15:22.691,,993,231,194
02:15:22.728,,979,260,195
02:15:22.765,,967,277,192
02:15:22.802,,971,279,201
02:15:22.839,,979,258,210
02:15:22.876,,971,226,220
02:15:22.913,,951,204,215
02:15:22.950,,934,187,208
02:15:22.987,,922,174,199
02:15:23.024,,914,186,185
02:15:23.061,,916,207,174
02:15:23.098,,898,236,182
02:15:23.135,,873,269,180
02:15:23.172,,891,295,185
02:15:23.209,,890,282,192
02:15:23.246,,907,242,217
02:15:23.283,,924,219,266
02:15:23.320,,936,197,376
02:15:23.357,,933,198,395
02:15:23.394,,917,226,393
02:15:23.431,,916,278,376
02:15:23.468,,922,292,327
02:15:23.505,,922,253,283
02:15:23.543,,909,195,245
02:15:23.580,,908,187,221
02:15:23.617,,917,170,225
02:15:23.654,,938,160,240
02:15:23.691,,951,156,246
02:15:23.728,,964,151,261
02:15:23.765,,953,127,263
02:15:23.802,,944,109,270
02:15:23.839,,917,129,273
02:15:23.876,,892,155,287
02:15:23.913,,889,185,313
02:15:23.950,,882,203,314
02:15:23.987,,871,236,317
02:15:24.024,,866,273,325
02:15:24.061,,843,280,318
02:15:24.098,,837,251,322
02:15:24.135,,860,268,318
02:15:24.172,,943,304,332
02:15:24.209,,927,251,334
02:15:24.246,,930,306,310
02:15:24.283,,932,351,288
02:15:24.320,,942,292,242
02:15:24.357,,912,229,226
02:15:24.394,,891,266,232
02:15:24.431,,925,322,200
02:15:24.468,,949,314,186
02:15:24.505,,904,281,193
02:15:24.542,,866,308,188
02:15:24.580,,888,340,190
02:15:24.617,,915,330,208
02:15:24.654,,922,323,208
02:15:24.691,,900,329,224
02:15:24.728,,874,329,237
02:15:24.765,,860,319,248
02:15:24.802,,870,308,259
02:15:24.839,,895,316,263
02:15:24.876,,926,310,275
02:15:24.913,,972,318,254
02:15:24.950,,1055,321,260
02:15:24.987,,961,297,263
02:15:25.024,,893,268,245
02:15:25.061,,899,221,218
02:15:25.098,,908,168,187
02:15:25.135,,955,171,153
02:15:25.172,,1000,225,147
02:15:25.209,,975,240,161
02:15:25.246,,884,215,168
02:15:25.283,,858,205,169
02:15:25.320,,882,202,177
02:15:25.357,,900,202,181
02:15:25.394,,918,205,193
02:15:25.431,,956,186,209
02:15:25.468,,970,221,292
02:15:25.505,,930,132,301
02:15:25.542,,936,112,271
02:15:25.579,,955,212,257
02:15:25.616,,926,174,255
02:15:25.653,,878,140,232
02:15:25.691,,887,193,203
02:15:25.728,,913,247,177
02:15:25.765,,943,226,181
02:15:25.802,,983,268,187
02:15:25.839,,971,307,201
02:15:25.876,,933,338,203
02:15:25.913,,880,338,208
02:15:25.950,,874,304,210
02:15:25.987,,875,269,212
02:15:26.024,,899,265,210
02:15:26.061,,918,264,204
02:15:26.098,,901,264,206
02:15:26.135,,918,273,225
02:15:26.172,,955,248,219
02:15:26.209,,1122,226,243
02:15:26.246,,1047,236,279
02:15:26.283,,928,283,312
02:15:26.320,,840,222,329
02:15:26.357,,800,144,272
02:15:26.394,,892,103,244
02:15:26.431,,994,109,315
02:15:26.468,,1009,151,298
02:15:26.505,,938,241,276
02:15:26.542,,852,235,255
02:15:26.579,,843,161,246
02:15:26.616,,870,99,261
02:15:26.653,,874,96,281
02:15:26.690,,880,142,305
02:15:26.727,,884,163,304
02:15:26.765,,895,153,285
02:15:26.802,,963,162,269
02:15:26.839,,1025,188,275
02:15:26.876,,916,191,297
02:15:26.913,,883,231,255
02:15:26.950,,906,232,227
02:15:26.987,,881,244,206
02:15:27.024,,1012,155,122
02:15:27.061,,940,354,159
02:15:27.098,,948,388,297
02:15:27.135,,918,302,205
02:15:27.172,,901,105,188
02:15:27.209,,988,38,204
02:15:27.246,,1002,133,171
02:15:27.283,,936,240,156
02:15:27.320,,879,270,177
02:15:27.357,,854,282,227
02:15:27.394,,892,265,214
02:15:27.431,,955,224,203
02:15:27.468,,1011,175,208
02:15:27.505,,1096,152,220
02:15:27.542,,1109,177,221
02:15:27.579,,967,183,247
02:15:27.616,,912,165,231
02:15:27.653,,1002,151,193
02:15:27.690,,1065,166,181
02:15:27.727,,1000,196,191
02:15:27.764,,861,214,233
02:15:27.801,,761,225,231
02:15:27.839,,760,203,207
02:15:27.876,,840,193,186
02:15:27.913,,904,207,204
02:15:27.950,,936,234,223
02:15:27.987,,945,253,217
02:15:28.024,,965,269,187
02:15:28.061,,973,235,201
02:15:28.098,,834,221,204
02:15:28.135,,873,235,188
02:15:28.172,,1034,239,162
02:15:28.209,,1093,228,180
02:15:28.246,,1023,232,195
02:15:28.283,,940,260,224
02:15:28.320,,889,253,231
02:15:28.357,,903,200,223
02:15:28.394,,929,150,221
02:15:28.431,,911,163,218
02:15:28.468,,917,207,214
02:15:28.505,,934,221,207
02:15:28.542,,946,236,201
02:15:28.579,,934,229,215
02:15:28.616,,927,220,232
02:15:28.653,,919,204,257
02:15:28.690,,1002,201,240
02:15:28.727,,1008,194,297
02:15:28.764,,892,208,321
02:15:28.801,,871,192,305
02:15:28.839,,897,161,267
02:15:28.876,,948,158,253
02:15:28.913,,964,187,251
02:15:28.950,,950,239,246
02:15:28.987,,864,260,241
02:15:29.024,,837,254,214
02:15:29.061,,828,227,214
02:15:29.098,,866,212,213
02:15:29.135,,914,198,208
02:15:29.172,,955,189,210
02:15:29.209,,1012,183,201
02:15:29.246,,1016,180,201
02:15:29.283,,963,177,202
02:15:29.320,,960,156,183
02:15:29.357,,962,134,170
02:15:29.394,,971,125,150
02:15:29.431,,960,147,152
02:15:29.468,,993,190,128
02:15:29.505,,950,208,87
02:15:29.542,,925,218,66
02:15:29.579,,892,242,73
02:15:29.616,,895,292,90
02:15:29.653,,900,302,80
02:15:29.690,,969,254,83
02:15:29.727,,1119,193,57
02:15:29.764,,1103,187,47
02:15:29.801,,1025,235,101
02:15:29.839,,952,289,158
02:15:29.876,,940,266,168
02:15:29.913,,907,196,181
02:15:29.950,,904,119,209
02:15:29.987,,935,70,230
02:15:30.024,,951,88,231
02:15:30.061,,966,127,246
02:15:30.098,,949,146,254
02:15:30.135,,884,170,266
02:15:30.172,,850,207,305
02:15:30.209,,842,210,310
02:15:30.246,,858,205,290
02:15:30.283,,869,201,289
02:15:30.320,,898,187,307
02:15:30.357,,927,193,326
02:15:30.394,,952,174,307
02:15:30.431,,937,141,310
02:15:30.468,,909,108,308
02:15:30.505,,900,126,313
02:15:30.542,,871,110,316
02:15:30.579,,899,97,293
02:15:30.616,,1002,161,266
02:15:30.653,,986,222,264
02:15:30.690,,953,340,181
02:15:30.727,,912,416,140
02:15:30.764,,901,463,153
02:15:30.802,,932,496,146
02:15:30.839,,930,479,135
02:15:30.876,,895,439,152
02:15:30.913,,849,411,188
02:15:30.950,,826,417,213
02:15:30.987,,833,395,240
02:15:31.024,,844,369,261
02:15:31.061,,837,348,296
02:15:31.098,,825,339,301
02:15:31.135,,831,329,304
02:15:31.172,,862,310,296
02:15:31.209,,952,326,281
02:15:31.246,,1200,376,285
02:15:31.283,,951,325,385
02:15:31.320,,732,290,343
02:15:31.357,,866,290,275
02:15:31.394,,1022,272,239
02:15:31.431,,974,246,278
02:15:31.468,,824,307,322
02:15:31.505,,728,383,297
02:15:31.542,,715,374,259
02:15:31.579,,730,271,257
02:15:31.616,,717,256,271
02:15:31.653,,763,341,278
02:15:31.690,,890,397,286
02:15:31.727,,900,403,280
02:15:31.765,,936,418,245
02:15:31.802,,1076,484,245
02:15:31.839,,1092,518,262
02:15:31.876,,971,494,174
02:15:31.913,,968,439,158
02:15:31.950,,865,442,176
02:15:31.987,,756,463,176
02:15:32.024,,741,458,157
02:15:32.061,,787,452,145
02:15:32.098,,856,417,148
02:15:32.135,,899,401,171
02:15:32.172,,914,425,183
02:15:32.209,,983,445,191
02:15:32.246,,1046,409,241
02:15:32.283,,1043,343,271
02:15:32.320,,970,340,318
02:15:32.357,,894,334,315
02:15:32.394,,800,289,311
02:15:32.431,,688,267,306
02:15:32.468,,654,316,338
02:15:32.505,,678,341,368
02:15:32.542,,739,412,369
02:15:32.579,,785,423,344
02:15:32.616,,860,415,388
02:15:32.653,,884,364,384
02:15:32.690,,966,385,451
02:15:32.727,,938,352,477
02:15:32.765,,854,353,408
02:15:32.802,,889,401,488
02:15:32.839,,911,488,484
02:15:32.876,,888,537,484
02:15:32.913,,786,560,502
02:15:32.950,,630,596,496
02:15:32.987,,510,595,501
02:15:33.024,,428,590,490
02:15:33.061,,437,643,510
02:15:33.098,,419,653,532
02:15:33.135,,431,693,554
02:15:33.172,,452,748,570
02:15:33.209,,415,655,532
02:15:33.246,,317,566,501
02:15:33.283,,307,568,521
02:15:33.320,,320,567,512
02:15:33.357,,372,613,552
02:15:33.394,,453,673,606
02:15:33.431,,446,626,601
02:15:33.468,,417,578,621
02:15:33.505,,427,590,632
02:15:33.542,,444,555,617
02:15:33.579,,481,527,626
02:15:33.616,,520,553,630
02:15:33.653,,543,551,631
02:15:33.691,,564,521,631
02:15:33.728,,568,485,627
02:15:33.765,,575,476,634
02:15:33.802,,589,484,632
02:15:33.839,,613,497,633
02:15:33.876,,615,502,624
02:15:33.913,,621,525,622
02:15:33.950,,596,511,593
02:15:33.987,,556,462,566
02:15:34.024,,548,467,593
02:15:34.061,,585,507,598
02:15:34.098,,618,526,590
02:15:34.135,,612,570,587
02:15:34.172,,633,612,576
02:15:34.209,,699,592,579
02:15:34.246,,723,538,548
02:15:34.283,,720,518,540
02:15:34.320,,693,506,528
02:15:34.357,,664,465,520
02:15:34.394,,651,444,519
02:15:34.431,,639,437,523
02:15:34.468,,659,447,535
02:15:34.505,,726,464,577
02:15:34.542,,753,463,577
02:15:34.579,,798,456,597
02:15:34.616,,772,437,583
02:15:34.654,,754,416,551
02:15:34.691,,738,381,549
02:15:34.728,,690,320,496
02:15:34.765,,686,301,479
02:15:34.802,,749,327,489
02:15:34.839,,809,356,510
02:15:34.876,,820,375,517
02:15:34.913,,778,358,514
02:15:34.950,,746,322,506
02:15:34.987,,722,276,497
02:15:35.024,,705,282,492
02:15:35.061,,693,302,480
02:15:35.098,,697,299,458
02:15:35.135,,755,292,433
02:15:35.172,,835,264,407
02:15:35.209,,934,254,388
02:15:35.246,,1016,262,387
02:15:35.283,,1043,261,362
02:15:35.320,,1016,254,350
02:15:35.357,,980,217,359
02:15:35.394,,883,146,352
02:15:35.431,,847,185,334
02:15:35.468,,875,238,345
02:15:35.505,,902,250,328
02:15:35.542,,916,276,318
02:15:35.580,,883,322,322
02:15:35.617,,824,336,324
02:15:35.654,,799,322,327
02:15:35.691,,806,294,320
02:15:35.728,,830,275,325
02:15:35.765,,827,273,327
02:15:35.802,,842,305,328
02:15:35.839,,916,312,346
02:15:35.876,,972,291,343
02:15:35.913,,1089,305,345
02:15:35.950,,1094,282,350
02:15:35.987,,935,277,348
02:15:36.024,,836,242,340
02:15:36.061,,810,162,279
02:15:36.098,,932,144,240
02:15:36.135,,1083,78,240
02:15:36.172,,1054,215,227
02:15:36.209,,893,288,254
02:15:36.246,,738,306,305
02:15:36.283,,727,217,311
02:15:36.320,,759,169,317
02:15:36.357,,738,196,331
02:15:36.394,,759,291,346
02:15:36.431,,830,323,384
02:15:36.468,,867,288,377
02:15:36.505,,1016,296,352
02:15:36.542,,849,286,348
02:15:36.580,,670,327,292
02:15:36.617,,897,424,323
02:15:36.654,,1104,466,328
02:15:36.691,,1166,441,262
02:15:36.728,,1025,329,275
02:15:36.765,,852,320,284
02:15:36.802,,775,289,257
02:15:36.839,,812,245,242
02:15:36.876,,884,205,231
02:15:36.913,,911,229,203
02:15:36.950,,889,296,181
02:15:36.987,,850,344,196
02:15:37.024,,842,386,219
02:15:37.061,,953,407,244
02:15:37.098,,992,403,265
02:15:37.135,,1015,386,239
02:15:37.172,,1026,365,240
02:15:37.209,,1026,380,233
02:15:37.246,,882,374,271
02:15:37.283,,760,371,285
02:15:37.320,,766,336,303
02:15:37.357,,807,285,300
02:15:37.394,,885,233,278
02:15:37.431,,1011,237,340
02:15:37.468,,975,298,373
02:15:37.505,,840,347,392
02:15:37.542,,716,344,403
02:15:37.579,,693,307,380
02:15:37.616,,734,308,358
02:15:37.653,,790,321,354
02:15:37.691,,777,341,340
02:15:37.728,,860,382,335
02:15:37.765,,976,338,309
02:15:37.802,,969,410,315
02:15:37.839,,905,532,224
02:15:37.876,,1000,298,157
02:15:37.913,,953,49,153
02:15:37.950,,1019,443,266
02:15:37.987,,1030,619,228
02:15:38.024,,969,410,170
02:15:38.061,,856,208,179
02:15:38.098,,774,215,172
02:15:38.135,,757,320,173
02:15:38.172,,793,372,189
02:15:38.209,,802,342,210
02:15:38.246,,776,319,219
02:15:38.283,,779,339,238
02:15:38.320,,860,347,271
02:15:38.357,,966,329,291
02:15:38.394,,1061,326,305
02:15:38.431,,1143,360,343
02:15:38.468,,1043,361,394
02:15:38.505,,832,334,408
02:15:38.542,,742,245,365
02:15:38.579,,804,201,282
02:15:38.616,,986,222,273
02:15:38.654,,1098,287,282
02:15:38.691,,1000,337,266
02:15:38.728,,836,399,291
02:15:38.765,,746,346,283
02:15:38.802,,737,275,293
02:15:38.839,,770,235,312
02:15:38.876,,802,227,339
02:15:38.913,,808,246,363
02:15:38.950,,792,244,380
02:15:38.987,,820,246,406
02:15:39.024,,899,238,415
02:15:39.061,,899,209,380
02:15:39.098,,848,242,352
02:15:39.135,,822,335,356
02:15:39.172,,853,478,332
02:15:39.209,,916,574,383
02:15:39.246,,828,550,340
02:15:39.283,,902,475,261
02:15:39.320,,1101,444,260
02:15:39.357,,1171,404,230
02:15:39.394,,1043,330,207
02:15:39.431,,915,293,201
02:15:39.468,,869,258,190
02:15:39.505,,863,225,200
02:15:39.542,,847,190,231
02:15:39.579,,770,179,246
02:15:39.617,,761,213,257
02:15:39.654,,830,231,313
02:15:39.691,,818,237,354
02:15:39.728,,948,242,378
02:15:39.765,,1092,249,396
02:15:39.802,,1058,247,414
02:15:39.839,,903,230,400
02:15:39.876,,895,240,353
02:15:39.913,,974,228,326
02:15:39.950,,927,260,317
02:15:39.987,,769,363,323
02:15:40.024,,665,422,353
02:15:40.061,,633,413,351
02:15:40.098,,643,363,370
02:15:40.135,,637,368,383
02:15:40.172,,624,400,420
02:15:40.209,,728,425,432
02:15:40.246,,901,413,446
02:15:40.283,,950,363,447
02:15:40.320,,935,356,423
02:15:40.357,,1100,432,387
02:15:40.394,,1110,429,356
02:15:40.431,,891,416,272
02:15:40.468,,981,376,212
02:15:40.505,,1021,310,214
02:15:40.542,,882,224,195
02:15:40.579,,801,197,153
02:15:40.616,,803,218,185
02:15:40.653,,845,263,188
02:15:40.690,,896,232,152
02:15:40.728,,897,212,173
02:15:40.765,,909,279,180
02:15:40.802,,954,283,193
02:15:40.839,,949,255,223
02:15:40.876,,1014,249,251
02:15:40.913,,1042,245,276
02:15:40.950,,1061,224,305
02:15:40.987,,1032,192,326
02:15:41.024,,1023,162,316
02:15:41.061,,929,152,341
02:15:41.098,,745,188,379
02:15:41.135,,704,234,431
02:15:41.172,,761,221,434
02:15:41.209,,844,174,411
02:15:41.246,,902,142,444
02:15:41.283,,893,129,494
02:15:41.320,,832,25,489
02:15:41.357,,771,-140,479
02:15:41.394,,726,-253,454
02:15:41.431,,781,-255,399
02:15:41.468,,870,-220,370
02:15:41.505,,854,-120,358
02:15:41.542,,858,39,321
02:15:41.579,,834,142,315
02:15:41.616,,920,156,276
02:15:41.653,,1064,182,150
02:15:41.690,,1275,226,167
02:15:41.727,,1258,395,115
02:15:41.765,,1270,447,134
02:15:41.802,,1140,347,200
02:15:41.839,,1030,343,260
02:15:41.876,,982,377,384
02:15:41.913,,941,339,434
02:15:41.950,,915,271,471
02:15:41.987,,829,217,495
02:15:42.024,,785,234,515
02:15:42.061,,784,229,486
02:15:42.098,,822,205,435
02:15:42.135,,871,155,408
02:15:42.172,,852,101,356
02:15:42.209,,791,43,273
02:15:42.246,,685,5,231
02:15:42.283,,622,16,164
02:15:42.320,,680,52,109
02:15:42.357,,811,98,41
02:15:42.394,,991,195,-26
02:15:42.431,,1097,221,42
02:15:42.468,,1346,276,221
02:15:42.505,,1505,227,219
02:15:42.542,,1344,203,36
02:15:42.579,,1003,93,93
02:15:42.616,,798,52,331
02:15:42.653,,676,173,400
02:15:42.690,,576,256,332
02:15:42.727,,588,204,361
02:15:42.765,,603,105,433
02:15:42.802,,654,87,451
02:15:42.839,,865,86,441
02:15:42.876,,1133,24,336
02:15:42.913,,1121,-3,172
02:15:42.950,,1352,131,254
02:15:42.987,,1860,350,204
02:15:43.024,,1681,463,18
02:15:43.061,,1433,269,-28
02:15:43.098,,1243,154,84
02:15:43.135,,1040,203,64
02:15:43.172,,926,198,-5
02:15:43.209,,833,174,-44
02:15:43.246,,754,102,-16
02:15:43.283,,664,106,51
02:15:43.320,,691,198,124
02:15:43.357,,805,313,324
02:15:43.394,,944,685,469
02:15:43.431,,1056,1152,510
02:15:43.468,,565,1224,624
02:15:43.505,,477,1280,564
02:15:43.542,,473,1111,443
02:15:43.579,,317,827,229
02:15:43.616,,128,669,161
02:15:43.653,,87,598,26
02:15:43.690,,243,613,45
02:15:43.727,,349,684,-122
02:15:43.764,,263,796,-306
02:15:43.802,,123,859,-242
02:15:43.839,,154,920,-104
02:15:43.876,,475,887,1933
02:15:43.913,,-271,636,1054
02:15:43.950,,-577,1042,52
02:15:43.987,,-508,1065,-79
02:15:44.024,,-265,770,86
02:15:44.061,,3,932,285
02:15:44.098,,47,1141,272
02:15:44.135,,-32,962,212
02:15:44.172,,-89,849,246
02:15:44.209,,-91,887,375
02:15:44.246,,-92,871,430
02:15:44.283,,-103,824,399
02:15:44.320,,-106,831,336
02:15:44.357,,-91,884,264
02:15:44.394,,-73,820,283
02:15:44.431,,-195,842,248
02:15:44.468,,-201,791,341
02:15:44.505,,-69,712,480
02:15:44.542,,132,734,549
02:15:44.579,,179,586,479
02:15:44.616,,225,522,423
02:15:44.653,,332,512,360
02:15:44.690,,495,570,329
02:15:44.727,,629,602,314
02:15:44.764,,814,720,235
02:15:44.801,,906,675,115
02:15:44.839,,997,689,65
02:15:44.876,,1111,795,174
02:15:44.913,,1123,625,215
02:15:44.950,,1153,387,253
02:15:44.987,,1224,130,399
02:15:45.024,,1170,-80,454
02:15:45.061,,1096,-96,429
02:15:45.098,,1058,-49,437
02:15:45.135,,986,2,455
02:15:45.172,,975,-98,277
02:15:45.209,,963,-272,145
02:15:45.246,,1070,-227,112
02:15:45.283,,1132,39,80
02:15:45.320,,1100,289,24
02:15:45.357,,1003,466,-5
02:15:45.394,,937,468,32
02:15:45.431,,915,346,31
02:15:45.468,,878,280,57
02:15:45.505,,890,275,87
02:15:45.542,,887,293,108
02:15:45.579,,885,328,144
02:15:45.616,,926,356,169
02:15:45.653,,940,362,207
02:15:45.690,,927,389,240
02:15:45.727,,927,367,312
02:15:45.764,,877,368,339
02:15:45.801,,829,394,369
02:15:45.838,,802,396,378
02:15:45.875,,727,387,345
02:15:45.912,,756,438,328
02:15:45.950,,830,490,314
02:15:45.987,,837,531,300
02:15:46.024,,782,556,289
02:15:46.061,,743,547,278
02:15:46.098,,688,487,255
02:15:46.135,,627,421,240
02:15:46.172,,632,410,239
02:15:46.209,,728,447,254
02:15:46.246,,915,517,293
02:15:46.283,,1004,516,279
02:15:46.320,,968,491,293
02:15:46.357,,853,453,344
02:15:46.394,,728,467,342
02:15:46.431,,679,451,335
02:15:46.468,,708,462,344
02:15:46.505,,752,446,331
02:15:46.542,,820,448,320
02:15:46.579,,915,468,285
02:15:46.616,,955,469,217
02:15:46.653,,936,467,189
02:15:46.690,,936,458,181
02:15:46.727,,906,426,152
02:15:46.764,,873,410,140
02:15:46.801,,869,387,137
02:15:46.838,,869,371,137
02:15:46.875,,870,354,135
02:15:46.912,,873,334,154
02:15:46.949,,970,304,167
02:15:46.987,,1057,278,186
02:15:47.024,,1172,243,198
02:15:47.061,,1112,213,272
02:15:47.098,,860,191,386
02:15:47.135,,768,165,417
02:15:47.172,,827,65,338
02:15:47.209,,904,-32,269
02:15:47.246,,934,-56,298
02:15:47.283,,915,41,364
02:15:47.320,,877,140,371
02:15:47.357,,832,165,338
02:15:47.394,,809,106,353
02:15:47.431,,829,149,363
02:15:47.468,,844,127,349
02:15:47.505,,877,114,385
02:15:47.542,,943,153,386
02:15:47.579,,981,124,341
02:15:47.616,,988,67,310
02:15:47.653,,1020,86,295
02:15:47.690,,974,106,255
02:15:47.727,,903,148,228
02:15:47.764,,957,176,207
02:15:47.801,,1048,187,171
02:15:47.838,,1074,207,147
02:15:47.875,,1080,219,160
02:15:47.912,,1013,215,170
02:15:47.949,,904,171,152
02:15:47.986,,891,177,157
02:15:48.024,,919,210,169
02:15:48.061,,927,264,198
02:15:48.098,,941,299,229
02:15:48.135,,935,310,260
02:15:48.172,,880,310,284
02:15:48.209,,860,300,308
02:15:48.246,,896,283,312
02:15:48.283,,925,257,279
02:15:48.320,,936,255,280
02:15:48.357,,928,273,303
02:15:48.394,,868,284,327
02:15:48.431,,858,268,345
02:15:48.468,,871,236,350
02:15:48.505,,891,210,350
02:15:48.542,,884,205,370
02:15:48.579,,877,227,381
02:15:48.616,,883,229,378
02:15:48.653,,889,205,390
02:15:48.690,,882,183,391
02:15:48.727,,859,183,409
02:15:48.764,,817,182,437
02:15:48.801,,791,186,456
02:15:48.838,,795,195,464
02:15:48.875,,793,222,496
02:15:48.912,,779,255,518
02:15:48.949,,751,277,527
02:15:48.986,,736,285,511
02:15:49.023,,731,295,497
02:15:49.060,,724,311,479
02:15:49.097,,745,327,455
02:15:49.135,,839,341,430
02:15:49.172,,936,337,407
02:15:49.209,,919,325,381
02:15:49.246,,884,322,348
02:15:49.283,,905,315,324
02:15:49.320,,923,275,291
02:15:49.357,,960,263,284
02:15:49.394,,1050,276,269
02:15:49.431,,1103,245,234
02:15:49.468,,1064,204,204
02:15:49.505,,1006,204,184
02:15:49.542,,973,213,157
02:15:49.579,,955,216,132
02:15:49.616,,929,231,121
02:15:49.653,,903,249,114
02:15:49.690,,900,260,113
02:15:49.727,,931,260,110
02:15:49.764,,999,240,107
02:15:49.801,,958,236,127
02:15:49.838,,958,231,170
02:15:49.875,,969,205,214
02:15:49.912,,953,165,229
02:15:49.949,,908,128,253
02:15:49.986,,844,121,311
02:15:50.023,,887,139,328
02:15:50.060,,939,114,314
02:15:50.097,,898,89,290
02:15:50.134,,873,134,306
02:15:50.171,,891,171,336
02:15:50.208,,905,248,353
02:15:50.246,,894,315,332
02:15:50.283,,878,216,335
02:15:50.320,,906,208,350
02:15:50.357,,932,205,361
02:15:50.394,,922,192,358
02:15:50.431,,898,170,353
02:15:50.468,,935,182,340
02:15:50.505,,947,169,307
02:15:50.542,,986,178,271
02:15:50.579,,1055,192,259
02:15:50.616,,995,222,210
02:15:50.653,,1004,251,179
02:15:50.690,,1021,261,168
02:15:50.727,,1035,251,156
02:15:50.764,,1034,248,138
02:15:50.801,,1031,242,123
02:15:50.838,,982,234,106
02:15:50.875,,978,234,110
02:15:50.912,,968,233,117
02:15:50.949,,890,231,123
02:15:50.986,,833,228,128
02:15:51.023,,834,224,145
02:15:51.060,,832,222,155
02:15:51.097,,862,211,163
02:15:51.134,,901,205,177
02:15:51.171,,938,205,187
02:15:51.208,,967,211,203
02:15:51.245,,976,220,230
02:15:51.282,,992,217,258
02:15:51.320,,1019,189,263
02:15:51.357,,1056,169,257
02:15:51.394,,1052,159,259
02:15:51.431,,1025,186,269
02:15:51.468,,961,208,277
02:15:51.505,,880,218,276
02:15:51.542,,873,205,267
02:15:51.579,,899,166,254
02:15:51.616,,883,156,239
02:15:51.653,,871,173,241
02:15:51.690,,888,180,240
02:15:51.727,,940,162,248
02:15:51.764,,969,145,268
02:15:51.801,,944,131,332
02:15:51.838,,885,145,382
02:15:51.875,,822,160,467
02:15:51.912,,799,261,453
02:15:51.949,,841,259,398
02:15:51.986,,907,224,345
02:15:52.023,,934,174,305
02:15:52.060,,922,182,290
02:15:52.097,,893,178,270
02:15:52.134,,870,133,258
02:15:52.171,,869,196,244
02:15:52.208,,872,230,246
02:15:52.245,,900,249,247
02:15:52.282,,929,281,262
02:15:52.319,,943,310,275
02:15:52.356,,990,289,292
02:15:52.394,,1000,264,277
02:15:52.431,,1067,207,233
02:15:52.468,,1057,163,185
02:15:52.505,,1039,176,184
02:15:52.542,,1089,211,188
02:15:52.579,,1095,233,153
02:15:52.616,,1085,213,129
02:15:52.653,,1035,186,118
02:15:52.690,,871,202,117
02:15:52.727,,774,230,127
02:15:52.764,,735,237,131
02:15:52.801,,771,215,141
02:15:52.838,,816,185,140
02:15:52.875,,871,184,148
02:15:52.912,,905,208,168
02:15:52.949,,938,240,181
02:15:52.986,,1003,238,198
02:15:53.023,,1083,237,222
02:15:53.060,,1167,226,260
02:15:53.097,,1200,206,262
02:15:53.134,,1184,189,247
02:15:53.171,,1130,210,259
02:15:53.208,,1013,252,305
02:15:53.245,,854,219,326
02:15:53.282,,756,153,302
02:15:53.319,,822,99,244
02:15:53.357,,1074,55,236
02:15:53.394,,1240,47,236
02:15:53.431,,1143,110,288
02:15:53.468,,998,166,337
02:15:53.505,,900,154,327
02:15:53.542,,816,96,294
02:15:53.579,,734,22,282
02:15:53.616,,651,-11,280
02:15:53.653,,600,31,285
02:15:53.690,,663,91,296
02:15:53.727,,820,125,293
02:15:53.764,,1014,141,261
02:15:53.801,,1155,215,248
02:15:53.838,,1369,476,303
02:15:53.875,,1195,535,273
02:15:53.912,,940,384,224
02:15:53.949,,962,320,291
02:15:53.986,,978,297,309
02:15:54.023,,941,249,265
02:15:54.060,,877,178,252
02:15:54.097,,856,198,248
02:15:54.134,,862,233,221
02:15:54.171,,868,243,222
02:15:54.208,,863,231,227
02:15:54.245,,849,208,205
02:15:54.282,,846,204,185
02:15:54.320,,883,211,183
02:15:54.357,,947,224,178
02:15:54.394,,1026,240,177
02:15:54.431,,1191,254,187
02:15:54.468,,1333,258,212
02:15:54.505,,959,232,334
02:15:54.542,,668,185,407
02:15:54.579,,765,119,309
02:15:54.616,,1062,6,167
02:15:54.653,,1083,-47,177
02:15:54.690,,948,56,324
02:15:54.727,,804,187,447
02:15:54.764,,707,228,396
02:15:54.801,,693,146,317
02:15:54.838,,729,11,319
02:15:54.875,,729,44,332
02:15:54.912,,770,92,355
02:15:54.949,,879,158,386
02:15:54.986,,995,201,386
02:15:55.023,,966,163,328
02:15:55.060,,1014,167,269
02:15:55.097,,1183,242,287
02:15:55.134,,1126,319,317
02:15:55.171,,978,352,288
02:15:55.209,,1065,259,246
02:15:55.246,,1269,114,190
02:15:55.283,,1266,75,177
02:15:55.320,,1120,91,189
02:15:55.357,,975,149,193
02:15:55.394,,887,173,178
02:15:55.431,,796,168,155
02:15:55.468,,738,157,151
02:15:55.505,,678,162,147
02:15:55.542,,651,190,151
02:15:55.579,,704,206,165
02:15:55.616,,780,214,191
02:15:55.653,,869,225,225
02:15:55.690,,1034,218,238
02:15:55.727,,1207,186,224
02:15:55.764,,1453,179,175
02:15:55.801,,1502,209,228
02:15:55.838,,959,277,329
02:15:55.875,,669,259,308
02:15:55.912,,762,186,199
02:15:55.949,,1019,120,84
02:15:55.986,,1120,132,99
02:15:56.023,,919,254,238
02:15:56.060,,755,366,345
02:15:56.097,,724,365,320
02:15:56.134,,806,236,297
02:15:56.172,,880,35,328
02:15:56.209,,864,-153,408
02:15:56.246,,906,39,427
02:15:56.283,,992,-30,494
02:15:56.320,,991,-25,446
02:15:56.357,,903,144,264
02:15:56.394,,869,196,242
02:15:56.431,,961,214,236
02:15:56.468,,1158,317,285
02:15:56.505,,1023,364,331
02:15:56.542,,1056,329,231
02:15:56.579,,1246,204,151
02:15:56.616,,1349,94,125
02:15:56.653,,1256,45,149
02:15:56.690,,1055,95,172
02:15:56.727,,921,150,168
02:15:56.764,,814,173,145
02:15:56.801,,731,173,131
02:15:56.838,,679,162,126
02:15:56.875,,610,183,117
02:15:56.912,,602,215,121
02:15:56.949,,666,230,154
02:15:56.986,,762,256,194
02:15:57.023,,901,281,229
02:15:57.060,,1107,287,276
02:15:57.097,,1249,244,263
02:15:57.134,,1313,178,218
02:15:57.172,,1340,183,233
02:15:57.209,,1450,244,196
02:15:57.246,,988,302,252
02:15:57.283,,691,316,285
02:15:57.320,,677,348,269
02:15:57.357,,890,283,197
02:15:57.394,,1139,148,164
02:15:57.431,,1112,180,167
02:15:57.468,,918,302,280
02:15:57.505,,836,389,320
02:15:57.542,,892,303,279
02:15:57.579,,955,-212,368
02:15:57.616,,876,-197,281
02:15:57.653,,920,-274,321
02:15:57.690,,990,-203,291
02:15:57.727,,1016,90,236
02:15:57.764,,920,381,158
02:15:57.801,,875,343,140
02:15:57.838,,965,205,156
02:15:57.875,,986,215,188
02:15:57.912,,858,314,201
02:15:57.949,,891,382,186
02:15:57.986,,995,322,170
02:15:58.023,,1087,200,150
02:15:58.060,,1179,133,167
02:15:58.097,,1177,141,166
02:15:58.134,,1040,158,165
02:15:58.172,,878,175,179
02:15:58.209,,797,196,181
02:15:58.246,,797,184,169
02:15:58.283,,818,166,160
02:15:58.320,,834,169,170
02:15:58.357,,887,189,170
02:15:58.394,,933,210,155
02:15:58.431,,944,225,147
02:15:58.468,,937,252,174
02:15:58.505,,973,282,204
02:15:58.542,,994,257,197
02:15:58.579,,1066,213,191
02:15:58.616,,1069,205,216
02:15:58.653,,930,243,248
02:15:58.690,,909,245,251
02:15:58.727,,943,202,233
02:15:58.764,,928,151,211
02:15:58.801,,922,132,229
02:15:58.838,,1088,-21,313
02:15:58.875,,1059,-49,368
02:15:58.912,,929,-39,334
02:15:58.949,,848,122,293
02:15:58.986,,845,151,231
02:15:59.023,,871,175,180
02:15:59.060,,876,164,158
02:15:59.097,,865,142,171
02:15:59.135,,861,185,191
02:15:59.172,,856,194,213
02:15:59.209,,899,197,223
02:15:59.246,,905,193,205
02:15:59.283,,914,199,199
02:15:59.320,,938,231,225
02:15:59.357,,897,258,239
02:15:59.394,,1017,273,250
02:15:59.431,,1135,250,300
02:15:59.468,,1001,221,327
02:15:59.505,,1008,221,261
02:15:59.542,,1138,78,169
02:15:59.579,,1228,45,95
02:15:59.616,,1209,124,95
02:15:59.653,,1123,207,97
02:15:59.690,,1001,236,90
02:15:59.727,,910,246,81
02:15:59.764,,852,237,63
02:15:59.801,,780,220,50
02:15:59.838,,731,216,51
02:15:59.875,,733,235,55
02:15:59.912,,785,261,64
02:15:59.949,,830,301,100
02:15:59.986,,906,347,149
02:16:00.023,,1014,378,164
02:16:00.061,,1080,376,146
02:16:00.098,,1127,338,135
02:16:00.135,,1185,326,187
02:16:00.172,,1203,346,202
02:16:00.209,,978,345,227
02:16:00.246,,784,319,266
02:16:00.283,,777,280,266
02:16:00.320,,850,233,184
02:16:00.357,,955,193,141
02:16:00.394,,964,204,144
02:16:00.431,,923,271,170
02:16:00.468,,940,295,221
02:16:00.505,,991,264,239
02:16:00.542,,1022,204,251
02:16:00.579,,946,127,280
02:16:00.616,,841,90,377
02:16:00.653,,780,181,446
02:16:00.690,,790,313,352
02:16:00.727,,844,319,275
02:16:00.764,,895,267,255
02:16:00.801,,894,242,246
02:16:00.838,,915,202,285
02:16:00.875,,900,257,304
02:16:00.912,,878,252,318
02:16:00.949,,863,202,314
02:16:00.986,,868,155,289
02:16:01.023,,967,156,259
02:16:01.060,,1138,211,263
02:16:01.097,,1169,238,275
02:16:01.135,,986,228,287
02:16:01.172,,929,180,280
02:16:01.209,,991,138,247
02:16:01.246,,1103,102,197
02:16:01.283,,1083,109,186
02:16:01.320,,1015,145,180
02:16:01.357,,899,177,183
02:16:01.394,,842,197,177
02:16:01.431,,797,215,162
02:16:01.468,,774,190,155
02:16:01.505,,781,167,158
02:16:01.542,,873,171,162
02:16:01.579,,947,178,163
02:16:01.616,,1042,211,162
02:16:01.653,,1276,221,163
02:16:01.690,,1085,228,249
02:16:01.727,,957,228,361
02:16:01.764,,946,159,366
02:16:01.801,,875,66,224
02:16:01.838,,915,28,166
02:16:01.875,,1008,103,214
02:16:01.912,,985,221,310
02:16:01.949,,843,260,398
02:16:01.986,,776,243,365
02:16:02.023,,838,176,330
02:16:02.060,,896,42,301
02:16:02.098,,959,42,347
02:16:02.135,,959,117,413
02:16:02.172,,921,113,394
02:16:02.209,,864,128,302
02:16:02.246,,857,96,254
02:16:02.283,,913,119,242
02:16:02.320,,955,178,238
02:16:02.357,,889,232,272
02:16:02.394,,860,282,276
02:16:02.431,,933,297,273
02:16:02.468,,993,244,273
02:16:02.505,,954,213,275
02:16:02.542,,905,243,266
02:16:02.579,,934,281,259
02:16:02.616,,977,255,225
02:16:02.653,,1016,240,190
02:16:02.690,,1062,264,189
02:16:02.727,,1047,266,164
02:16:02.764,,984,234,145
02:16:02.801,,921,221,144
02:16:02.838,,877,233,141
02:16:02.875,,846,227,145
02:16:02.912,,837,212,162
02:16:02.949,,838,199,191
02:16:02.986,,1139,173,173
02:16:03.023,,551,192,304
02:16:03.061,,1021,312,328
02:16:03.098,,1116,210,353
02:16:03.135,,1195,159,333
02:16:03.172,,1107,49,326
02:16:03.209,,959,195,347
02:16:03.246,,885,210,267
02:16:03.283,,809,165,253
02:16:03.320,,803,129,191
02:16:03.357,,929,130,138
02:16:03.394,,1031,189,115
02:16:03.431,,982,241,153
02:16:03.468,,832,276,209
02:16:03.505,,760,287,213
02:16:03.542,,772,215,206
02:16:03.579,,771,148,207
02:16:03.616,,765,128,234
02:16:03.653,,851,167,279
02:16:03.690,,971,176,279
02:16:03.727,,1273,195,248
02:16:03.764,,1114,166,188
02:16:03.801,,962,226,130
02:16:03.838,,1035,232,112
02:16:03.875,,1079,239,103
02:16:03.912,,1054,179,86
02:16:03.949,,975,144,64
02:16:03.986,,933,134,36
02:16:04.023,,937,43,22
02:16:04.061,,930,15,26
02:16:04.098,,926,129,38
02:16:04.135,,946,246,33
02:16:04.172,,957,326,17
02:16:04.209,,971,305,36
02:16:04.246,,956,251,79
02:16:04.283,,949,232,109
02:16:04.320,,960,245,110
02:16:04.357,,992,270,96
02:16:04.394,,1013,263,110
02:16:04.431,,958,264,151
02:16:04.468,,916,239,183
02:16:04.505,,923,182,185
02:16:04.542,,956,136,155
02:16:04.579,,961,158,158
02:16:04.616,,927,248,167
02:16:04.653,,875,291,171
02:16:04.690,,884,243,165
02:16:04.727,,911,172,163
02:16:04.764,,928,126,190
02:16:04.801,,939,167,305
02:16:04.838,,905,166,365
02:16:04.875,,840,220,358
02:16:04.912,,818,287,310
02:16:04.949,,832,323,264
02:16:04.986,,833,325,263
02:16:05.023,,842,322,262
02:16:05.061,,838,350,249
02:16:05.098,,848,371,261
02:16:05.135,,932,292,270
02:16:05.172,,1124,265,293
02:16:05.209,,1157,230,243
02:16:05.246,,994,174,167
02:16:05.283,,928,99,104
02:16:05.320,,921,104,103
02:16:05.357,,923,266,92
02:16:05.394,,927,32,49
02:16:05.431,,937,262,130
02:16:05.468,,934,246,128
02:16:05.505,,933,252,106
02:16:05.542,,964,220,97
02:16:05.579,,1014,219,101
02:16:05.616,,1035,230,91
02:16:05.653,,1001,223,88
02:16:05.690,,939,222,104
02:16:05.727,,895,222,102
02:16:05.764,,898,212,114
02:16:05.801,,910,202,125
02:16:05.838,,923,210,134
02:16:05.875,,964,221,149
02:16:05.912,,1001,225,171
02:16:05.949,,1031,216,196
02:16:05.986,,1075,193,193
02:16:06.023,,1176,170,168
02:16:06.060,,1018,153,190
02:16:06.097,,803,194,215
02:16:06.135,,830,225,234
02:16:06.172,,871,213,212
02:16:06.209,,908,196,197
02:16:06.246,,916,217,229
02:16:06.283,,838,247,241
02:16:06.320,,806,236,225
02:16:06.357,,840,208,222
02:16:06.394,,919,190,248
02:16:06.431,,949,195,279
02:16:06.468,,934,212,309
02:16:06.505,,889,201,349
02:16:06.542,,854,173,365
02:16:06.579,,844,128,346
02:16:06.616,,868,109,292
02:16:06.653,,970,159,270
02:16:06.690,,1107,229,257
02:16:06.727,,1096,273,249
02:16:06.764,,1032,289,186
02:16:06.801,,1021,249,127
02:16:06.838,,1035,217,88
02:16:06.875,,1106,207,64
02:16:06.912,,1166,176,29
02:16:06.949,,1084,19,-50
02:16:06.986,,910,-50,-84
02:16:07.023,,807,34,-17
02:16:07.060,,814,121,32
02:16:07.097,,900,133,35
02:16:07.135,,984,115,54
02:16:07.172,,971,127,81
02:16:07.209,,960,182,103
02:16:07.246,,963,239,99
02:16:07.283,,966,272,100
02:16:07.320,,1022,280,85
02:16:07.357,,1196,316,54
02:16:07.394,,1220,323,89
02:16:07.431,,923,300,231
02:16:07.468,,810,262,315
02:16:07.505,,821,179,245
02:16:07.542,,884,-2,118
02:16:07.579,,1008,-245,172
02:16:07.616,,1135,-164,294
02:16:07.653,,1056,-73,300
02:16:07.690,,906,-76,324
02:16:07.727,,803,47,285
02:16:07.764,,786,172,229
02:16:07.801,,856,191,225
02:16:07.838,,893,238,203
02:16:07.875,,888,274,222
02:16:07.912,,906,282,259
02:16:07.949,,972,222,346
02:16:07.986,,1031,175,376
02:16:08.023,,1050,210,366
02:16:08.060,,1117,236,311
02:16:08.097,,1200,199,226
02:16:08.135,,1134,101,145
02:16:08.172,,938,16,143
02:16:08.209,,862,123,132
02:16:08.246,,938,233,90
02:16:08.283,,1053,278,48
02:16:08.320,,1040,254,33
02:16:08.357,,1008,226,52
02:16:08.394,,963,231,56
02:16:08.431,,899,253,75
02:16:08.468,,900,232,95
02:16:08.505,,878,207,110
02:16:08.542,,863,178,146
02:16:08.579,,873,164,188
02:16:08.616,,904,165,228
02:16:08.653,,920,185,280
02:16:08.690,,934,179,301
02:16:08.727,,980,188,331
02:16:08.764,,872,220,427
02:16:08.801,,817,218,457
02:16:08.838,,884,246,392
02:16:08.875,,902,143,387
02:16:08.912,,889,119,374
02:16:08.949,,972,248,380
02:16:08.986,,1026,399,360
02:16:09.023,,986,430,297
02:16:09.060,,888,354,268
02:16:09.097,,827,274,238
02:16:09.134,,826,261,221
02:16:09.172,,865,276,212
02:16:09.209,,899,236,207
02:16:09.246,,930,280,193
02:16:09.283,,978,261,186
02:16:09.320,,982,229,170
02:16:09.357,,965,186,158
02:16:09.394,,929,176,149
02:16:09.431,,946,200,140
02:16:09.468,,975,198,155
02:16:09.505,,921,202,158
02:16:09.542,,921,205,140
02:16:09.579,,914,186,129
02:16:09.616,,898,184,128
02:16:09.653,,973,223,130
02:16:09.690,,1094,238,108
02:16:09.727,,1011,218,97
02:16:09.764,,876,256,162
02:16:09.801,,865,290,229
02:16:09.838,,911,254,249
02:16:09.875,,936,192,266
02:16:09.912,,927,128,268
02:16:09.949,,909,101,250
02:16:09.986,,901,135,233
02:16:10.023,,923,191,248
02:16:10.060,,988,223,256
02:16:10.097,,1060,224,257
02:16:10.134,,1126,192,229
02:16:10.171,,1151,212,205
02:16:10.208,,1079,230,246
02:16:10.245,,892,222,289
02:16:10.282,,710,202,284
02:16:10.320,,668,188,244
02:16:10.357,,805,157,227
02:16:10.394,,1025,129,248
02:16:10.431,,1097,142,282
02:16:10.468,,999,196,310
02:16:10.505,,898,193,350
02:16:10.542,,857,136,348
02:16:10.579,,817,59,324
02:16:10.616,,791,21,304
02:16:10.653,,764,66,307
02:16:10.690,,717,145,307
02:16:10.727,,765,207,329
02:16:10.764,,861,225,355
02:16:10.801,,953,180,353
02:16:10.838,,1036,112,335
02:16:10.875,,1118,65,319
02:16:10.912,,1163,96,325
02:16:10.949,,967,162,325
02:16:10.986,,902,239,290
02:16:11.023,,914,261,315
02:16:11.060,,905,242,293
02:16:11.097,,914,228,230
02:16:11.134,,990,328,164
02:16:11.171,,1102,416,96
02:16:11.208,,1175,312,83
02:16:11.245,,1072,-20,129
02:16:11.282,,890,-87,148
02:16:11.320,,794,21,143
02:16:11.357,,795,76,175
02:16:11.394,,815,85,133
02:16:11.431,,896,116,67
02:16:11.468,,981,106,117
02:16:11.505,,987,244,27
02:16:11.542,,972,381,54
02:16:11.579,,976,436,164
02:16:11.616,,971,423,249
02:16:11.653,,959,330,249
02:16:11.690,,959,231,201
02:16:11.727,,1019,117,187
02:16:11.764,,955,60,206
02:16:11.801,,844,105,218
02:16:11.838,,830,178,227
02:16:11.875,,910,234,226
02:16:11.912,,1010,239,243
02:16:11.949,,986,210,276
02:16:11.986,,934,211,280
02:16:12.023,,967,208,292
02:16:12.060,,997,180,317
02:16:12.097,,995,82,358
02:16:12.134,,923,87,390
02:16:12.171,,865,159,386
02:16:12.208,,875,190,379
02:16:12.245,,904,196,346
02:16:12.282,,916,152,305
02:16:12.319,,905,80,292
02:16:12.356,,874,140,282
02:16:12.394,,861,178,275
02:16:12.431,,866,161,243
02:16:12.468,,849,160,215
02:16:12.505,,891,199,205
02:16:12.542,,988,266,211
02:16:12.579,,1034,321,213
02:16:12.616,,1016,338,208
02:16:12.653,,1076,293,202
02:16:12.690,,1020,198,173
02:16:12.727,,1015,146,173
02:16:12.764,,1120,142,175
02:16:12.801,,1150,153,138
02:16:12.838,,1094,135,104
02:16:12.875,,930,156,96
02:16:12.912,,815,216,120
02:16:12.949,,775,264,140
02:16:12.986,,775,243,134
02:16:13.023,,786,186,132
02:16:13.060,,792,149,133
02:16:13.097,,823,156,149
02:16:13.134,,885,202,166
02:16:13.171,,969,216,164
02:16:13.208,,1134,231,154
02:16:13.245,,1257,251,159
02:16:13.282,,1517,293,114
02:16:13.319,,1238,304,207
02:16:13.356,,740,317,322
02:16:13.393,,608,275,278
02:16:13.430,,760,194,167
02:16:13.468,,1004,99,95
02:16:13.505,,1096,99,170
02:16:13.542,,918,226,335
02:16:13.579,,782,324,379
02:16:13.616,,771,299,354
02:16:13.653,,848,180,359
02:16:13.690,,889,-58,375
02:16:13.727,,868,-40,295
02:16:13.764,,858,-162,296
02:16:13.801,,894,-101,290
02:16:13.838,,976,150,284
02:16:13.875,,998,392,191
02:16:13.912,,1060,347,165
02:16:13.949,,1370,280,212
02:16:13.986,,1222,284,223
02:16:14.023,,865,305,139
02:16:14.060,,921,267,117
02:16:14.097,,1032,269,142
02:16:14.134,,1100,228,107
02:16:14.171,,1054,175,103
02:16:14.208,,933,179,102
02:16:14.245,,831,237,60
02:16:14.282,,742,322,98
02:16:14.319,,707,413,215
02:16:14.356,,633,444,332
02:16:14.393,,589,451,397
02:16:14.431,,686,473,384
02:16:14.468,,785,488,419
02:16:14.505,,803,459,378
02:16:14.542,,857,447,426
02:16:14.579,,1072,342,306
02:16:14.616,,1272,32,143
02:16:14.653,,1159,-43,197
02:16:14.690,,941,92,256
02:16:14.727,,1020,56,200
02:16:14.764,,1135,-27,65
02:16:14.801,,1086,-135,41
02:16:14.838,,984,-48,182
02:16:14.875,,935,74,243
02:16:14.912,,865,36,183
02:16:14.949,,864,19,177
02:16:14.986,,877,0,145
02:16:15.023,,855,14,148
02:16:15.060,,832,60,195
02:16:15.097,,886,95,226
02:16:15.134,,1006,76,200
02:16:15.171,,994,53,155
02:16:15.208,,991,88,134
02:16:15.245,,1077,197,73
02:16:15.282,,1057,353,75
02:16:15.319,,997,447,137
02:16:15.357,,971,478,224
02:16:15.394,,1129,493,265
02:16:15.431,,1169,367,190
02:16:15.468,,1010,173,210
02:16:15.505,,894,80,252
02:16:15.542,,903,155,183
02:16:15.579,,895,221,137
02:16:15.616,,860,222,156
02:16:15.653,,783,230,176
02:16:15.690,,722,241,175
02:16:15.727,,814,279,129
02:16:15.764,,1009,273,90
02:16:15.801,,1061,283,117
02:16:15.838,,1166,309,162
02:16:15.875,,1157,320,206
02:16:15.912,,864,318,342
02:16:15.949,,913,226,343
02:16:15.986,,1037,134,194
02:16:16.023,,970,29,165
02:16:16.060,,714,10,211
02:16:16.097,,647,156,274
02:16:16.134,,704,262,367
02:16:16.171,,798,236,411
02:16:16.208,,904,-22,480
02:16:16.245,,881,182,418
02:16:16.282,,951,-6,437
02:16:16.319,,1226,15,448
02:16:16.357,,1443,158,266
02:16:16.394,,1452,208,288
02:16:16.431,,1323,228,395
02:16:16.468,,1157,321,295
02:16:16.505,,1212,242,144
02:16:16.542,,1262,80,96
02:16:16.579,,1109,28,95
02:16:16.616,,976,109,96
02:16:16.653,,894,219,64
02:16:16.690,,812,268,41
02:16:16.727,,717,238,35
02:16:16.764,,622,175,52
02:16:16.801,,592,168,88
02:16:16.838,,658,185,109
02:16:16.875,,718,203,159
02:16:16.912,,935,222,197
02:16:16.949,,1030,176,271
02:16:16.986,,1063,187,510
02:16:17.023,,1273,158,532
02:16:17.060,,1346,13,196
02:16:17.097,,1106,-63,153
02:16:17.134,,860,-96,350
02:16:17.171,,841,47,458
02:16:17.208,,790,272,441
02:16:17.245,,832,322,451
02:16:17.282,,837,220,461
02:16:17.319,,818,143,470
02:16:17.356,,966,163,435
02:16:17.393,,1230,172,390
02:16:17.431,,1367,151,254
02:16:17.468,,1369,198,340
02:16:17.505,,1242,302,462
02:16:17.542,,1261,401,334
02:16:17.579,,1425,289,234
02:16:17.616,,1372,55,142
02:16:17.653,,1118,-1,100
02:16:17.690,,964,49,77
02:16:17.727,,902,168,82
02:16:17.764,,835,227,84
02:16:17.801,,792,203,53
02:16:17.838,,622,160,43
02:16:17.875,,547,165,92
02:16:17.912,,584,194,127
02:16:17.949,,647,206,205
02:16:17.986,,866,240,285
02:16:18.023,,1086,235,351
02:16:18.060,,1251,220,523
02:16:18.097,,1527,192,494
02:16:18.134,,1417,-12,134
02:16:18.171,,1074,-80,140
02:16:18.208,,815,-38,305
02:16:18.245,,759,212,292
02:16:18.282,,775,395,321
02:16:18.319,,808,410,339
02:16:18.356,,829,325,467
02:16:18.393,,770,282,513
02:16:18.430,,984,318,594
02:16:18.468,,1239,211,515
02:16:18.505,,1417,6,316
02:16:18.542,,1518,-36,319
02:16:18.579,,1178,39,334
02:16:18.616,,1117,230,250
02:16:18.653,,1261,315,259
02:16:18.690,,1173,264,240
02:16:18.727,,953,193,144
02:16:18.764,,884,129,71
02:16:18.801,,858,166,46
02:16:18.838,,849,165,36
02:16:18.875,,757,163,18
02:16:18.912,,653,183,22
02:16:18.949,,688,220,35
02:16:18.986,,752,249,34
02:16:19.023,,910,306,78
02:16:19.060,,1056,309,201
02:16:19.097,,1001,341,539
02:16:19.134,,1141,351,626
02:16:19.171,,1307,175,278
02:16:19.208,,1141,-70,81
02:16:19.245,,863,-191,240
02:16:19.282,,762,-53,396
02:16:19.319,,772,167,417
02:16:19.356,,790,243,469
02:16:19.393,,759,213,482
02:16:19.430,,774,213,415
02:16:19.468,,976,221,399
02:16:19.505,,1156,151,344
02:16:19.542,,1227,140,205
02:16:19.579,,1329,185,231
02:16:19.616,,1365,335,308
02:16:19.653,,1237,513,286
02:16:19.690,,1234,541,166
02:16:19.727,,1232,404,101
02:16:19.764,,1094,223,80
02:16:19.801,,937,75,87
02:16:19.838,,886,57,64
02:16:19.875,,877,100,39
02:16:19.912,,859,127,18
02:16:19.949,,820,150,17
02:16:19.986,,801,186,46
02:16:20.023,,886,232,47
02:16:20.060,,927,271,73
02:16:20.097,,975,283,162
02:16:20.134,,958,244,259
02:16:20.171,,877,180,455
02:16:20.208,,1065,139,612
02:16:20.245,,1136,16,321
02:16:20.282,,1002,-13,61
02:16:20.319,,765,-83,213
02:16:20.356,,701,-24,343
02:16:20.393,,778,144,327
02:16:20.430,,871,366,232
02:16:20.468,,964,384,251
02:16:20.505,,956,325,312
02:16:20.542,,998,288,337
02:16:20.579,,1189,254,271
02:16:20.616,,1357,48,262
02:16:20.653,,1152,174,412
02:16:20.690,,1078,377,444
02:16:20.727,,1288,399,412
02:16:20.764,,1352,140,351
02:16:20.801,,1169,-67,287
02:16:20.838,,964,-67,237
02:16:20.875,,855,36,205
02:16:20.912,,804,112,162
02:16:20.949,,786,139,132
02:16:20.986,,754,139,109
02:16:21.023,,730,146,100
02:16:21.060,,858,181,76
02:16:21.097,,831,188,95
02:16:21.134,,945,269,164
02:16:21.171,,981,258,210
02:16:21.208,,1067,300,361
02:16:21.245,,1193,231,437
02:16:21.282,,1362,139,271
02:16:21.319,,1143,-55,161
02:16:21.356,,866,-77,204
02:16:21.393,,719,54,219
02:16:21.431,,681,302,261
02:16:21.468,,687,350,290
02:16:21.505,,731,304,340
02:16:21.542,,811,269,414
02:16:21.579,,1006,257,471
02:16:21.616,,1269,251,555
02:16:21.653,,1550,185,505
02:16:21.690,,1481,123,487
02:16:21.727,,1263,174,445
02:16:21.764,,1376,221,361
02:16:21.801,,1469,125,317
02:16:21.838,,1323,49,257
02:16:21.875,,1056,66,191
02:16:21.912,,958,103,158
02:16:21.949,,938,130,116
02:16:21.986,,909,127,76
02:16:22.023,,827,111,44
02:16:22.060,,714,114,30
02:16:22.097,,703,161,13
02:16:22.134,,623,199,27
02:16:22.171,,657,270,127
02:16:22.208,,806,258,185
02:16:22.245,,997,232,230
02:16:22.282,,1225,211,372
02:16:22.319,,1554,206,331
02:16:22.356,,1436,83,131
02:16:22.393,,1099,-27,228
02:16:22.431,,968,18,360
02:16:22.468,,969,257,407
02:16:22.505,,940,363,432
02:16:22.542,,944,294,509
02:16:22.579,,870,227,630
02:16:22.616,,902,283,698
02:16:22.653,,1097,293,675
02:16:22.690,,1322,154,486
02:16:22.727,,1405,68,422
02:16:22.764,,1389,157,415
02:16:22.801,,1387,284,359
02:16:22.838,,1605,289,285
02:16:22.875,,1700,159,239
02:16:22.912,,1503,42,197
02:16:22.949,,1210,57,154
02:16:22.986,,1040,111,142
02:16:23.023,,935,119,127
02:16:23.060,,764,83,86
02:16:23.097,,571,44,42
02:16:23.134,,436,58,16
02:16:23.171,,418,111,-1
02:16:23.208,,339,154,28
02:16:23.245,,452,258,74
02:16:23.282,,753,335,69
02:16:23.319,,1115,388,145
02:16:23.356,,1491,432,384
02:16:23.394,,1926,496,422
02:16:23.431,,1615,186,124
02:16:23.468,,1326,-137,279
02:16:23.505,,1104,-94,397
02:16:23.542,,925,308,442
02:16:23.579,,787,465,445
02:16:23.616,,788,377,550
02:16:23.653,,796,252,614
02:16:23.690,,839,309,643
02:16:23.727,,1133,403,677
02:16:23.764,,1311,221,465
02:16:23.801,,1420,37,339
02:16:23.838,,1543,80,345
02:16:23.875,,1369,254,257
02:16:23.912,,1414,349,206
02:16:23.949,,1568,277,204
02:16:23.986,,1434,157,159
02:16:24.023,,1152,107,134
02:16:24.060,,1045,120,121
02:16:24.097,,942,129,96
02:16:24.134,,857,107,73
02:16:24.171,,712,75,38
02:16:24.208,,569,86,33
02:16:24.245,,593,138,30
02:16:24.282,,514,186,48
02:16:24.319,,527,282,124
02:16:24.356,,701,375,164
02:16:24.393,,1003,440,154
02:16:24.431,,1238,403,153
02:16:24.468,,1288,375,293
02:16:24.505,,1501,434,407
02:16:24.542,,1467,455,338
02:16:24.579,,1186,282,250
02:16:24.616,,1078,145,312
02:16:24.653,,1007,193,389
02:16:24.690,,933,298,388
02:16:24.727,,936,372,420
02:16:24.764,,879,380,446
02:16:24.801,,783,374,486
02:16:24.838,,889,433,550
02:16:24.875,,1122,367,437
02:16:24.912,,1220,210,340
02:16:24.949,,1302,240,386
02:16:24.986,,1375,415,447
02:16:25.023,,1472,445,283
02:16:25.060,,1582,225,165
02:16:25.097,,1468,-9,87
02:16:25.134,,1207,18,84
02:16:25.171,,1128,140,101
02:16:25.208,,1077,264,70
02:16:25.245,,1012,291,34
02:16:25.282,,908,212,1
02:16:25.319,,747,157,-14
02:16:25.356,,711,178,-20
02:16:25.393,,623,215,-7
02:16:25.431,,567,313,53
02:16:25.468,,671,300,106
02:16:25.505,,803,247,146
02:16:25.542,,962,215,207
02:16:25.579,,941,217,382
02:16:25.616,,1117,263,384
02:16:25.653,,1335,129,276
02:16:25.690,,1302,-3,265
02:16:25.727,,1241,-57,297
02:16:25.764,,1234,64,519
02:16:25.801,,1104,262,696
02:16:25.838,,966,292,693
02:16:25.875,,884,91,646
02:16:25.912,,778,-120,532
02:16:25.949,,798,-139,461
02:16:25.986,,1034,7,525
02:16:26.023,,1253,85,355
02:16:26.060,,1324,198,157
02:16:26.097,,1419,233,204
02:16:26.134,,1237,452,272
02:16:26.171,,1165,601,122
02:16:26.208,,1332,508,10
02:16:26.245,,1351,309,50
02:16:26.282,,1222,141,82
02:16:26.319,,1039,123,84
02:16:26.356,,919,149,84
02:16:26.393,,835,157,87
02:16:26.430,,728,134,85
02:16:26.467,,610,113,77
02:16:26.504,,556,119,73
02:16:26.541,,589,146,65
02:16:26.579,,637,187,76
02:16:26.616,,797,245,125
02:16:26.653,,1181,272,178
02:16:26.690,,1385,298,368
02:16:26.727,,1183,289,555
02:16:26.764,,1182,217,320
02:16:26.801,,1330,-11,159
02:16:26.838,,1189,-124,215
02:16:26.875,,944,8,360
02:16:26.912,,832,277,423
02:16:26.949,,775,418,397
02:16:26.986,,839,357,443
02:16:27.023,,846,203,511
02:16:27.060,,791,143,519
02:16:27.097,,1054,191,535
02:16:27.134,,1277,137,415
02:16:27.171,,1255,81,255
02:16:27.208,,1374,133,287
02:16:27.245,,1138,285,361
02:16:27.282,,975,418,282
02:16:27.319,,1196,408,228
02:16:27.356,,1330,244,202
02:16:27.393,,1162,86,148
02:16:27.430,,1051,30,139
02:16:27.467,,1044,83,135
02:16:27.504,,971,133,121
02:16:27.541,,829,151,107
02:16:27.578,,685,154,89
02:16:27.615,,566,167,81
02:16:27.653,,565,191,76
02:16:27.690,,609,187,79
02:16:27.727,,677,227,117
02:16:27.764,,999,273,139
02:16:27.801,,1212,274,301
02:16:27.838,,1260,337,599
02:16:27.875,,1348,191,360
02:16:27.912,,1310,30,59
02:16:27.949,,1085,-114,162
02:16:27.986,,897,-82,278
02:16:28.023,,823,237,352
02:16:28.060,,764,430,357
02:16:28.097,,808,432,397
02:16:28.134,,840,322,496
02:16:28.171,,791,226,509
02:16:28.208,,1096,258,596
02:16:28.245,,1278,152,503
02:16:28.282,,1228,51,282
02:16:28.319,,1345,106,285
02:16:28.356,,1233,273,338
02:16:28.393,,1034,420,297
02:16:28.430,,1164,423,273
02:16:28.467,,1331,293,230
02:16:28.504,,1452,96,150
02:16:28.541,,1341,-38,102
02:16:28.578,,1133,9,117
02:16:28.615,,1014,112,112
02:16:28.652,,879,196,95
02:16:28.689,,715,205,91
02:16:28.727,,552,168,83
02:16:28.764,,470,145,74
02:16:28.801,,425,134,81
02:16:28.838,,439,194,133
02:16:28.875,,701,236,182
02:16:28.912,,1117,240,268
02:16:28.949,,1148,238,523
02:16:28.986,,1322,195,488
02:16:29.023,,1659,95,138
02:16:29.060,,1503,-38,140
02:16:29.097,,1173,-66,342
02:16:29.134,,1018,232,397
02:16:29.171,,912,537,342
02:16:29.208,,859,525,380
02:16:29.245,,828,362,458
02:16:29.282,,734,210,516
02:16:29.319,,802,225,550
02:16:29.356,,1124,254,603
02:16:29.393,,1189,105,364
02:16:29.430,,1260,35,297
02:16:29.467,,1427,107,350
02:16:29.504,,1289,312,380
02:16:29.541,,1095,374,297
02:16:29.578,,1222,322,231
02:16:29.615,,1380,279,199
02:16:29.652,,1432,188,167
02:16:29.689,,1210,98,138
02:16:29.726,,970,78,137
02:16:29.763,,849,105,117
02:16:29.800,,782,131,99
02:16:29.838,,695,131,83
02:16:29.875,,579,143,81
02:16:29.912,,525,166,81
02:16:29.949,,537,180,91
02:16:29.986,,542,217,143
02:16:30.023,,704,265,228
02:16:30.060,,1044,268,288
02:16:30.097,,1397,246,326
02:16:30.134,,1213,153,367
02:16:30.171,,1219,137,303
02:16:30.208,,1371,172,280
02:16:30.245,,1350,225,288
02:16:30.282,,1085,241,304
02:16:30.319,,937,282,317
02:16:30.356,,859,349,339
02:16:30.393,,863,345,402
02:16:30.430,,883,307,497
02:16:30.467,,784,219,538
02:16:30.504,,864,213,581
02:16:30.541,,1191,190,599
02:16:30.578,,1318,36,334
02:16:30.615,,1206,4,243
02:16:30.652,,1221,99,277
02:16:30.689,,1299,360,328
02:16:30.726,,1360,487,300
02:16:30.763,,1334,395,220
02:16:30.800,,1307,272,141
02:16:30.837,,1282,108,91
02:16:30.874,,1175,41,106
02:16:30.912,,1054,68,128
02:16:30.949,,906,145,93
02:16:30.986,,784,163,68
02:16:31.023,,653,152,63
02:16:31.060,,551,149,57
02:16:31.097,,467,143,71
02:16:31.134,,415,185,151
02:16:31.171,,527,208,239
02:16:31.208,,762,171,296
02:16:31.245,,1108,117,338
02:16:31.282,,1245,4,371
02:16:31.319,,1270,-28,366
02:16:31.356,,1354,13,319
02:16:31.393,,1393,98,283
02:16:31.430,,1343,242,247
02:16:31.467,,1280,388,256
02:16:31.504,,979,519,303
02:16:31.541,,854,469,341
02:16:31.578,,708,390,382
02:16:31.615,,718,358,457
02:16:31.652,,878,330,519
02:16:31.689,,1092,237,420
02:16:31.726,,1314,202,400
02:16:31.763,,1637,247,453
02:16:31.800,,1448,201,392
02:16:31.837,,1455,245,325
02:16:31.874,,1611,189,273
02:16:31.911,,1582,98,218
02:16:31.949,,1376,4,160
02:16:31.986,,1198,28,113
02:16:32.023,,1060,105,70
02:16:32.060,,918,170,33
02:16:32.097,,751,186,22
02:16:32.134,,604,198,22
02:16:32.171,,542,205,9
02:16:32.208,,478,228,12
02:16:32.245,,507,313,31
02:16:32.282,,619,382,51
02:16:32.319,,950,421,70
02:16:32.356,,1123,393,257
02:16:32.393,,996,435,478
02:16:32.430,,1079,418,228
02:16:32.467,,1429,3,294
02:16:32.504,,1561,-305,402
02:16:32.541,,1368,-56,616
02:16:32.578,,1010,274,712
02:16:32.615,,816,254,606
02:16:32.652,,821,37,553
02:16:32.689,,865,-100,519
02:16:32.726,,877,-35,456
02:16:32.763,,894,77,392
02:16:32.800,,1077,185,368
02:16:32.837,,1192,116,320
02:16:32.874,,1021,133,171
02:16:32.911,,911,174,108
02:16:32.948,,1042,284,83
02:16:32.985,,1055,438,63
02:16:33.023,,795,512,73
02:16:33.060,,728,475,76
02:16:33.097,,1035,545,81
02:16:33.134,,1247,492,33
02:16:33.171,,1141,329,-43
02:16:33.208,,1065,138,-13
02:16:33.245,,977,70,59
02:16:33.282,,920,152,83
02:16:33.319,,899,223,86
02:16:33.356,,884,257,101
02:16:33.393,,817,241,105
02:16:33.430,,869,208,101
02:16:33.467,,983,165,76
02:16:33.504,,1006,171,112
02:16:33.541,,1041,209,184
02:16:33.578,,1006,208,254
02:16:33.615,,1078,198,298
02:16:33.652,,928,116,356
02:16:33.689,,754,86,396
02:16:33.726,,718,19,324
02:16:33.763,,832,-20,240
02:16:33.800,,1039,-12,248
02:16:33.837,,1159,71,303
02:16:33.874,,1058,226,319
02:16:33.911,,907,320,290
02:16:33.948,,871,319,261
02:16:33.985,,855,208,239
02:16:34.022,,857,132,236
02:16:34.059,,873,125,270
02:16:34.097,,873,143,291
02:16:34.134,,859,139,284
02:16:34.171,,889,133,286
02:16:34.208,,980,121,300
02:16:34.245,,1010,105,251
02:16:34.282,,1023,151,230
02:16:34.319,,1098,240,248
02:16:34.356,,1036,314,272
02:16:34.393,,836,344,257
02:16:34.430,,959,326,273
02:16:34.467,,1148,222,253
02:16:34.504,,1161,106,149
02:16:34.541,,1108,38,151
02:16:34.578,,945,108,170
02:16:34.615,,819,223,159
02:16:34.652,,762,263,149
02:16:34.689,,743,246,147
02:16:34.726,,742,195,135
02:16:34.763,,748,172,118
02:16:34.800,,877,221,125
02:16:34.837,,999,232,129
02:16:34.874,,1021,269,162
02:16:34.911,,1164,295,232
02:16:34.948,,1398,263,263
02:16:34.985,,1103,151,293
02:16:35.022,,738,102,345
02:16:35.059,,721,99,328
02:16:35.096,,923,53,224
02:16:35.134,,1102,13,165
02:16:35.171,,1052,85,178
02:16:35.208,,817,220,244
02:16:35.245,,688,340,278
02:16:35.282,,680,340,258
02:16:35.319,,742,217,260
02:16:35.356,,781,43,263
02:16:35.393,,804,12,299
02:16:35.430,,851,170,319
02:16:35.467,,983,312,336
02:16:35.504,,1055,214,295
02:16:35.541,,1010,195,244
02:16:35.578,,1223,272,271
02:16:35.615,,1353,333,315
02:16:35.652,,970,297,267
02:16:35.689,,911,239,299
02:16:35.726,,1207,163,322
02:16:35.763,,1340,30,193
02:16:35.800,,1363,-69,151
02:16:35.837,,1200,-11,155
02:16:35.874,,995,136,157
02:16:35.911,,880,240,157
02:16:35.948,,773,245,129
02:16:35.985,,629,179,98
02:16:36.022,,515,137,85
02:16:36.059,,530,172,81
02:16:36.096,,617,218,79
02:16:36.134,,752,269,87
02:16:36.171,,987,302,143
02:16:36.208,,1273,338,236
02:16:36.245,,1576,336,228
02:16:36.282,,1544,230,135
02:16:36.319,,1022,151,402
02:16:36.356,,705,138,487
02:16:36.393,,835,182,409
02:16:36.430,,992,136,340
02:16:36.467,,983,95,406
02:16:36.504,,886,143,491
02:16:36.541,,780,208,496
02:16:36.578,,741,166,415
02:16:36.615,,772,95,372
02:16:36.652,,784,64,365
02:16:36.689,,753,118,384
02:16:36.726,,745,184,417
02:16:36.763,,877,217,432
02:16:36.800,,1007,173,380
02:16:36.837,,1147,165,305
02:16:36.874,,1175,195,344
02:16:36.911,,870,240,363
02:16:36.948,,803,263,290
02:16:36.985,,1052,234,304
02:16:37.022,,1155,100,258
02:16:37.059,,1146,49,194
02:16:37.096,,1150,89,204
02:16:37.134,,1090,170,195
02:16:37.171,,952,218,144
02:16:37.208,,813,199,129
02:16:37.245,,732,197,110
02:16:37.282,,871,219,98
02:16:37.319,,967,208,102
02:16:37.356,,1004,221,116
02:16:37.393,,1033,201,151
02:16:37.430,,1117,190,192
02:16:37.467,,1083,188,239
02:16:37.504,,892,161,336
02:16:37.541,,768,125,409
02:16:37.578,,903,62,399
02:16:37.615,,1019,-31,366
02:16:37.652,,914,-70,391
02:16:37.689,,774,-1,450
02:16:37.726,,716,112,422
02:16:37.763,,792,157,393
02:16:37.800,,899,134,430
02:16:37.837,,945,118,445
02:16:37.874,,961,141,434
02:16:37.911,,1008,150,419
02:16:37.948,,1016,146,372
02:16:37.985,,936,122,293
02:16:38.022,,872,131,243
02:16:38.059,,897,171,226
02:16:38.096,,881,241,243
02:16:38.133,,816,290,247
02:16:38.170,,914,319,251
02:16:38.208,,1081,343,260
02:16:38.245,,1258,332,279
02:16:38.282,,1181,292,298
02:16:38.319,,932,230,256
02:16:38.356,,840,214,192
02:16:38.393,,937,227,170
02:16:38.430,,1059,234,195
02:16:38.467,,1124,245,176
02:16:38.504,,1087,195,139
02:16:38.541,,967,175,100
02:16:38.578,,888,186,102
02:16:38.615,,866,166,114
02:16:38.652,,823,150,107
02:16:38.689,,773,146,118
02:16:38.726,,822,157,134
02:16:38.763,,956,152,138
02:16:38.800,,1067,144,158
02:16:38.837,,1124,164,208
02:16:38.874,,1241,194,251
02:16:38.911,,1157,189,327
02:16:38.948,,806,166,389
02:16:38.985,,655,140,344
02:16:39.022,,811,68,227
02:16:39.059,,1013,20,122
02:16:39.096,,1068,99,136
02:16:39.133,,1019,252,232
02:16:39.170,,889,408,304
02:16:39.207,,802,437,248
02:16:39.244,,816,301,226
02:16:39.281,,848,150,232
02:16:39.319,,856,89,241
02:16:39.356,,856,120,275
02:16:39.393,,952,192,329
02:16:39.430,,1097,189,352
02:16:39.467,,1114,132,269
02:16:39.504,,1188,174,244
02:16:39.541,,1268,282,325
02:16:39.578,,1046,345,358
02:16:39.615,,814,308,287
02:16:39.652,,999,251,250
02:16:39.689,,1202,133,179
02:16:39.726,,1199,36,127
02:16:39.763,,1141,38,138
02:16:39.800,,1012,128,145
02:16:39.837,,877,243,130
02:16:39.874,,766,275,109
02:16:39.911,,708,245,91
02:16:39.948,,672,194,87
02:16:39.985,,648,159,94
02:16:40.022,,777,172,117
02:16:40.059,,1021,187,143
02:16:40.096,,1177,208,208
02:16:40.133,,1261,213,255
02:16:40.170,,1211,192,317
02:16:40.207,,912,167,413
02:16:40.244,,738,149,410
02:16:40.281,,817,74,277
02:16:40.318,,971,-30,170
02:16:40.355,,1028,-40,184
02:16:40.393,,950,83,296
02:16:40.430,,841,240,354
02:16:40.467,,790,331,308
02:16:40.504,,814,272,280
02:16:40.541,,841,151,285
02:16:40.578,,834,68,278
02:16:40.615,,831,74,285
02:16:40.652,,925,138,329
02:16:40.689,,1115,129,351
02:16:40.726,,1161,70,245
02:16:40.763,,1230,114,200
02:16:40.800,,1257,231,255
02:16:40.837,,1055,368,317
02:16:40.874,,787,362,296
02:16:40.911,,787,290,277
02:16:40.948,,1060,192,276
02:16:40.985,,1159,75,192
02:16:41.022,,1066,12,174
02:16:41.059,,941,35,168
02:16:41.096,,877,123,159
02:16:41.133,,862,196,162
02:16:41.170,,825,216,158
02:16:41.207,,779,189,142
02:16:41.244,,768,159,125
02:16:41.281,,841,168,128
02:16:41.318,,993,172,132
02:16:41.355,,1107,197,169
02:16:41.392,,1244,222,223
02:16:41.429,,1322,211,289
02:16:41.466,,962,174,425
02:16:41.504,,792,125,443
02:16:41.541,,922,35,311
02:16:41.578,,936,-88,187
02:16:41.615,,865,-86,149
02:16:41.652,,828,36,238
02:16:41.689,,774,215,321
02:16:41.726,,712,319,320
02:16:41.763,,705,278,285
02:16:41.800,,736,207,303
02:16:41.837,,792,132,320
02:16:41.874,,947,123,376
02:16:41.911,,1162,82,471
02:16:41.948,,1293,5,376
02:16:41.985,,1336,-17,270
02:16:42.022,,1160,74,337
02:16:42.059,,846,180,343
02:16:42.096,,895,222,328
02:16:42.133,,1160,138,348
02:16:42.170,,1111,55,271
02:16:42.207,,1016,28,216
02:16:42.244,,923,56,203
02:16:42.281,,841,122,180
02:16:42.318,,743,174,142
02:16:42.355,,623,214,133
02:16:42.392,,634,232,124
02:16:42.429,,765,264,94
02:16:42.466,,877,299,100
02:16:42.503,,999,381,258
02:16:42.541,,1245,426,448
02:16:42.578,,1381,251,277
02:16:42.615,,1294,-84,81
02:16:42.652,,1300,-139,258
02:16:42.689,,908,35,422
02:16:42.726,,689,184,392
02:16:42.763,,784,144,283
02:16:42.800,,944,58,201
02:16:42.837,,1002,59,182
02:16:42.874,,872,156,222
02:16:42.911,,754,259,287
02:16:42.948,,723,281,286
02:16:42.985,,724,260,238
02:16:43.022,,754,205,243
02:16:43.059,,782,161,295
02:16:43.096,,821,172,349
02:16:43.133,,937,162,353
02:16:43.170,,1079,116,293
02:16:43.207,,1015,66,221
02:16:43.244,,1028,116,238
02:16:43.281,,1048,265,264
02:16:43.318,,1142,456,332
02:16:43.355,,1064,517,407
02:16:43.392,,1211,434,315
02:16:43.429,,1249,205,119
02:16:43.466,,1172,-26,103
02:16:43.503,,1047,-70,167
02:16:43.540,,1121,59,232
02:16:43.578,,1293,175,253
02:16:43.615,,1165,215,199
02:16:43.652,,966,153,104
02:16:43.689,,785,118,86
02:16:43.726,,834,157,129
02:16:43.763,,860,162,116
02:16:43.800,,727,175,90
02:16:43.837,,730,204,71
02:16:43.874,,748,216,103
02:16:43.911,,863,204,210
02:16:43.948,,1139,207,313
02:16:43.985,,1298,211,403
02:16:44.022,,1201,192,341
02:16:44.059,,1090,46,305
02:16:44.096,,1045,-168,330
02:16:44.133,,1023,-263,377
02:16:44.170,,974,-115,478
02:16:44.207,,885,7,467
02:16:44.244,,829,106,474
02:16:44.281,,804,123,478
02:16:44.318,,842,81,403
02:16:44.355,,868,42,325
02:16:44.392,,835,82,267
02:16:44.429,,832,161,281
02:16:44.466,,868,264,344
02:16:44.503,,902,311,386
02:16:44.540,,958,267,401
02:16:44.577,,1282,236,431
02:16:44.615,,1376,164,526
02:16:44.652,,1082,35,481
02:16:44.689,,1170,-98,398
02:16:44.726,,1325,-181,319
02:16:44.763,,1264,-138,311
02:16:44.800,,1067,-7,317
02:16:44.837,,900,142,257
02:16:44.874,,821,198,211
02:16:44.911,,788,172,189
02:16:44.948,,775,125,181
02:16:44.985,,778,108,185
02:16:45.022,,833,132,197
02:16:45.059,,901,120,198
02:16:45.096,,904,113,175
02:16:45.133,,877,127,171
02:16:45.170,,848,131,233
02:16:45.207,,875,143,333
02:16:45.244,,895,147,403
02:16:45.281,,948,141,391
02:16:45.318,,973,88,390
02:16:45.355,,972,62,475
02:16:45.392,,928,90,574
02:16:45.429,,899,73,571
02:16:45.466,,943,-25,558
02:16:45.503,,982,-112,522
02:16:45.540,,1031,-77,477
02:16:45.577,,1006,22,462
02:16:45.614,,885,118,443
02:16:45.652,,812,183,405
02:16:45.689,,892,177,308
02:16:45.726,,981,144,197
02:16:45.763,,1013,202,134
02:16:45.800,,1080,352,190
02:16:45.837,,1305,544,321
02:16:45.874,,1238,565,243
02:16:45.911,,1141,387,36
02:16:45.948,,1297,189,45
02:16:45.985,,1360,37,102
02:16:46.022,,1245,55,128
02:16:46.059,,1185,150,144
02:16:46.096,,1066,217,120
02:16:46.133,,959,243,113
02:16:46.170,,887,200,107
02:16:46.207,,824,148,103
02:16:46.244,,825,139,105
02:16:46.281,,930,133,115
02:16:46.318,,920,113,128
02:16:46.355,,948,127,146
02:16:46.392,,1028,130,156
02:16:46.429,,795,108,352
02:16:46.466,,815,153,558
02:16:46.503,,926,75,452
02:16:46.540,,984,-57,280
02:16:46.577,,889,-149,237
02:16:46.614,,815,-132,298
02:16:46.651,,855,0,392
02:16:46.689,,901,170,416
02:16:46.726,,905,239,429
02:16:46.763,,880,189,473
02:16:46.800,,862,154,523
02:16:46.837,,1001,164,593
02:16:46.874,,1178,150,571
02:16:46.911,,1428,111,439
02:16:46.948,,1471,150,475
02:16:46.985,,1259,236,465
02:16:47.022,,1132,249,335
02:16:47.059,,1336,123,269
02:16:47.096,,1433,27,225
02:16:47.133,,1333,35,157
02:16:47.170,,1156,118,134
02:16:47.207,,1104,182,138
02:16:47.244,,1031,226,112
02:16:47.281,,940,217,86
02:16:47.318,,860,168,76
02:16:47.355,,754,147,84
02:16:47.392,,709,146,78
02:16:47.429,,681,138,61
02:16:47.466,,675,162,96
02:16:47.503,,800,201,152
02:16:47.540,,916,188,220
02:16:47.577,,1015,200,386
02:16:47.614,,1234,193,475
02:16:47.652,,1306,132,258
02:16:47.689,,1203,-73,88
02:16:47.726,,1086,-149,213
02:16:47.763,,1029,-20,405
02:16:47.800,,983,275,434
02:16:47.837,,951,389,429
02:16:47.874,,921,280,509
02:16:47.911,,867,144,507
02:16:47.948,,861,92,479
02:16:47.985,,999,143,469
02:16:48.022,,1108,162,357
02:16:48.059,,1149,166,236
02:16:48.096,,1113,201,250
02:16:48.133,,1113,369,314
02:16:48.170,,1179,575,330
02:16:48.207,,1554,577,216
02:16:48.244,,1524,362,159
02:16:48.281,,1332,128,113
02:16:48.318,,1362,22,49
02:16:48.355,,1376,-14,14
02:16:48.392,,1074,38,120
02:16:48.429,,856,145,192
02:16:48.466,,697,154,115
02:16:48.503,,592,141,27
02:16:48.540,,589,128,-11
02:16:48.578,,724,119,-52
02:16:48.615,,829,194,-77
02:16:48.652,,997,329,-15
02:16:48.689,,973,396,54
02:16:48.726,,992,465,325
02:16:48.763,,1255,408,597
02:16:48.800,,1243,274,87
02:16:48.837,,1096,-118,23
02:16:48.874,,1020,-348,306
02:16:48.911,,995,-41,506
02:16:48.948,,978,496,505
02:16:48.985,,964,430,596
02:16:49.022,,924,163,662
02:16:49.059,,866,-38,597
02:16:49.096,,1009,-13,586
02:16:49.133,,1217,51,504
02:16:49.170,,1273,110,338
02:16:49.207,,1392,236,313
02:16:49.244,,1515,399,317
02:16:49.281,,1196,444,260
02:16:49.318,,1072,364,190
02:16:49.355,,1279,278,192
02:16:49.392,,1345,142,70
02:16:49.429,,1263,86,51
02:16:49.466,,1147,77,79
02:16:49.503,,1001,144,85
02:16:49.541,,892,192,61
02:16:49.578,,804,203,40
02:16:49.615,,686,194,46
02:16:49.652,,577,183,72
02:16:49.689,,553,188,100
02:16:49.726,,634,170,110
02:16:49.763,,697,168,125
02:16:49.800,,866,188,167
02:16:49.837,,1165,201,238
02:16:49.874,,1317,192,380
02:16:49.911,,1391,154,411
02:16:49.948,,1377,46,256
02:16:49.985,,1300,-24,278
02:16:50.022,,1071,80,372
02:16:50.059,,872,243,370
02:16:50.096,,792,246,354
02:16:50.133,,803,149,351
02:16:50.170,,864,123,381
02:16:50.207,,857,192,404
02:16:50.244,,837,254,433
02:16:50.281,,953,228,460
02:16:50.318,,1068,132,341
02:16:50.355,,1162,110,245
02:16:50.392,,1134,168,273
02:16:50.429,,1073,315,326
02:16:50.466,,1033,383,338
02:16:50.503,,1320,278,335
02:16:50.541,,1497,85,287
02:16:50.578,,1389,-55,258
02:16:50.615,,1123,-30,279
02:16:50.652,,1001,50,286
02:16:50.689,,1001,52,234
02:16:50.726,,873,35,139
02:16:50.763,,731,47,117
02:16:50.800,,589,99,116
02:16:50.837,,606,194,98
02:16:50.874,,626,231,94
02:16:50.911,,774,307,137
02:16:50.948,,995,350,156
02:16:50.985,,1240,329,142
02:16:51.022,,1275,296,132
02:16:51.059,,1174,300,351
02:16:51.096,,1074,289,446
02:16:51.133,,1013,253,459
02:16:51.170,,939,89,489
02:16:51.207,,892,30,597
02:16:51.244,,873,21,643
02:16:51.281,,909,76,626
02:16:51.318,,1008,100,566
02:16:51.355,,1043,93,499
02:16:51.392,,942,76,434
02:16:51.429,,896,104,358
02:16:51.466,,1014,137,271
02:16:51.504,,1116,134,181
02:16:51.541,,1006,161,148
02:16:51.578,,903,245,157
02:16:51.615,,891,370,138
02:16:51.652,,829,388,130
02:16:51.689,,800,344,121
02:16:51.726,,1215,249,174
02:16:51.763,,1446,216,401
02:16:51.800,,1295,-93,493
02:16:51.837,,901,-479,795
02:16:51.874,,815,160,1006
02:16:51.911,,924,559,1119
02:16:51.948,,1049,595,958
02:16:51.985,,1098,679,736
02:16:52.022,,1051,753,547
02:16:52.059,,950,594,409
02:16:52.096,,711,470,397
02:16:52.133,,492,440,414
02:16:52.170,,276,299,468
02:16:52.207,,143,411,387
02:16:52.244,,-101,594,456
02:16:52.281,,-288,515,584
02:16:52.318,,-319,455,593
02:16:52.355,,-280,552,589
02:16:52.392,,-314,558,609
02:16:52.430,,-357,543,583
02:16:52.467,,-383,544,568
02:16:52.504,,-405,491,590
02:16:52.541,,-416,534,612
02:16:52.578,,-411,558,673
02:16:52.615,,-439,468,674
02:16:52.652,,-412,443,650
02:16:52.689,,-406,392,648
02:16:52.726,,-353,355,675
02:16:52.763,,-327,550,710
02:16:52.800,,-430,638,680
02:16:52.837,,-548,637,552
02:16:52.874,,-675,765,435
02:16:52.911,,-662,940,351
02:16:52.948,,-551,994,418
02:16:52.985,,-362,876,642
02:16:53.022,,-325,766,731
02:16:53.059,,-356,693,653
02:16:53.096,,-347,693,654
02:16:53.133,,-255,724,725
02:16:53.170,,-198,707,668
02:16:53.207,,-178,744,607
02:16:53.244,,-158,667,571
02:16:53.281,,-146,653,587
02:16:53.318,,-197,762,612
02:16:53.355,,-246,710,561
02:16:53.392,,-336,750,619
02:16:53.430,,-321,825,708
02:16:53.467,,-299,770,801
02:16:53.504,,-280,598,805
02:16:53.541,,-332,415,804
02:16:53.578,,-372,349,784
02:16:53.615,,-360,341,722
02:16:53.652,,-280,396,692
02:16:53.689,,-160,494,672
02:16:53.726,,-15,632,670
02:16:53.763,,104,629,660
02:16:53.800,,51,455,652
02:16:53.837,,-166,413,552
02:16:53.874,,-259,467,530
02:16:53.911,,-297,564,532
02:16:53.948,,-279,616,515
02:16:53.985,,-160,863,566
02:16:54.022,,-91,659,432
02:16:54.059,,348,635,652
02:16:54.096,,925,744,656
02:16:54.133,,1292,895,656
02:16:54.170,,1350,747,698
02:16:54.207,,1260,336,619
02:16:54.244,,1101,115,493
02:16:54.281,,935,78,463
02:16:54.318,,797,86,392
02:16:54.355,,806,152,354
02:16:54.393,,873,212,319
02:16:54.430,,866,211,282
02:16:54.467,,967,208,233
02:16:54.504,,1127,193,219
02:16:54.541,,1093,206,278
02:16:54.578,,1128,219,279
02:16:54.615,,1148,199,252
02:16:54.652,,894,187,326
02:16:54.689,,767,201,384
02:16:54.726,,926,161,344
02:16:54.763,,948,61,243
02:16:54.800,,821,21,266
02:16:54.837,,657,75,346
02:16:54.874,,607,157,347
02:16:54.911,,654,157,340
02:16:54.948,,731,118,373
02:16:54.985,,753,94,400
02:16:55.022,,738,123,439
02:16:55.059,,814,182,454
02:16:55.096,,1027,189,495
02:16:55.133,,1179,187,378
02:16:55.170,,1314,217,312
02:16:55.207,,1433,297,444
02:16:55.244,,1165,407,432
02:16:55.281,,1046,348,327
02:16:55.319,,1299,134,301
02:16:55.356,,1374,7,270
02:16:55.393,,1222,-5,232
02:16:55.430,,1053,66,218
02:16:55.467,,913,154,198
02:16:55.504,,751,199,148
02:16:55.541,,619,190,102
02:16:55.578,,538,156,95
02:16:55.615,,581,147,105
02:16:55.652,,727,176,99
02:16:55.689,,826,207,114
02:16:55.726,,967,238,157
02:16:55.763,,1171,233,215
02:16:55.800,,1290,258,343
02:16:55.837,,1164,270,522
02:16:55.874,,971,199,430
02:16:55.911,,1003,-145,208
02:16:55.948,,1056,-302,162
02:16:55.985,,973,-215,298
02:16:56.022,,883,50,406
02:16:56.059,,839,331,467
02:16:56.096,,800,342,480
02:16:56.133,,803,172,471
02:16:56.171,,838,15,436
02:16:56.208,,859,-21,374
02:16:56.245,,844,61,369
02:16:56.282,,899,161,403
02:16:56.319,,1044,211,344
02:16:56.356,,1248,207,239
02:16:56.393,,1202,235,219
02:16:56.430,,1179,310,259
02:16:56.467,,1057,401,295
02:16:56.504,,1091,344,232
02:16:56.541,,1223,228,216
02:16:56.578,,1334,97,201
02:16:56.615,,1168,29,204
02:16:56.652,,962,53,211
02:16:56.689,,811,105,194
02:16:56.726,,729,142,185
02:16:56.763,,698,141,184
02:16:56.800,,715,106,179
02:16:56.837,,791,84,151
02:16:56.874,,968,105,149
02:16:56.911,,998,126,201
02:16:56.948,,1124,173,234
02:16:56.985,,1214,138,272
02:16:57.022,,1160,99,403
02:16:57.059,,1061,44,457
02:16:57.096,,1067,-62,453
02:16:57.134,,1099,-120,468
02:16:57.171,,933,-58,395
02:16:57.208,,692,67,259
02:16:57.245,,687,225,223
02:16:57.282,,788,396,249
02:16:57.319,,842,538,275
02:16:57.356,,869,539,376
02:16:57.393,,806,420,510
02:16:57.430,,797,388,583
02:16:57.467,,937,409,606
02:16:57.504,,1006,346,571
02:16:57.541,,1164,375,532
02:16:57.578,,1354,497,500
02:16:57.615,,1068,489,537
02:16:57.652,,977,362,448
02:16:57.689,,1308,243,300
02:16:57.726,,1520,52,171
02:16:57.763,,1431,-49,168
02:16:57.800,,1245,22,200
02:16:57.837,,1056,143,187
02:16:57.874,,851,217,146
02:16:57.911,,705,201,109
02:16:57.948,,589,152,82
02:16:57.985,,623,132,47
02:16:58.022,,732,141,41
02:16:58.060,,743,178,84
02:16:58.097,,815,221,178
02:16:58.134,,1027,221,331
02:16:58.171,,1172,187,498
02:16:58.208,,1203,126,480
02:16:58.245,,1329,-25,493
02:16:58.282,,1290,-224,388
02:16:58.319,,1202,-230,345
02:16:58.356,,1020,-47,470
02:16:58.393,,849,197,464
02:16:58.430,,756,256,420
02:16:58.467,,757,171,401
02:16:58.504,,790,102,385
02:16:58.541,,798,108,363
02:16:58.578,,830,146,356
02:16:58.615,,978,148,358
02:16:58.652,,1132,93,299
02:16:58.689,,1184,99,209
02:16:58.726,,1239,133,185
02:16:58.763,,1240,247,249
02:16:58.800,,1081,364,302
02:16:58.837,,1092,336,237
02:16:58.874,,1254,217,241
02:16:58.912,,1242,93,252
02:16:58.949,,1143,18,240
02:16:58.986,,1025,-21,240
02:16:59.023,,948,-22,238
02:16:59.060,,860,3,211
02:16:59.097,,773,46,194
02:16:59.134,,683,86,200
02:16:59.171,,731,114,195
02:16:59.208,,848,122,158
02:16:59.245,,958,196,157
02:16:59.282,,1084,278,179
02:16:59.319,,1099,328,243
02:16:59.356,,1004,322,404
02:16:59.393,,803,315,551
02:16:59.430,,732,290,537
02:16:59.467,,686,216,439
02:16:59.504,,689,197,389
02:16:59.541,,773,243,432
02:16:59.578,,912,347,497
02:16:59.615,,985,406,541
02:16:59.652,,949,438,579
02:16:59.689,,872,400,568
02:16:59.726,,820,376,515
02:16:59.764,,803,430,622
02:16:59.801,,792,391,675
02:16:59.838,,800,292,475
02:16:59.875,,1066,315,371
02:16:59.912,,1447,377,388
02:16:59.949,,1333,329,401
02:16:59.986,,1311,195,311
02:17:00.023,,1485,111,222
02:17:00.060,,1507,125,189
02:17:00.097,,1278,146,198
02:17:00.134,,1064,185,222
02:17:00.171,,912,196,217
02:17:00.208,,818,173,181
02:17:00.245,,782,131,158
02:17:00.282,,679,92,140
02:17:00.319,,697,84,160
02:17:00.356,,716,85,180
02:17:00.393,,767,132,172
02:17:00.430,,865,156,219
02:17:00.467,,1096,168,351
02:17:00.504,,1189,163,457
02:17:00.541,,1114,147,364
02:17:00.578,,1129,141,381
02:17:00.615,,1114,87,552
02:17:00.653,,980,138,608
02:17:00.690,,935,177,644
02:17:00.727,,958,137,665
02:17:00.764,,978,128,648
02:17:00.801,,964,120,602
02:17:00.838,,923,105,522
02:17:00.875,,879,140,454
02:17:00.912,,906,202,411
02:17:00.949,,1007,249,350
02:17:00.986,,1140,258,248
02:17:01.023,,1184,277,243
02:17:01.060,,1147,348,366
02:17:01.097,,1403,344,368
02:17:01.134,,1720,163,232
02:17:01.171,,1747,-38,223
02:17:01.208,,1397,-123,249
02:17:01.245,,1139,-32,273
02:17:01.282,,962,71,274
02:17:01.319,,714,95,237
02:17:01.356,,479,52,191
02:17:01.393,,378,28,167
02:17:01.430,,414,87,182
02:17:01.467,,508,217,237
02:17:01.504,,623,387,308
02:17:01.541,,735,409,321
02:17:01.579,,845,333,334
02:17:01.616,,962,386,358
02:17:01.653,,1045,590,510
02:17:01.690,,1087,468,641
02:17:01.727,,1099,209,566
02:17:01.764,,1066,-2,563
02:17:01.801,,993,-106,582
02:17:01.838,,940,-163,570
02:17:01.875,,921,-165,576
02:17:01.912,,913,-64,571
02:17:01.949,,887,68,526
02:17:01.986,,856,41,432
02:17:02.023,,822,-36,391
02:17:02.060,,962,-20,373
02:17:02.097,,1111,130,287
02:17:02.134,,1143,218,174
02:17:02.171,,1018,279,206
02:17:02.208,,975,441,347
02:17:02.245,,1013,508,376
02:17:02.282,,1250,380,216
02:17:02.319,,1395,90,212
02:17:02.356,,1250,-101,246
02:17:02.393,,1052,-35,231
02:17:02.430,,944,93,221
02:17:02.468,,835,178,187
02:17:02.505,,728,191,168
02:17:02.542,,672,162,155
02:17:02.579,,611,144,140
02:17:02.616,,695,168,127
02:17:02.653,,781,211,122
02:17:02.690,,843,301,152
02:17:02.727,,1002,383,212
02:17:02.764,,1105,406,338
02:17:02.801,,1065,397,478
02:17:02.838,,976,314,470
02:17:02.875,,1025,146,460
02:17:02.912,,1043,-52,478
02:17:02.949,,963,-55,487
02:17:02.986,,853,82,556
02:17:03.023,,780,157,543
02:17:03.060,,779,132,502
02:17:03.097,,799,69,498
02:17:03.134,,817,127,485
02:17:03.171,,814,178,480
02:17:03.208,,835,223,486
02:17:03.245,,929,226,566
02:17:03.282,,1091,126,409
02:17:03.320,,1197,81,235
02:17:03.357,,1302,133,251
02:17:03.394,,1109,256,332
02:17:03.431,,885,332,303
02:17:03.468,,1027,308,274
02:17:03.505,,1186,189,254
02:17:03.542,,1094,77,227
02:17:03.579,,942,21,238
02:17:03.616,,779,58,240
02:17:03.653,,649,132,241
02:17:03.690,,593,183,226
02:17:03.727,,581,220,233
02:17:03.764,,648,273,263
02:17:03.801,,793,328,250
02:17:03.838,,930,324,272
02:17:03.875,,1023,331,326
02:17:03.912,,1106,365,350
02:17:03.949,,1224,356,409
02:17:03.986,,1195,274,530
02:17:04.023,,1032,161,540
02:17:04.060,,946,-22,246
02:17:04.097,,867,49,317
02:17:04.134,,731,186,398
02:17:04.171,,694,276,372
02:17:04.209,,698,227,302
02:17:04.246,,744,150,300
02:17:04.283,,777,107,317
02:17:04.320,,793,102,336
02:17:04.357,,865,88,345
02:17:04.394,,1063,92,365
02:17:04.431,,1254,64,247
02:17:04.468,,1234,126,180
02:17:04.505,,1163,224,251
02:17:04.542,,1109,386,359
02:17:04.579,,1187,439,293
02:17:04.616,,1179,311,231
02:17:04.653,,1012,159,215
02:17:04.690,,768,107,221
02:17:04.727,,654,101,207
02:17:04.764,,642,130,168
02:17:04.801,,698,139,135
02:17:04.838,,811,137,137
02:17:04.875,,937,117,136
02:17:04.912,,1163,120,88
02:17:04.949,,1279,180,75
02:17:04.986,,1259,271,184
02:17:05.023,,1201,320,360
02:17:05.061,,1095,235,492
02:17:05.098,,915,127,572
02:17:05.135,,924,-71,397
02:17:05.172,,1013,-250,257
02:17:05.209,,863,-326,217
02:17:05.246,,656,-202,257
02:17:05.283,,522,20,280
02:17:05.320,,504,207,263
02:17:05.357,,514,288,237
02:17:05.394,,579,290,263
02:17:05.431,,694,254,352
02:17:05.468,,861,234,411
02:17:05.505,,1217,211,449
02:17:05.542,,1442,152,340
02:17:05.579,,1448,114,251
02:17:05.616,,1411,157,407
02:17:05.653,,1058,314,503
02:17:05.690,,937,364,362
02:17:05.727,,1126,255,360
02:17:05.764,,1219,81,342
02:17:05.801,,1117,17,277
02:17:05.838,,1023,46,250
02:17:05.875,,939,112,200
02:17:05.912,,830,159,158
02:17:05.949,,734,179,136
02:17:05.987,,651,188,129
02:17:06.024,,672,190,124
02:17:06.061,,833,200,103
02:17:06.098,,932,225,129
02:17:06.135,,1042,265,214
02:17:06.172,,1072,247,272
02:17:06.209,,1127,217,315
02:17:06.246,,1042,104,318
02:17:06.283,,987,-13,282
02:17:06.320,,1088,-188,243
02:17:06.357,,1067,-175,185
02:17:06.394,,935,12,176
02:17:06.431,,792,216,208
02:17:06.468,,677,344,218
02:17:06.505,,634,353,217
02:17:06.542,,695,250,240
02:17:06.579,,762,172,297
02:17:06.616,,799,141,338
02:17:06.653,,1013,158,375
02:17:06.690,,1220,161,434
02:17:06.727,,1381,138,386
02:17:06.764,,1556,131,415
02:17:06.801,,1381,194,446
02:17:06.838,,985,238,354
02:17:06.875,,963,197,284
02:17:06.912,,1119,127,282
02:17:06.950,,1082,89,239
02:17:06.987,,959,114,208
02:17:07.024,,909,140,170
02:17:07.061,,850,173,133
02:17:07.098,,792,187,98
02:17:07.135,,743,178,98
02:17:07.172,,780,177,114
02:17:07.209,,1006,171,78
02:17:07.246,,1034,163,99
02:17:07.283,,1074,204,114
02:17:07.320,,1077,232,149
02:17:07.357,,968,223,243
02:17:07.394,,893,217,387
02:17:07.431,,949,167,375
02:17:07.468,,979,77,251
02:17:07.505,,855,-26,214
02:17:07.542,,743,-45,259
02:17:07.579,,731,80,308
02:17:07.616,,777,231,341
02:17:07.653,,861,273,404
02:17:07.690,,918,176,467
02:17:07.727,,929,60,478
02:17:07.764,,1131,-23,500
02:17:07.801,,1258,-24,458
02:17:07.839,,1318,16,347
02:17:07.876,,1391,111,356
02:17:07.913,,1262,264,385
02:17:07.950,,981,359,325
02:17:07.987,,1030,335,244
02:17:08.024,,1183,219,220
02:17:08.061,,1159,93,183
02:17:08.098,,996,64,144
02:17:08.135,,909,104,127
02:17:08.172,,869,157,113
02:17:08.209,,833,186,96
02:17:08.246,,784,176,95
02:17:08.283,,771,166,105
02:17:08.320,,931,164,87
02:17:08.357,,981,177,87
02:17:08.394,,936,235,146
02:17:08.431,,967,256,231
02:17:08.468,,947,257,407
02:17:08.505,,979,241,520
02:17:08.542,,1028,145,308
02:17:08.579,,1093,-114,130
02:17:08.616,,946,-223,146
02:17:08.654,,807,-117,283
02:17:08.691,,757,130,335
02:17:08.728,,750,331,361
02:17:08.765,,779,321,391
02:17:08.802,,811,206,430
02:17:08.839,,861,94,471
02:17:08.876,,1060,48,490
02:17:08.913,,1261,-18,456
02:17:08.950,,1282,-34,289
02:17:08.987,,1298,33,294
02:17:09.024,,1275,192,371
02:17:09.061,,1059,353,395
02:17:09.098,,1066,342,333
02:17:09.135,,1200,213,276
02:17:09.172,,1195,48,199
02:17:09.209,,993,-15,168
02:17:09.246,,866,40,155
02:17:09.283,,841,124,144
02:17:09.320,,832,174,150
02:17:09.357,,785,153,144
02:17:09.394,,750,137,127
02:17:09.431,,863,157,120
02:17:09.468,,856,162,136
02:17:09.505,,921,210,136
02:17:09.543,,1020,224,156
02:17:09.580,,1080,237,318
02:17:09.617,,1082,226,505
02:17:09.654,,1007,81,321
02:17:09.691,,956,15,113
02:17:09.728,,924,-28,224
02:17:09.765,,873,-21,390
02:17:09.802,,858,114,402
02:17:09.839,,880,171,359
02:17:09.876,,909,142,448
02:17:09.913,,874,129,477
02:17:09.950,,847,150,477
02:17:09.987,,964,203,519
02:17:10.024,,1098,220,461
02:17:10.061,,1242,224,327
02:17:10.098,,1269,268,306
02:17:10.135,,1095,368,420
02:17:10.172,,1021,422,366
02:17:10.209,,1253,324,260
02:17:10.246,,1468,118,247
02:17:10.283,,1312,-18,197
02:17:10.320,,1062,26,171
02:17:10.357,,932,123,161
02:17:10.394,,863,190,140
02:17:10.431,,811,200,119
02:17:10.469,,729,173,102
02:17:10.506,,646,157,81
02:17:10.543,,701,193,56
02:17:10.580,,768,230,71
02:17:10.617,,815,277,172
02:17:10.654,,905,282,281
02:17:10.691,,1092,273,331
02:17:10.728,,1224,184,266
02:17:10.765,,1145,91,293
02:17:10.802,,1058,12,353
02:17:10.839,,1124,73,325
02:17:10.876,,1146,170,287
02:17:10.913,,1049,186,330
02:17:10.950,,904,220,347
02:17:10.987,,818,259,326
02:17:11.024,,799,242,344
02:17:11.061,,819,200,369
02:17:11.098,,823,205,392
02:17:11.135,,827,236,409
02:17:11.172,,917,270,439
02:17:11.209,,1030,214,429
02:17:11.246,,1101,163,333
02:17:11.283,,1285,189,303
02:17:11.320,,1360,277,317
02:17:11.357,,1104,330,270
02:17:11.394,,1116,261,206
02:17:11.432,,1306,145,156
02:17:11.469,,1264,75,134
02:17:11.506,,1094,102,133
02:17:11.543,,965,156,123
02:17:11.580,,860,186,107
02:17:11.617,,803,188,83
02:17:11.654,,796,162,75
02:17:11.691,,743,146,77
02:17:11.728,,797,185,79
02:17:11.765,,854,190,89
02:17:11.802,,790,200,124
02:17:11.839,,884,225,155
02:17:11.876,,1057,232,236
02:17:11.913,,1074,226,452
02:17:11.950,,970,163,424
02:17:11.987,,1032,-26,232
02:17:12.024,,1083,-128,265
02:17:12.061,,975,-42,409
02:17:12.098,,863,173,430
02:17:12.135,,815,252,416
02:17:12.172,,820,174,435
02:17:12.209,,841,101,451
02:17:12.246,,837,99,455
02:17:12.283,,858,132,452
02:17:12.320,,1051,158,439
02:17:12.358,,1174,103,359
02:17:12.395,,1237,118,276
02:17:12.432,,1293,201,283
02:17:12.469,,1108,296,305
02:17:12.506,,890,312,270
02:17:12.543,,1039,252,246
02:17:12.580,,1263,122,205
02:17:12.617,,1131,46,170
02:17:12.654,,962,60,185
02:17:12.691,,883,111,179
02:17:12.728,,808,142,152
02:17:12.765,,718,132,146
02:17:12.802,,649,130,171
02:17:12.839,,788,213,195
02:17:12.876,,911,282,203
02:17:12.913,,951,369,270
02:17:12.950,,886,432,427
02:17:12.987,,799,518,598
02:17:13.024,,753,528,549
02:17:13.061,,783,439,592
02:17:13.098,,699,371,593
02:17:13.135,,639,435,585
02:17:13.172,,606,475,569
02:17:13.209,,615,462,543
02:17:13.246,,632,450,533
02:17:13.284,,631,472,518
02:17:13.321,,571,472,518
02:17:13.358,,552,473,493
02:17:13.395,,647,482,454
02:17:13.432,,771,481,416
02:17:13.469,,851,472,364
02:17:13.506,,848,479,307
02:17:13.543,,950,546,269
02:17:13.580,,981,599,262
02:17:13.617,,912,581,209
02:17:13.654,,949,500,192
02:17:13.691,,967,403,203
02:17:13.728,,894,310,169
02:17:13.765,,860,282,155
02:17:13.802,,856,338,153
02:17:13.839,,833,398,143
02:17:13.876,,835,453,136
02:17:13.913,,833,471,158
02:17:13.950,,826,448,179
02:17:13.987,,848,412,194
02:17:14.024,,872,362,214
02:17:14.061,,892,319,224
02:17:14.098,,934,294,253
02:17:14.135,,1009,299,280
02:17:14.172,,1122,304,321
02:17:14.209,,1156,288,367
02:17:14.246,,877,234,387
02:17:14.284,,723,188,295
02:17:14.321,,858,135,215
02:17:14.358,,1120,103,205
02:17:14.395,,1064,156,192
02:17:14.432,,888,243,168
02:17:14.469,,759,307,190
02:17:14.506,,737,295,156
02:17:14.543,,751,194,110
02:17:14.580,,735,160,134
02:17:14.617,,735,200,207
02:17:14.654,,754,259,272
02:17:14.691,,860,269,286
02:17:14.728,,1030,233,286
02:17:14.765,,1116,188,241
02:17:14.802,,1174,260,234
02:17:14.839,,1275,384,269
02:17:14.876,,1259,397,181
02:17:14.913,,1171,104,39
02:17:14.950,,933,-202,-74
02:17:14.987,,783,-748,2
02:17:15.024,,765,-458,-277
02:17:15.061,,921,396,-597
02:17:15.098,,857,333,-293
02:17:15.135,,668,-32,27
02:17:15.172,,1216,-148,263
02:17:15.209,,1138,280,228
02:17:15.246,,1222,464,40
02:17:15.284,,1361,491,127
02:17:15.321,,1426,299,137
02:17:15.358,,1222,143,309
02:17:15.395,,988,-189,446
02:17:15.432,,1014,-380,392
02:17:15.469,,1024,-9,496
02:17:15.506,,931,249,590
02:17:15.543,,937,399,540
02:17:15.580,,819,505,422
02:17:15.617,,651,481,317
02:17:15.654,,547,569,224
02:17:15.691,,464,696,253
02:17:15.728,,349,674,242
02:17:15.765,,199,746,224
02:17:15.802,,260,905,267
02:17:15.839,,237,951,238
02:17:15.876,,71,932,131
02:17:15.913,,-63,989,183
02:17:15.950,,-221,879,261
02:17:15.987,,-189,697,328
02:17:16.024,,-193,560,390
02:17:16.061,,-114,452,754
02:17:16.098,,-91,969,190
02:17:16.135,,-52,1000,140
02:17:16.172,,-134,751,336
02:17:16.209,,-95,924,422
02:17:16.246,,-50,856,248
02:17:16.284,,-165,837,187
02:17:16.321,,-110,870,171
02:17:16.358,,-72,799,146
02:17:16.395,,-150,876,159
02:17:16.432,,-90,1064,498
02:17:16.469,,23,1033,549
02:17:16.506,,10,991,428
02:17:16.543,,-22,1208,398
02:17:16.580,,22,1166,476
02:17:16.617,,12,931,377
02:17:16.654,,-43,761,290
02:17:16.691,,-97,707,237
02:17:16.728,,-134,677,172
02:17:16.765,,-138,592,126
02:17:16.802,,-108,773,178
02:17:16.839,,-70,1144,173
02:17:16.876,,-79,1299,160
02:17:16.913,,-175,1172,140
02:17:16.950,,-160,1214,153
02:17:16.987,,-201,1016,229
02:17:17.024,,-248,881,333
02:17:17.061,,-169,1016,362
02:17:17.098,,29,1034,579
02:17:17.135,,257,975,552
02:17:17.172,,258,858,249
02:17:17.209,,143,814,201
02:17:17.246,,31,867,261
02:17:17.284,,37,765,141
02:17:17.321,,150,567,75
02:17:17.358,,217,486,244
02:17:17.395,,156,643,195
02:17:17.432,,172,652,78
02:17:17.469,,282,623,30
02:17:17.506,,634,789,380
02:17:17.543,,863,742,404
02:17:17.580,,1055,791,414
02:17:17.617,,927,771,367
02:17:17.654,,948,686,612
02:17:17.691,,723,585,270
02:17:17.728,,842,561,553
02:17:17.765,,815,173,532
02:17:17.802,,890,167,502
02:17:17.839,,900,228,527
02:17:17.876,,990,274,468
02:17:17.913,,1194,278,383
02:17:17.950,,1250,312,233
02:17:17.987,,1432,343,199
02:17:18.024,,1353,438,166
02:17:18.061,,1199,568,111
02:17:18.098,,1120,529,47
02:17:18.135,,1120,421,78
02:17:18.172,,1063,366,87
02:17:18.210,,961,345,64
02:17:18.247,,916,304,68
02:17:18.284,,887,243,76
02:17:18.321,,833,198,79
02:17:18.358,,758,169,86
02:17:18.395,,685,158,111
02:17:18.432,,719,163,122
02:17:18.469,,783,154,133
02:17:18.506,,894,180,175
02:17:18.543,,1058,195,213
02:17:18.580,,1120,173,306
02:17:18.617,,1341,181,435
02:17:18.654,,1364,186,287
02:17:18.691,,1206,156,166
02:17:18.728,,1001,114,295
02:17:18.765,,843,259,288
02:17:18.802,,770,349,193
02:17:18.839,,760,325,232
02:17:18.876,,789,322,305
02:17:18.913,,804,297,387
02:17:18.950,,831,309,424
02:17:18.987,,1051,374,470
02:17:19.024,,1305,297,390
02:17:19.061,,1455,176,363
02:17:19.099,,1378,138,424
02:17:19.136,,1252,267,391
02:17:19.173,,1264,326,292
02:17:19.210,,1412,217,256
02:17:19.247,,1502,83,230
02:17:19.284,,1353,-1,160
02:17:19.321,,1124,69,123
02:17:19.358,,1039,150,131
02:17:19.395,,919,187,112
02:17:19.432,,760,173,66
02:17:19.469,,617,139,35
02:17:19.506,,478,114,21
02:17:19.543,,433,159,33
02:17:19.580,,477,246,93
02:17:19.617,,609,337,190
02:17:19.654,,806,460,353
02:17:19.691,,999,447,430
02:17:19.728,,1211,415,478
02:17:19.765,,1389,271,535
02:17:19.802,,1373,169,493
02:17:19.839,,1177,113,511
02:17:19.877,,934,178,451
02:17:19.914,,785,161,370
02:17:19.951,,704,197,323
02:17:19.988,,715,266,338
02:17:20.025,,756,280,368
02:17:20.062,,746,262,405
02:17:20.099,,793,252,405
02:17:20.136,,1026,268,393
02:17:20.173,,1314,215,310
02:17:20.210,,1488,178,321
02:17:20.247,,1339,255,376
02:17:20.284,,1151,345,296
02:17:20.321,,1195,330,221
02:17:20.358,,1238,190,208
02:17:20.395,,1097,115,179
02:17:20.432,,912,167,158
02:17:20.469,,800,219,140
02:17:20.506,,742,237,121
02:17:20.543,,671,241,104
02:17:20.580,,574,228,87
02:17:20.617,,491,257,109
02:17:20.654,,463,317,143
02:17:20.691,,583,369,173
02:17:20.728,,728,406,207
02:17:20.765,,980,487,296
02:17:20.803,,1242,473,446
02:17:20.840,,1407,423,580
02:17:20.877,,1131,271,629
02:17:20.914,,1038,359,440
02:17:20.951,,1078,286,289
02:17:20.988,,946,394,318
02:17:21.025,,670,392,242
02:17:21.062,,546,473,187
02:17:21.099,,585,391,187
02:17:21.136,,698,325,208
02:17:21.173,,702,254,217
02:17:21.210,,651,198,262
02:17:21.247,,684,204,248
02:17:21.284,,923,436,268
02:17:21.321,,1099,567,225
02:17:21.358,,1265,525,207
02:17:21.395,,1289,519,329
02:17:21.432,,1082,572,369
02:17:21.469,,847,466,348
02:17:21.506,,1068,11,281
02:17:21.543,,1000,179,323
02:17:21.580,,954,311,219
02:17:21.617,,865,284,155
02:17:21.654,,791,181,125
02:17:21.691,,726,144,119
02:17:21.728,,691,163,108
02:17:21.766,,655,188,93
02:17:21.803,,726,207,94
02:17:21.840,,1010,205,75
02:17:21.877,,1184,194,67
02:17:21.914,,1320,257,83
02:17:21.951,,1397,314,137
02:17:21.988,,1174,365,352
02:17:22.025,,911,323,481
02:17:22.062,,911,164,269
02:17:22.099,,951,0,136
02:17:22.136,,783,-41,165
02:17:22.173,,660,44,243
02:17:22.210,,650,214,263
02:17:22.247,,703,287,274
02:17:22.284,,732,253,279
02:17:22.321,,790,202,302
02:17:22.358,,797,182,322
02:17:22.395,,965,191,348
02:17:22.432,,1166,159,355
02:17:22.469,,1275,118,233
02:17:22.506,,1225,163,267
02:17:22.543,,1090,300,406
02:17:22.580,,989,423,321
02:17:22.617,,1128,366,219
02:17:22.655,,1160,178,243
02:17:22.692,,1107,69,184
02:17:22.729,,1073,75,155
02:17:22.766,,1086,136,143
02:17:22.803,,961,173,119
02:17:22.840,,780,176,83
02:17:22.877,,640,169,57
02:17:22.914,,592,188,78
02:17:22.951,,727,231,103
02:17:22.988,,900,225,98
02:17:23.025,,951,249,142
02:17:23.062,,1033,237,189
02:17:23.099,,1162,257,267
02:17:23.136,,1131,261,393
02:17:23.173,,921,258,416
02:17:23.210,,947,146,238
02:17:23.247,,1141,-27,127
02:17:23.284,,1146,-13,135
02:17:23.321,,952,117,205
02:17:23.358,,806,330,265
02:17:23.395,,721,431,257
02:17:23.432,,717,356,255
02:17:23.469,,767,239,313
02:17:23.506,,789,165,372
02:17:23.543,,838,154,399
02:17:23.580,,1051,194,419
02:17:23.617,,1269,139,346
02:17:23.655,,1299,73,244
02:17:23.692,,1289,134,283
02:17:23.729,,1082,279,326
02:17:23.766,,884,391,228
02:17:23.803,,1087,404,179
02:17:23.840,,1250,246,131
02:17:23.877,,1073,137,86
02:17:23.914,,902,92,79
02:17:23.951,,910,163,88
02:17:23.988,,916,229,65
02:17:24.025,,824,226,43
02:17:24.062,,713,189,45
02:17:24.099,,643,186,62
02:17:24.136,,766,220,85
02:17:24.173,,900,217,111
02:17:24.210,,999,227,158
02:17:24.247,,1147,235,209
02:17:24.284,,1337,241,273
02:17:24.321,,1147,192,401
02:17:24.358,,855,177,400
02:17:24.395,,960,72,304
02:17:24.432,,1063,-49,173
02:17:24.469,,1035,4,174
02:17:24.506,,950,150,226
02:17:24.543,,844,324,237
02:17:24.580,,775,379,231
02:17:24.617,,757,285,268
02:17:24.655,,735,191,305
02:17:24.692,,756,142,331
02:17:24.729,,915,147,355
02:17:24.766,,1163,134,346
02:17:24.803,,1304,70,222
02:17:24.840,,1190,97,213
02:17:24.877,,1062,167,258
02:17:24.914,,959,269,190
02:17:24.951,,1117,288,157
02:17:24.988,,1212,200,190
02:17:25.025,,1079,160,236
02:17:25.062,,965,162,235
02:17:25.099,,942,126,217
02:17:25.136,,885,72,177
02:17:25.173,,812,33,170
02:17:25.210,,698,59,184
02:17:25.247,,670,136,195
02:17:25.284,,741,194,152
02:17:25.321,,747,227,112
02:17:25.358,,764,300,98
02:17:25.395,,935,396,102
02:17:25.432,,1489,531,87
02:17:25.469,,1469,550,40
02:17:25.506,,1079,459,190
02:17:25.543,,824,402,317
02:17:25.580,,774,421,226
02:17:25.617,,877,308,222
02:17:25.655,,953,180,293
02:17:25.692,,979,187,391
02:17:25.729,,977,258,535
02:17:25.766,,945,211,497
02:17:25.803,,963,99,427
02:17:25.840,,986,16,357
02:17:25.877,,982,6,320
02:17:25.914,,927,65,308
02:17:25.951,,886,147,286
02:17:25.988,,885,185,226
02:17:26.025,,869,200,159
02:17:26.062,,817,220,117
02:17:26.099,,859,280,85
02:17:26.136,,985,372,60
02:17:26.173,,1247,481,49
02:17:26.210,,1219,547,132
02:17:26.247,,936,518,230
02:17:26.284,,878,435,87
02:17:26.321,,1061,371,34
02:17:26.358,,1143,188,93
02:17:26.395,,1084,74,129
02:17:26.432,,986,75,135
02:17:26.469,,932,134,131
02:17:26.506,,893,195,133
02:17:26.543,,851,217,127
02:17:26.580,,801,205,129
02:17:26.617,,775,174,133
02:17:26.655,,812,160,123
02:17:26.692,,902,154,135
02:17:26.729,,1017,163,154
02:17:26.766,,1119,198,179
02:17:26.803,,1300,238,203
02:17:26.840,,1218,221,308
02:17:26.877,,805,230,445
02:17:26.914,,731,188,337
02:17:26.951,,892,87,110
02:17:26.988,,1051,20,55
02:17:27.025,,1045,73,201
02:17:27.062,,951,228,344
02:17:27.099,,857,353,307
02:17:27.136,,841,337,249
02:17:27.173,,889,217,231
02:17:27.210,,879,96,205
02:17:27.247,,850,44,220
02:17:27.284,,917,75,235
02:17:27.321,,1029,117,229
02:17:27.358,,1130,126,204
02:17:27.395,,1188,142,177
02:17:27.432,,1143,220,225
02:17:27.469,,985,292,237
02:17:27.506,,1014,318,159
02:17:27.543,,1132,251,190
02:17:27.580,,1093,160,237
02:17:27.617,,931,103,233
02:17:27.654,,838,73,215
02:17:27.692,,791,74,190
02:17:27.729,,757,91,191
02:17:27.766,,727,114,206
02:17:27.803,,681,146,201
02:17:27.840,,725,190,151
02:17:27.877,,887,263,104
02:17:27.914,,975,354,124
02:17:27.951,,1085,404,187
02:17:27.988,,1394,431,122
02:17:28.025,,1344,375,93
02:17:28.062,,797,301,413
02:17:28.099,,788,344,448
02:17:28.136,,911,343,361
02:17:28.173,,920,120,381
02:17:28.210,,807,12,457
02:17:28.247,,822,159,551
02:17:28.284,,903,242,559
02:17:28.321,,993,30,523
02:17:28.358,,1003,69,375
02:17:28.395,,952,-1,282
02:17:28.432,,882,17,249
02:17:28.469,,822,148,237
02:17:28.506,,811,198,204
02:17:28.543,,873,203,177
02:17:28.580,,896,194,145
02:17:28.617,,878,202,124
02:17:28.654,,869,222,117
02:17:28.692,,953,277,106
02:17:28.729,,1063,371,121
02:17:28.766,,1088,433,240
02:17:28.803,,917,464,368
02:17:28.840,,1020,390,211
02:17:28.877,,1288,228,137
02:17:28.914,,1309,-71,121
02:17:28.951,,1156,-95,221
02:17:28.988,,1018,-3,250
02:17:29.025,,893,177,201
02:17:29.062,,849,229,190
02:17:29.099,,832,173,186
02:17:29.136,,782,121,171
02:17:29.173,,758,91,171
02:17:29.210,,748,112,165
02:17:29.247,,826,146,178
02:17:29.284,,898,175,218
02:17:29.321,,1015,190,275
02:17:29.358,,1237,191,304
02:17:29.395,,1462,159,302
02:17:29.432,,1097,142,345
02:17:29.469,,845,142,343
02:17:29.506,,950,112,197
02:17:29.543,,970,129,94
02:17:29.580,,881,127,132
02:17:29.617,,821,214,189
02:17:29.655,,757,321,229
02:17:29.692,,700,354,235
02:17:29.729,,700,318,256
02:17:29.766,,739,244,338
02:17:29.803,,804,163,325
02:17:29.840,,1079,154,368
02:17:29.877,,1299,104,347
02:17:29.914,,1419,123,263
02:17:29.951,,1375,179,361
02:17:29.988,,928,278,390
02:17:30.025,,777,310,243
02:17:30.062,,1015,258,131
02:17:30.099,,1138,142,78
02:17:30.136,,1052,128,60
02:17:30.173,,1030,162,8
02:17:30.210,,930,192,11
02:17:30.247,,779,189,5
02:17:30.284,,712,154,27
02:17:30.321,,701,172,42
02:17:30.358,,775,204,42
02:17:30.395,,964,216,6
02:17:30.432,,1125,170,-58
02:17:30.469,,1253,284,37
02:17:30.506,,1339,281,139
02:17:30.544,,1205,272,341
02:17:30.581,,766,211,437
02:17:30.618,,647,66,235
02:17:30.655,,866,-107,97
02:17:30.692,,1006,-158,95
02:17:30.729,,961,34,171
02:17:30.766,,878,192,307
02:17:30.803,,797,312,350
02:17:30.840,,738,302,246
02:17:30.877,,726,218,218
02:17:30.914,,738,116,233
02:17:30.951,,776,91,242
02:17:30.988,,958,131,256
02:17:31.025,,1180,160,247
02:17:31.062,,1229,186,169
02:17:31.099,,1286,266,206
02:17:31.136,,1264,366,323
02:17:31.173,,959,397,244
02:17:31.210,,918,275,118
02:17:31.247,,1111,136,69
02:17:31.284,,1069,116,66
02:17:31.321,,988,163,99
02:17:31.358,,937,112,92
02:17:31.395,,863,49,50
02:17:31.432,,740,60,6
02:17:31.469,,723,122,35
02:17:31.507,,760,145,54
02:17:31.544,,808,174,48
02:17:31.581,,969,177,20
02:17:31.618,,1110,202,12
02:17:31.655,,1196,233,80
02:17:31.692,,1291,272,199
02:17:31.729,,1312,279,294
02:17:31.766,,886,224,376
02:17:31.803,,730,148,362
02:17:31.840,,909,55,219
02:17:31.877,,1051,-41,92
02:17:31.914,,951,-30,99
02:17:31.951,,846,95,200
02:17:31.988,,795,242,267
02:17:32.025,,744,314,243
02:17:32.062,,718,295,194
02:17:32.099,,743,233,203
02:17:32.136,,796,0,247
02:17:32.173,,929,-39,218
02:17:32.210,,1195,98,228
02:17:32.247,,1331,223,155
02:17:32.284,,1374,281,124
02:17:32.321,,1292,298,207
02:17:32.358,,898,347,266
02:17:32.395,,693,315,191
02:17:32.432,,846,224,125
02:17:32.470,,1114,140,86
02:17:32.507,,1101,68,50
02:17:32.544,,990,65,75
02:17:32.581,,873,106,102
02:17:32.618,,819,152,72
02:17:32.655,,754,147,43
02:17:32.692,,728,122,52
02:17:32.729,,751,113,60
02:17:32.766,,926,147,23
02:17:32.803,,1180,161,-17
02:17:32.840,,1290,205,30
02:17:32.877,,1382,238,153
02:17:32.914,,1399,221,228
02:17:32.951,,790,189,378
02:17:32.988,,550,119,353
02:17:33.025,,743,-14,192
02:17:33.062,,1042,-130,20
02:17:33.099,,1028,-38,21
02:17:33.136,,875,122,222
02:17:33.173,,776,274,306
02:17:33.210,,725,288,241
02:17:33.247,,762,247,190
02:17:33.284,,812,173,190
02:17:33.321,,809,53,214
02:17:33.358,,879,-16,251
02:17:33.396,,1136,55,301
02:17:33.433,,1309,231,215
02:17:33.470,,1268,206,143
02:17:33.507,,1242,197,198
02:17:33.544,,962,259,240
02:17:33.581,,781,297,169
02:17:33.618,,935,270,122
02:17:33.655,,1150,139,95
02:17:33.692,,1063,23,23
02:17:33.729,,902,-15,13
02:17:33.766,,840,16,15
02:17:33.803,,801,71,-7
02:17:33.840,,835,83,-31
02:17:33.877,,871,66,-21
02:17:33.914,,863,100,1
02:17:33.951,,888,139,4
02:17:33.988,,1077,161,-17
02:17:34.025,,1277,180,-11
02:17:34.062,,1318,226,87
02:17:34.099,,1447,231,183
02:17:34.136,,1029,169,334
02:17:34.173,,588,39,313
02:17:34.210,,620,-176,101
02:17:34.247,,802,-174,-23
02:17:34.284,,1018,-34,2
02:17:34.322,,1010,169,169
02:17:34.359,,846,246,224
02:17:34.396,,761,179,157
02:17:34.433,,780,123,166
02:17:34.470,,838,23,146
02:17:34.507,,861,132,147
02:17:34.544,,874,116,194
02:17:34.581,,1036,177,207
02:17:34.618,,1219,241,157
02:17:34.655,,1227,180,102
02:17:34.692,,1253,172,105
02:17:34.729,,1227,245,176
02:17:34.766,,967,305,186
02:17:34.803,,857,246,101
02:17:34.840,,1024,118,59
02:17:34.877,,1076,3,18
02:17:34.914,,958,13,17
02:17:34.951,,864,114,40
02:17:34.988,,835,193,20
02:17:35.025,,843,152,-44
02:17:35.062,,881,109,-61
02:17:35.099,,892,148,-37
02:17:35.136,,849,196,-16
02:17:35.173,,930,203,-27
02:17:35.210,,1072,200,-20
02:17:35.247,,1196,256,15
02:17:35.285,,1242,281,90
02:17:35.322,,1319,268,166
02:17:35.359,,950,236,319
02:17:35.396,,686,177,318
02:17:35.433,,843,82,177
02:17:35.470,,978,-100,40
02:17:35.507,,939,-107,28
02:17:35.544,,908,45,103
02:17:35.581,,845,247,234
02:17:35.618,,799,304,193
02:17:35.655,,838,222,106
02:17:35.692,,864,72,111
02:17:35.729,,829,56,88
02:17:35.766,,837,-7,131
02:17:35.803,,974,89,157
02:17:35.840,,1160,217,156
02:17:35.877,,1255,227,83
02:17:35.914,,1237,239,68
02:17:35.951,,1105,316,167
02:17:35.988,,877,422,269
02:17:36.025,,995,406,189
02:17:36.062,,1175,232,91
02:17:36.099,,1100,90,81
02:17:36.136,,926,35,157
02:17:36.174,,831,95,163
02:17:36.211,,813,147,108
02:17:36.248,,873,159,109
02:17:36.285,,930,149,112
02:17:36.322,,888,150,93
02:17:36.359,,944,190,69
02:17:36.396,,1053,228,54
02:17:36.433,,1110,250,112
02:17:36.470,,1179,221,161
02:17:36.507,,1271,156,139
02:17:36.544,,1061,111,352
02:17:36.581,,947,-4,224
02:17:36.618,,910,-87,66
02:17:36.655,,741,-47,77
02:17:36.692,,739,57,153
02:17:36.729,,793,196,198
02:17:36.766,,829,267,171
02:17:36.803,,845,261,143
02:17:36.840,,823,212,140
02:17:36.877,,789,207,111
02:17:36.914,,825,306,158
02:17:36.951,,921,412,254
02:17:36.988,,1089,476,311
02:17:37.025,,1180,485,358
02:17:37.063,,1134,585,432
02:17:37.100,,1045,651,532
02:17:37.137,,1159,572,501
02:17:37.174,,1192,361,459
02:17:37.211,,1098,178,406
02:17:37.248,,932,146,340
02:17:37.285,,825,158,297
02:17:37.322,,769,172,278
02:17:37.359,,776,172,242
02:17:37.396,,822,164,166
02:17:37.433,,922,152,114
02:17:37.470,,1027,158,66
02:17:37.507,,889,203,58
02:17:37.544,,906,234,59
02:17:37.581,,1004,270,20
02:17:37.618,,1091,306,85
02:17:37.655,,956,315,280
02:17:37.692,,849,305,376
02:17:37.729,,938,208,222
02:17:37.766,,1081,28,95
02:17:37.803,,1025,-105,184
02:17:37.840,,870,-112,352
02:17:37.877,,801,26,435
02:17:37.915,,777,133,430
02:17:37.952,,807,-48,532
02:17:37.989,,763,-30,577
02:17:38.026,,702,85,485
02:17:38.063,,900,163,452
02:17:38.100,,1209,231,380
02:17:38.137,,1210,89,229
02:17:38.174,,1246,104,144
02:17:38.211,,1372,197,155
02:17:38.248,,1062,392,225
02:17:38.285,,820,436,217
02:17:38.322,,954,390,188
02:17:38.359,,1086,258,130
02:17:38.396,,1039,128,78
02:17:38.433,,1000,57,97
02:17:38.470,,929,105,118
02:17:38.507,,905,185,111
02:17:38.544,,917,202,102
02:17:38.581,,881,168,128
02:17:38.618,,857,144,154
02:17:38.655,,1021,140,164
02:17:38.692,,1158,120,191
02:17:38.729,,1154,122,236
02:17:38.766,,1120,97,264
02:17:38.804,,1118,59,285
02:17:38.841,,980,47,355
02:17:38.878,,884,41,381
02:17:38.915,,917,30,273
02:17:38.952,,864,97,196
02:17:38.989,,771,151,248
02:17:39.026,,795,189,329
02:17:39.063,,791,207,371
02:17:39.100,,749,216,285
02:17:39.137,,746,225,253
02:17:39.174,,780,273,238
02:17:39.211,,818,360,223
02:17:39.248,,840,430,273
02:17:39.285,,916,437,381
02:17:39.322,,1018,359,443
02:17:39.359,,1081,292,360
02:17:39.396,,1044,355,387
02:17:39.433,,1119,541,497
02:17:39.470,,938,568,622
02:17:39.507,,959,475,564
02:17:39.544,,1354,333,440
02:17:39.582,,1562,102,339
02:17:39.619,,1396,-67,328
02:17:39.656,,1147,-10,275
02:17:39.693,,1148,71,265
02:17:39.730,,1006,137,200
02:17:39.767,,986,159,181
02:17:39.804,,908,133,146
02:17:39.841,,821,111,114
02:17:39.878,,685,111,100
02:17:39.915,,547,174,110
02:17:39.952,,509,246,158
02:17:39.989,,626,313,223
02:17:40.026,,763,366,330
02:17:40.063,,784,355,404
02:17:40.100,,829,312,383
02:17:40.137,,990,226,409
02:17:40.174,,1108,180,508
02:17:40.211,,1091,262,596
02:17:40.248,,1038,309,643
02:17:40.285,,988,262,622
02:17:40.322,,979,186,601
02:17:40.359,,950,195,583
02:17:40.397,,877,255,533
02:17:40.434,,911,320,495
02:17:40.471,,1042,332,455
02:17:40.508,,1206,307,325
02:17:40.545,,1356,279,232
02:17:40.582,,1321,315,242
02:17:40.619,,1091,403,276
02:17:40.656,,870,449,192
02:17:40.693,,994,410,100
02:17:40.730,,1175,277,91
02:17:40.767,,1091,167,93
02:17:40.804,,968,144,103
02:17:40.841,,917,186,114
02:17:40.878,,902,219,104
02:17:40.915,,871,201,96
02:17:40.952,,803,158,98
02:17:40.989,,817,150,100
02:17:41.026,,977,175,86
02:17:41.063,,1039,169,111
02:17:41.100,,1085,203,149
02:17:41.137,,1123,194,232
02:17:41.174,,972,189,426
02:17:41.211,,873,168,499
02:17:41.249,,950,60,294
02:17:41.286,,959,-54,140
02:17:41.323,,819,-91,176
02:17:41.360,,717,-28,288
02:17:41.397,,738,172,323
02:17:41.434,,785,279,320
02:17:41.471,,833,271,369
02:17:41.508,,857,197,451
02:17:41.545,,868,166,481
02:17:41.582,,1173,155,497
02:17:41.619,,1387,84,436
02:17:41.656,,1336,28,332
02:17:41.693,,1252,80,401
02:17:41.730,,1055,237,404
02:17:41.767,,1120,323,323
02:17:41.804,,1346,231,293
02:17:41.841,,1263,97,252
02:17:41.878,,1008,26,219
02:17:41.915,,880,68,176
02:17:41.952,,865,128,133
02:17:41.989,,829,155,88
02:17:42.026,,798,159,78
02:17:42.063,,722,154,84
02:17:42.101,,709,180,82
02:17:42.138,,783,215,63
02:17:42.175,,795,248,80
02:17:42.212,,917,305,124
02:17:42.249,,1034,312,211
02:17:42.286,,1051,367,478
02:17:42.323,,1056,325,565
02:17:42.360,,1161,85,71
02:17:42.397,,1173,-254,-33
02:17:42.434,,1032,-291,195
02:17:42.471,,894,-29,412
02:17:42.508,,818,435,360
02:17:42.545,,792,502,300
02:17:42.582,,843,349,345
02:17:42.619,,844,185,394
02:17:42.656,,823,130,408
02:17:42.693,,1074,132,444
02:17:42.730,,1306,83,391
02:17:42.767,,1290,20,259
02:17:42.804,,1232,95,284
02:17:42.842,,1088,245,350
02:17:42.879,,960,384,299
02:17:42.916,,1107,391,222
02:17:42.953,,1279,226,215
02:17:42.990,,1200,82,138
02:17:43.027,,1054,42,122
02:17:43.064,,974,98,121
02:17:43.101,,882,178,96
02:17:43.138,,769,204,60
02:17:43.175,,670,190,34
02:17:43.212,,618,190,49
02:17:43.249,,750,213,68
02:17:43.286,,882,218,90
02:17:43.323,,995,257,145
02:17:43.360,,1088,272,219
02:17:43.397,,1138,270,334
02:17:43.434,,1005,235,481
02:17:43.471,,984,177,339
02:17:43.508,,1114,-49,174
02:17:43.545,,1106,-228,160
02:17:43.582,,966,-64,231
02:17:43.619,,854,280,275
02:17:43.657,,765,507,238
02:17:43.694,,752,492,239
02:17:43.731,,829,308,304
02:17:43.768,,868,185,339
02:17:43.805,,886,157,373
02:17:43.842,,1129,171,435
02:17:43.879,,1272,143,405
02:17:43.916,,1317,63,318
02:17:43.953,,1406,106,327
02:17:43.990,,1145,220,343
02:17:44.027,,899,306,285
02:17:44.064,,1014,329,267
02:17:44.101,,1179,230,272
02:17:44.138,,1086,121,194
02:17:44.175,,923,65,144
02:17:44.212,,837,61,146
02:17:44.249,,804,124,121
02:17:44.286,,799,162,102
02:17:44.323,,761,163,92
02:17:44.360,,743,162,92
02:17:44.397,,917,175,83
02:17:44.434,,995,166,90
02:17:44.471,,999,219,140
02:17:44.508,,1133,265,217
02:17:44.546,,1072,253,415
02:17:44.583,,947,199,519
02:17:44.620,,922,42,258
02:17:44.657,,999,-127,185
02:17:44.694,,962,-236,296
02:17:44.731,,836,-56,337
02:17:44.768,,763,266,285
02:17:44.805,,731,410,281
02:17:44.842,,746,377,303
02:17:44.879,,819,317,384
02:17:44.916,,832,256,395
02:17:44.953,,910,264,342
02:17:44.990,,1176,198,352
02:17:45.027,,1337,61,259
02:17:45.064,,1408,37,251
02:17:45.101,,1308,152,383
02:17:45.138,,1044,356,448
02:17:45.175,,1051,389,309
02:17:45.212,,1262,241,252
02:17:45.249,,1270,28,230
02:17:45.286,,1111,-37,198
02:17:45.323,,1028,20,183
02:17:45.360,,1036,94,158
02:17:45.398,,1012,134,124
02:17:45.435,,912,151,111
02:17:45.472,,787,164,115
02:17:45.509,,738,190,96
02:17:45.546,,718,212,51
02:17:45.583,,714,198,160
02:17:45.620,,891,160,255
02:17:45.657,,1047,141,288
02:17:45.694,,1178,120,326
02:17:45.731,,1061,-36,328
02:17:45.768,,873,-218,205
02:17:45.805,,840,-164,127
02:17:45.842,,780,21,171
02:17:45.879,,696,228,182
02:17:45.916,,728,410,231
02:17:45.953,,812,439,322
02:17:45.990,,888,356,450
02:17:46.027,,900,208,550
02:17:46.064,,834,46,543
02:17:46.101,,955,-36,546
02:17:46.138,,1210,-16,496
02:17:46.175,,1391,79,416
02:17:46.212,,1400,220,462
02:17:46.250,,1183,368,556
02:17:46.287,,1039,523,467
02:17:46.324,,1275,431,303
02:17:46.361,,1417,146,199
02:17:46.398,,1252,-111,154
02:17:46.435,,1122,-162,142
02:17:46.472,,1047,-23,115
02:17:46.509,,930,157,88
02:17:46.546,,803,262,138
02:17:46.583,,636,235,126
02:17:46.620,,513,207,17
02:17:46.657,,594,157,-2
02:17:46.694,,713,172,43
02:17:46.731,,876,244,57
02:17:46.768,,1032,296,117
02:17:46.805,,1143,322,292
02:17:46.842,,1309,322,476
02:17:46.879,,1330,297,210
02:17:46.916,,1217,101,17
02:17:46.953,,1049,-81,212
02:17:46.990,,898,-35,372
02:17:47.027,,836,226,340
02:17:47.065,,833,268,383
02:17:47.102,,831,203,477
02:17:47.139,,799,180,543
02:17:47.176,,858,212,571
02:17:47.213,,1172,246,608
02:17:47.250,,1395,171,447
02:17:47.287,,1563,81,281
02:17:47.324,,1484,119,266
02:17:47.361,,1168,264,237
02:17:47.398,,997,384,164
02:17:47.435,,1163,277,133
02:17:47.472,,1028,199,78
02:17:47.509,,935,153,45
02:17:47.546,,858,146,49
02:17:47.583,,768,187,48
02:17:47.620,,697,209,37
02:17:47.657,,670,194,38
02:17:47.694,,854,182,29
02:17:47.731,,1011,153,39
02:17:47.768,,1025,219,83
02:17:47.805,,1088,258,97
02:17:47.843,,1080,253,188
02:17:47.880,,1039,251,409
02:17:47.917,,1113,246,390
02:17:47.954,,1133,152,199
02:17:47.991,,938,-58,213
02:17:48.028,,774,-120,321
02:17:48.065,,745,98,342
02:17:48.102,,797,255,334
02:17:48.139,,879,231,396
02:17:48.176,,870,158,453
02:17:48.213,,806,158,481
02:17:48.250,,1054,190,538
02:17:48.287,,1351,120,454
02:17:48.324,,1377,10,242
02:17:48.361,,1300,75,278
02:17:48.398,,1113,286,312
02:17:48.435,,1244,469,193
02:17:48.472,,1323,379,128
02:17:48.509,,1125,200,140
02:17:48.546,,897,124,145
02:17:48.583,,805,177,130
02:17:48.620,,843,181,94
02:17:48.657,,858,127,56
02:17:48.694,,816,81,54
02:17:48.732,,791,98,58
02:17:48.769,,899,163,15
02:17:48.806,,937,205,-24
02:17:48.843,,957,312,37
02:17:48.880,,998,376,183
02:17:48.917,,996,373,390
02:17:48.954,,999,310,612
02:17:48.991,,976,122,229
02:17:49.028,,1046,-231,187
02:17:49.065,,945,-393,219
02:17:49.102,,850,-73,307
02:17:49.139,,814,366,342
02:17:49.176,,772,549,323
02:17:49.213,,807,446,309
02:17:49.250,,861,272,356
02:17:49.287,,849,118,352
02:17:49.324,,886,95,337
02:17:49.361,,1082,126,335
02:17:49.398,,1143,136,280
02:17:49.435,,1168,127,196
02:17:49.472,,1164,213,254
02:17:49.509,,1041,392,373
02:17:49.547,,1052,488,326
02:17:49.584,,1313,392,258
02:17:49.621,,1437,116,202
02:17:49.658,,1289,-106,172
02:17:49.695,,1066,-164,157
02:17:49.732,,935,-61,139
02:17:49.769,,791,91,124
02:17:49.806,,648,217,119
02:17:49.843,,521,257,102
02:17:49.880,,534,238,75
02:17:49.917,,727,228,31
02:17:49.954,,911,242,12
02:17:49.991,,1032,324,63
02:17:50.028,,1236,368,180
02:17:50.065,,1250,418,380
02:17:50.102,,1011,373,331
02:17:50.139,,1024,72,156
02:17:50.176,,1152,-153,146
02:17:50.213,,1067,-109,226
02:17:50.250,,804,140,354
02:17:50.287,,625,309,385
02:17:50.324,,595,303,391
02:17:50.362,,691,158,430
02:17:50.399,,847,-15,502
02:17:50.436,,822,175,504
02:17:50.473,,979,192,488
02:17:50.510,,1252,310,328
02:17:50.547,,1398,397,157
02:17:50.584,,1405,447,183
02:17:50.621,,1089,487,216
02:17:50.658,,864,504,137
02:17:50.695,,969,472,90
02:17:50.732,,1071,391,77
02:17:50.769,,1031,261,59
02:17:50.806,,960,157,73
02:17:50.843,,925,119,74
02:17:50.880,,897,120,56
02:17:50.917,,863,144,51
02:17:50.954,,802,175,69
02:17:50.991,,717,195,103
02:17:51.028,,772,204,119
02:17:51.065,,894,186,137
02:17:51.102,,940,187,173
02:17:51.139,,1034,208,209
02:17:51.177,,1194,248,284
02:17:51.214,,1180,247,427
02:17:51.251,,1067,238,403
02:17:51.288,,1090,153,222
02:17:51.325,,1015,68,147
02:17:51.362,,860,29,167
02:17:51.399,,759,102,205
02:17:51.436,,727,257,213
02:17:51.473,,735,333,236
02:17:51.510,,773,284,315
02:17:51.547,,791,184,364
02:17:51.584,,812,136,375
02:17:51.621,,1024,150,405
02:17:51.658,,1298,96,381
02:17:51.695,,1394,40,219
02:17:51.732,,1340,101,229
02:17:51.769,,1113,246,315
02:17:51.806,,900,402,267
02:17:51.843,,1001,386,163
02:17:51.880,,1118,250,155
02:17:51.917,,1017,109,150
02:17:51.954,,894,62,133
02:17:51.992,,882,74,118
02:17:52.029,,877,121,101
02:17:52.066,,803,154,98
02:17:52.103,,683,174,109
02:17:52.140,,608,200,110
02:17:52.177,,690,233,106
02:17:52.214,,899,242,170
02:17:52.251,,1127,265,228
02:17:52.288,,1383,291,246
02:17:52.325,,1505,263,362
02:17:52.362,,1024,222,489
02:17:52.399,,831,126,276
02:17:52.436,,942,16,60
02:17:52.473,,935,13,39
02:17:52.510,,772,55,152
02:17:52.547,,692,225,257
02:17:52.584,,657,344,274
02:17:52.621,,660,325,254
02:17:52.658,,734,266,293
02:17:52.695,,746,182,340
02:17:52.732,,882,168,343
02:17:52.769,,1215,132,399
02:17:52.806,,1318,64,278
02:17:52.843,,1306,81,217
02:17:52.881,,1214,190,354
02:17:52.918,,1073,422,407
02:17:52.955,,1096,476,224
02:17:52.992,,1146,297,181
02:17:53.029,,1046,67,201
02:17:53.066,,890,-3,178
02:17:53.103,,855,55,141
02:17:53.140,,853,122,116
02:17:53.177,,817,159,102
02:17:53.214,,748,169,90
02:17:53.251,,713,172,66
02:17:53.288,,908,203,34
02:17:53.325,,1070,219,25
02:17:53.362,,1160,303,68
02:17:53.399,,1258,318,215
02:17:53.436,,1111,331,536
02:17:53.473,,939,253,496
02:17:53.510,,968,20,230
02:17:53.547,,962,-170,97
02:17:53.584,,794,-107,129
02:17:53.621,,668,117,241
02:17:53.658,,708,360,287
02:17:53.695,,780,372,233
02:17:53.732,,821,299,226
02:17:53.770,,817,209,327
02:17:53.807,,860,186,363
02:17:53.844,,1109,216,366
02:17:53.881,,1347,134,375
02:17:53.918,,1359,68,327
02:17:53.955,,1327,164,382
02:17:53.992,,1073,350,405
02:17:54.029,,1041,446,285
02:17:54.066,,1101,287,279
02:17:54.103,,1063,95,268
02:17:54.140,,906,49,205
02:17:54.177,,851,65,166
02:17:54.214,,911,107,121
02:17:54.251,,979,141,74
02:17:54.288,,903,161,78
02:17:54.325,,811,180,80
02:17:54.362,,899,214,92
02:17:54.399,,1033,247,82
02:17:54.436,,1165,261,123
02:17:54.473,,1173,213,175
