Sensors' Acquisition [Hz]: Acc@26.0 
hh:mm:ss.ms, Annotation , AccX [mg], AccY, AccZ
01:02:15.635,,509,656,109
01:02:15.672,,644,624,126
01:02:15.696,>Walk,,,
01:02:15.710,,836,570,111
01:02:15.747,,959,482,73
01:02:15.784,,997,404,1
01:02:15.821,,992,387,4
01:02:15.858,,956,387,29
01:02:15.895,,909,451,73
01:02:15.932,,792,451,150
01:02:15.969,,661,388,182
01:02:16.006,,631,374,149
01:02:16.043,,680,347,108
01:02:16.080,,747,435,121
01:02:16.117,,794,527,189
01:02:16.154,,701,559,245
01:02:16.191,,703,547,294
01:02:16.315,,1077,570,166
01:02:16.315,,1077,570,166
01:02:16.316,,1077,570,166
01:02:16.339,,1464,677,82
01:02:16.376,,1388,577,15
01:02:16.413,,989,522,21
01:02:16.450,,644,485,31
01:02:16.488,,657,443,-18
01:02:16.525,,772,430,-59
01:02:16.562,,830,464,-73
01:02:16.599,,856,510,-114
01:02:16.636,,878,497,-124
01:02:16.673,,882,508,-161
01:02:16.710,,829,565,-138
01:02:16.747,,800,641,-120
01:02:16.784,,774,703,-71
01:02:16.821,,744,642,-62
01:02:16.858,,695,598,-26
01:02:16.895,,653,551,55
01:02:16.932,,647,520,121
01:02:17.019,,964,418,39
01:02:17.019,,964,418,39
01:02:17.043,,1001,477,55
01:02:17.080,,865,575,289
01:02:17.117,,901,640,308
01:02:17.154,,960,536,180
01:02:17.191,,969,364,61
01:02:17.228,,865,433,116
01:02:17.266,,798,442,98
01:02:17.303,,789,446,37
01:02:17.340,,763,427,-5
01:02:17.377,,725,380,-53
01:02:17.414,,689,403,-8
01:02:17.451,,647,357,52
01:02:17.488,,660,397,70
01:02:17.525,,789,433,109
01:02:17.562,,869,368,88
01:02:17.599,,983,425,105
01:02:17.636,,1172,558,137
01:02:17.673,,1236,582,165
01:02:17.764,,939,591,163
01:02:17.764,,939,591,163
01:02:17.784,,857,541,60
01:02:17.821,,817,561,40
01:02:17.858,,790,547,-3
01:02:17.895,,773,517,-48
01:02:17.932,,793,534,-56
01:02:17.969,,834,537,-78
01:02:18.006,,912,508,-143
01:02:18.044,,986,474,-28
01:02:18.081,,1115,451,-109
01:02:18.118,,1224,387,-136
01:02:18.155,,1150,380,-143
01:02:18.192,,1033,361,-85
01:02:18.229,,1125,318,-87
01:02:18.266,,1005,285,-86
01:02:18.303,,599,331,112
01:02:18.340,,546,484,287
01:02:18.377,,755,381,174
01:02:18.463,,776,324,292
01:02:18.464,,776,324,292
01:02:18.488,,689,337,218
01:02:18.525,,649,395,202
01:02:18.562,,673,438,178
01:02:18.599,,698,561,183
01:02:18.636,,672,698,235
01:02:18.673,,618,713,229
01:02:18.710,,658,723,290
01:02:18.747,,888,694,217
01:02:18.785,,996,659,92
01:02:18.822,,1136,886,83
01:02:18.859,,943,860,150
01:02:18.896,,824,731,58
01:02:18.933,,782,690,16
01:02:18.970,,800,596,-35
01:02:19.007,,716,534,-49
01:02:19.044,,608,571,-21
01:02:19.081,,586,584,35
01:02:19.118,,658,606,-19
01:02:19.206,,694,528,115
01:02:19.206,,694,528,115
01:02:19.229,,700,565,64
01:02:19.266,,726,542,23
01:02:19.303,,749,588,5
01:02:19.340,,718,604,64
01:02:19.377,,971,575,94
01:02:19.414,,1351,537,28
01:02:19.451,,1042,492,247
01:02:19.488,,1032,440,285
01:02:19.525,,1103,294,48
01:02:19.562,,877,300,57
01:02:19.600,,749,446,116
01:02:19.637,,656,356,16
01:02:19.674,,577,458,52
01:02:19.711,,558,375,30
01:02:19.748,,583,420,81
01:02:19.785,,640,477,109
01:02:19.822,,709,494,212
01:02:19.859,,873,467,221
01:02:19.948,,1224,577,141
01:02:19.949,,1224,577,141
01:02:19.970,,1350,691,147
01:02:20.007,,1048,628,174
01:02:20.044,,829,474,170
01:02:20.081,,739,535,150
01:02:20.118,,866,571,87
01:02:20.155,,949,538,41
01:02:20.192,,909,454,32
01:02:20.229,,915,445,65
01:02:20.266,,957,394,78
01:02:20.303,,977,380,80
01:02:20.340,,931,310,91
01:02:20.378,,906,344,56
01:02:20.415,,880,405,33
01:02:20.452,,821,459,45
01:02:20.489,,760,498,53
01:02:20.526,,698,495,85
01:02:20.563,,703,475,168
01:02:20.600,,896,446,145
01:02:20.686,,858,467,275
01:02:20.687,,858,467,275
01:02:20.711,,836,491,361
01:02:20.748,,923,412,312
01:02:20.785,,969,313,254
01:02:20.822,,966,383,267
01:02:20.859,,884,359,200
01:02:20.896,,787,370,180
01:02:20.933,,764,361,183
01:02:20.970,,757,347,162
01:02:21.007,,768,370,177
01:02:21.044,,764,381,212
01:02:21.081,,746,403,242
01:02:21.118,,789,416,293
01:02:21.155,,800,407,296
01:02:21.193,,789,360,233
01:02:21.230,,1135,445,220
01:02:21.267,,1153,577,174
01:02:21.304,,1069,484,138
01:02:21.341,,870,470,170
01:02:21.433,,995,455,44
01:02:21.433,,995,455,44
01:02:21.452,,995,455,44
01:02:21.489,,1064,399,8
01:02:21.526,,971,341,4
01:02:21.563,,915,377,32
01:02:21.600,,893,380,2
01:02:21.637,,884,432,18
01:02:21.674,,866,400,-54
01:02:21.711,,802,525,-16
01:02:21.748,,739,565,-31
01:02:21.785,,674,553,0
01:02:21.822,,852,642,30
01:02:21.859,,806,643,97
01:02:21.896,,726,689,290
01:02:21.933,,866,579,254
01:02:21.971,,905,440,225
01:02:22.008,,822,387,192
01:02:22.045,,759,453,117
01:02:22.082,,682,516,115
01:02:22.119,,611,531,138
01:02:22.156,,637,558,151
01:02:22.193,,702,571,201
01:02:22.230,,786,566,183
01:02:22.267,,816,559,204
01:02:22.304,,756,494,223
01:02:22.341,,727,496,187
01:02:22.378,,738,495,208
01:02:22.415,,789,550,218
01:02:22.452,,892,498,163
01:02:22.489,,988,531,157
01:02:22.526,,821,500,110
01:02:22.563,,773,490,87
01:02:22.600,,778,539,56
01:02:22.637,,795,594,-11
01:02:22.674,,788,658,-8
01:02:22.711,,813,627,-42
01:02:22.749,,926,645,27
01:02:22.786,,901,545,25
01:02:22.823,,819,514,66
01:02:22.860,,817,569,90
01:02:22.897,,830,495,42
01:02:22.934,,789,519,83
01:02:22.971,,771,506,100
01:02:23.008,,799,503,72
01:02:23.045,,853,540,98
01:02:23.082,,914,494,52
01:02:23.119,,968,507,16
01:02:23.156,,847,535,39
01:02:23.193,,820,544,74
01:02:23.230,,892,524,125
01:02:23.267,,872,438,131
01:02:23.304,,800,398,101
01:02:23.341,,787,420,55
01:02:23.378,,787,446,63
01:02:23.415,,792,458,60
01:02:23.452,,762,524,111
01:02:23.489,,717,597,106
01:02:23.526,,728,528,139
01:02:23.564,,721,563,118
01:02:23.601,,680,606,102
01:02:23.638,,707,613,71
01:02:23.675,,769,646,54
01:02:23.712,,781,610,14
01:02:23.749,,840,582,-18
01:02:23.786,,870,585,-7
01:02:23.823,,829,628,9
01:02:23.860,,842,539,-36
01:02:23.897,,861,475,-66
01:02:23.934,,828,462,-103
01:02:23.971,,814,451,-104
01:02:24.008,,836,503,-115
01:02:24.045,,821,538,-114
01:02:24.082,,802,532,-111
01:02:24.119,,773,524,-108
01:02:24.156,,758,525,-103
01:02:24.193,,811,556,-110
01:02:24.230,,831,592,-96
01:02:24.268,,814,559,-74
01:02:24.305,,806,569,-23
01:02:24.342,,809,555,9
01:02:24.379,,894,479,13
01:02:24.416,,980,460,41
01:02:24.453,,1021,409,69
01:02:24.490,,970,349,64
01:02:24.527,,916,337,90
01:02:24.564,,915,411,109
01:02:24.601,,899,423,99
01:02:24.638,,920,298,86
01:02:24.675,,901,313,98
01:02:24.712,,820,277,84
01:02:24.749,,832,304,60
01:02:24.786,,797,350,84
01:02:24.823,,770,407,89
01:02:24.860,,761,424,130
01:02:24.897,,785,403,160
01:02:24.934,,792,400,163
01:02:24.972,,816,383,181
01:02:25.009,,987,431,166
01:02:25.046,,971,427,92
01:02:25.083,,860,406,59
01:02:25.120,,944,444,43
01:02:25.157,,977,442,0
01:02:25.194,,1011,447,-18
01:02:25.231,,988,423,-24
01:02:25.268,,913,411,24
01:02:25.305,,894,422,35
01:02:25.342,,909,379,2
01:02:25.379,,916,373,17
01:02:25.416,,921,385,42
01:02:25.453,,935,377,42
01:02:25.490,,926,367,65
01:02:25.527,,890,341,63
01:02:25.564,,935,376,41
01:02:25.601,,991,409,38
01:02:25.638,,938,430,83
01:02:25.675,,923,423,123
01:02:25.712,,918,415,128
01:02:25.750,,903,368,124
01:02:25.787,,906,300,110
01:02:25.824,,892,288,140
01:02:25.861,,860,324,135
01:02:25.898,,859,356,154
01:02:25.935,,874,337,158
01:02:25.972,,854,316,155
01:02:26.009,,854,321,168
01:02:26.046,,846,313,173
01:02:26.083,,834,315,170
01:02:26.120,,814,342,204
01:02:26.157,,767,384,273
01:02:26.194,,777,401,329
01:02:26.231,,837,408,285
01:02:26.268,,845,469,239
01:02:26.305,,900,482,185
01:02:26.342,,936,520,107
01:02:26.379,,800,514,55
01:02:26.416,,838,484,2
01:02:26.453,,899,503,-20
01:02:26.490,,982,476,-62
01:02:26.528,,995,453,-60
01:02:26.565,,965,438,-41
01:02:26.602,,893,441,-12
01:02:26.639,,859,415,14
01:02:26.676,,871,406,50
01:02:26.713,,889,412,39
01:02:26.750,,879,444,73
01:02:26.787,,866,459,105
01:02:26.824,,902,434,100
01:02:26.861,,1020,380,81
01:02:26.898,,1023,375,192
01:02:26.935,,1007,417,451
01:02:26.972,,1081,439,389
01:02:27.009,,957,334,263
01:02:27.046,,795,258,205
01:02:27.083,,810,327,208
01:02:27.120,,887,392,181
01:02:27.157,,857,411,116
01:02:27.194,,800,422,155
01:02:27.231,,781,387,144
01:02:27.269,,788,363,126
01:02:27.306,,766,377,138
01:02:27.343,,735,374,157
01:02:27.380,,738,380,187
01:02:27.417,,751,395,227
01:02:27.454,,743,415,250
01:02:27.491,,767,393,283
01:02:27.528,,806,387,262
01:02:27.565,,825,404,320
01:02:27.602,,815,370,337
01:02:27.639,,1043,389,311
01:02:27.676,,1003,451,261
01:02:27.713,,853,413,191
01:02:27.750,,957,434,162
01:02:27.787,,1063,503,96
01:02:27.824,,1052,448,46
01:02:27.861,,935,469,60
01:02:27.898,,913,454,15
01:02:27.936,,921,480,32
01:02:27.973,,884,432,35
01:02:28.010,,844,392,98
01:02:28.047,,848,431,83
01:02:28.084,,833,421,105
01:02:28.121,,829,431,138
01:02:28.158,,841,422,156
01:02:28.195,,829,415,175
01:02:28.232,,810,426,174
01:02:28.269,,811,427,187
01:02:28.306,,840,406,224
01:02:28.343,,1005,387,185
01:02:28.380,,963,429,204
01:02:28.417,,899,445,291
01:02:28.454,,1042,441,362
01:02:28.491,,993,319,230
01:02:28.528,,841,285,183
01:02:28.565,,836,309,153
01:02:28.603,,897,307,63
01:02:28.640,,883,333,94
01:02:28.677,,800,423,156
01:02:28.714,,761,393,143
01:02:28.751,,765,296,123
01:02:28.788,,786,366,149
01:02:28.825,,771,416,166
01:02:28.862,,778,358,189
01:02:28.899,,762,369,273
01:02:28.936,,773,380,285
01:02:28.973,,830,353,281
01:02:29.010,,956,475,266
01:02:29.047,,1136,457,207
01:02:29.084,,875,463,176
01:02:29.121,,1017,496,115
01:02:29.158,,1109,470,45
01:02:29.195,,945,456,6
01:02:29.232,,769,456,46
01:02:29.269,,803,469,32
01:02:29.307,,898,435,-29
01:02:29.344,,910,395,-17
01:02:29.381,,863,413,-12
01:02:29.418,,816,385,-11
01:02:29.455,,790,432,-25
01:02:29.492,,840,463,-11
01:02:29.529,,879,424,25
01:02:29.566,,908,420,29
01:02:29.603,,958,450,57
01:02:29.640,,959,442,85
01:02:29.677,,981,414,86
01:02:29.714,,1069,396,26
01:02:29.751,,1031,415,68
01:02:29.788,,995,494,177
01:02:29.825,,941,428,226
01:02:29.862,,810,300,159
01:02:29.899,,734,353,173
01:02:29.936,,773,373,179
01:02:29.974,,842,383,162
01:02:30.011,,844,378,181
01:02:30.048,,806,341,172
01:02:30.085,,795,348,196
01:02:30.122,,816,337,161
01:02:30.159,,787,334,170
01:02:30.196,,754,361,181
01:02:30.233,,730,356,190
01:02:30.270,,726,360,208
01:02:30.307,,767,380,254
01:02:30.344,,812,378,247
01:02:30.381,,977,432,216
01:02:30.418,,1034,487,200
01:02:30.455,,894,477,141
01:02:30.492,,907,506,74
01:02:30.529,,976,550,18
01:02:30.566,,976,524,-27
01:02:30.603,,932,477,-40
01:02:30.640,,915,481,-1
01:02:30.677,,886,405,-5
01:02:30.715,,876,360,-2
01:02:30.752,,890,379,-8
01:02:30.789,,886,370,-31
01:02:30.826,,866,369,-35
01:02:30.863,,848,370,-31
01:02:30.900,,850,399,-27
01:02:30.937,,843,420,-2
01:02:30.974,,876,456,-9
01:02:31.011,,891,475,27
01:02:31.048,,884,462,52
01:02:31.085,,870,487,43
01:02:31.122,,866,498,108
01:02:31.159,,846,489,123
01:02:31.196,,846,511,119
01:02:31.233,,868,503,117
01:02:31.270,,922,500,94
01:02:31.307,,936,524,48
01:02:31.344,,864,527,50
01:02:31.381,,766,534,93
01:02:31.418,,780,542,129
01:02:31.456,,871,484,118
01:02:31.493,,891,420,101
01:02:31.530,,861,431,111
01:02:31.567,,837,451,120
01:02:31.604,,829,454,125
01:02:31.641,,838,416,121
01:02:31.678,,855,411,151
01:02:31.715,,859,415,160
01:02:31.752,,859,365,153
01:02:31.789,,855,364,146
01:02:31.826,,888,383,128
01:02:31.863,,902,376,136
01:02:31.900,,895,396,153
01:02:31.937,,860,369,178
01:02:31.974,,867,364,183
01:02:32.011,,885,370,177
01:02:32.048,,877,361,177
01:02:32.085,,845,388,182
01:02:32.122,,805,390,173
01:02:32.160,,797,388,165
01:02:32.197,,817,418,167
01:02:32.234,,829,398,154
01:02:32.271,,824,404,198
01:02:32.308,,806,415,226
01:02:32.345,,833,471,237
01:02:32.382,,864,543,257
01:02:32.419,,889,593,182
01:02:32.456,,928,604,58
01:02:32.493,,869,584,-59
01:02:32.530,,916,506,-169
01:02:32.567,,945,754,-240
01:02:32.604,,921,766,-291
01:02:32.641,,882,581,-353
01:02:32.678,,746,533,-222
01:02:32.715,,676,470,-156
01:02:32.752,,701,468,-1
01:02:32.789,,685,358,109
01:02:32.827,,712,682,6
01:02:32.864,,693,870,-184
01:02:32.901,,604,753,-243
01:02:32.938,,566,713,-222
01:02:32.975,,574,657,-69
01:02:33.012,,561,751,142
01:02:33.049,,611,624,227
01:02:33.086,,660,838,1
01:02:33.123,,636,919,-151
01:02:33.160,,562,757,-65
01:02:33.197,,608,641,-97
01:02:33.234,,647,621,-213
01:02:33.271,,636,592,-245
01:02:33.308,,713,537,-242
01:02:33.345,,798,543,-262
01:02:33.382,,800,712,-203
01:02:33.419,,714,840,-148
01:02:33.456,,636,731,-67
01:02:33.493,,644,683,-170
01:02:33.530,,706,698,-108
01:02:33.568,,762,700,-54
01:02:33.605,,755,498,-2
01:02:33.642,,715,615,-21
01:02:33.679,,694,792,-76
01:02:33.716,,666,644,-9
01:02:33.753,,631,603,27
01:02:33.790,,659,697,88
01:02:33.827,,659,708,119
01:02:33.864,,676,583,207
01:02:33.901,,698,674,259
01:02:33.938,,706,532,349
01:02:33.975,,699,544,316
01:02:34.012,,640,691,74
01:02:34.049,,576,698,-101
01:02:34.086,,522,628,-57
01:02:34.123,,552,535,-70
01:02:34.160,,602,651,-239
01:02:34.197,,710,719,-298
01:02:34.234,,749,654,-291
01:02:34.271,,874,673,-342
01:02:34.308,,675,914,-398
01:02:34.346,,600,670,-358
01:02:34.383,,564,606,-357
01:02:34.420,,534,675,-384
01:02:34.457,,535,769,-373
01:02:34.494,,589,707,-425
01:02:34.531,,645,719,-350
01:02:34.568,,739,550,-358
01:02:34.605,,761,287,-325
01:02:34.642,,717,578,-618
01:02:34.679,,633,768,-662
01:02:34.716,,553,489,-558
01:02:34.753,,552,422,-556
01:02:34.790,,594,492,-489
01:02:34.827,,651,508,-447
01:02:34.864,,784,486,-268
01:02:34.901,,1138,554,-210
01:02:34.938,,1027,756,-324
01:02:34.975,,926,497,-25
01:02:35.012,,875,537,277
01:02:35.049,,788,427,209
01:02:35.086,,772,470,103
01:02:35.123,,813,422,31
01:02:35.160,,824,370,1
01:02:35.198,,850,358,8
01:02:35.235,,831,440,53
01:02:35.272,,750,414,83
01:02:35.309,,729,394,91
01:02:35.346,,773,425,144
01:02:35.383,,788,432,182
01:02:35.420,,755,364,151
01:02:35.457,,722,334,130
01:02:35.494,,669,389,164
01:02:35.531,,684,454,200
01:02:35.568,,787,479,193
01:02:35.605,,1081,476,58
01:02:35.642,,1131,588,2
01:02:35.679,,1110,591,-66
01:02:35.716,,1114,616,-52
01:02:35.753,,951,640,-13
01:02:35.790,,799,553,32
01:02:35.827,,760,483,27
01:02:35.864,,856,448,-18
01:02:35.901,,947,454,-54
01:02:35.938,,944,467,-61
01:02:35.975,,901,431,-65
01:02:36.013,,869,453,-87
01:02:36.050,,841,480,-118
01:02:36.087,,833,497,-113
01:02:36.124,,845,526,-119
01:02:36.161,,849,549,-117
01:02:36.198,,835,557,-104
01:02:36.235,,809,604,-77
01:02:36.272,,778,609,-53
01:02:36.309,,746,572,-1
01:02:36.346,,730,562,65
01:02:36.383,,869,538,60
01:02:36.420,,896,516,-1
01:02:36.457,,728,509,99
01:02:36.494,,731,581,233
01:02:36.531,,764,571,233
01:02:36.568,,747,444,143
01:02:36.605,,814,417,142
01:02:36.642,,959,475,183
01:02:36.679,,979,463,157
01:02:36.716,,895,442,177
01:02:36.753,,852,425,144
01:02:36.790,,843,416,115
01:02:36.827,,819,401,96
01:02:36.864,,773,408,88
01:02:36.902,,754,426,112
01:02:36.939,,792,418,94
01:02:36.976,,816,432,171
01:02:37.013,,743,382,210
01:02:37.050,,826,337,113
01:02:37.087,,921,426,110
01:02:37.124,,988,471,119
01:02:37.161,,1234,521,38
01:02:37.198,,1225,556,-7
01:02:37.235,,929,454,-28
01:02:37.272,,760,460,5
01:02:37.309,,777,423,-69
01:02:37.346,,902,417,-93
01:02:37.383,,977,412,-96
01:02:37.420,,918,426,-60
01:02:37.457,,867,431,-71
01:02:37.494,,859,461,-120
01:02:37.531,,870,476,-123
01:02:37.568,,919,506,-105
01:02:37.605,,956,498,-110
01:02:37.642,,971,440,-91
01:02:37.679,,968,393,-40
01:02:37.716,,923,401,37
01:02:37.753,,924,425,92
01:02:37.791,,1137,359,96
01:02:37.828,,1167,296,31
01:02:37.865,,799,380,115
01:02:37.902,,633,461,247
01:02:37.939,,655,430,370
01:02:37.976,,735,352,360
01:02:38.013,,808,360,322
01:02:38.050,,921,437,349
01:02:38.087,,901,421,285
01:02:38.124,,858,418,208
01:02:38.161,,844,444,163
01:02:38.198,,787,444,147
01:02:38.235,,741,428,118
01:02:38.272,,740,442,130
01:02:38.309,,702,417,142
01:02:38.346,,705,459,189
01:02:38.383,,754,471,220
01:02:38.420,,826,396,145
01:02:38.457,,1005,423,102
01:02:38.494,,1002,470,94
01:02:38.531,,1141,437,6
01:02:38.568,,1201,494,-38
01:02:38.605,,906,484,4
01:02:38.642,,721,442,79
01:02:38.679,,758,436,63
01:02:38.717,,826,448,12
01:02:38.754,,856,445,16
01:02:38.791,,887,434,14
01:02:38.828,,913,403,-10
01:02:38.865,,923,400,-21
01:02:38.902,,914,424,-23
01:02:38.939,,899,479,-53
01:02:38.976,,901,804,-69
01:02:39.013,,985,827,-62
01:02:39.050,,952,616,-8
01:02:39.087,,848,674,85
01:02:39.124,,723,673,169
01:02:39.161,,610,538,220
01:02:39.198,,593,453,264
01:02:39.235,,684,481,232
01:02:39.272,,641,536,236
01:02:39.309,,502,477,322
01:02:39.346,,606,383,400
01:02:39.383,,779,347,325
01:02:39.420,,890,342,206
01:02:39.457,,979,422,141
01:02:39.494,,996,476,132
01:02:39.531,,942,506,148
01:02:39.568,,905,501,143
01:02:39.605,,924,392,105
01:02:39.643,,876,557,114
01:02:39.680,,828,477,124
01:02:39.717,,814,483,147
01:02:39.754,,816,469,189
01:02:39.791,,818,443,205
01:02:39.828,,808,445,205
01:02:39.865,,821,433,197
01:02:39.902,,883,427,183
01:02:39.939,,1011,440,172
01:02:39.976,,949,405,121
01:02:40.013,,909,346,50
01:02:40.050,,951,349,15
01:02:40.087,,960,359,-18
01:02:40.124,,912,394,-17
01:02:40.161,,876,378,-22
01:02:40.198,,858,400,-38
01:02:40.235,,856,381,-31
01:02:40.272,,859,378,-19
01:02:40.309,,854,408,-1
01:02:40.346,,892,399,-4
01:02:40.383,,902,445,9
01:02:40.420,,905,440,21
01:02:40.457,,902,460,50
01:02:40.494,,901,455,43
01:02:40.531,,894,478,36
01:02:40.569,,843,495,48
01:02:40.606,,808,530,70
01:02:40.643,,886,481,33
01:02:40.680,,951,481,28
01:02:40.717,,931,442,0
01:02:40.754,,850,443,21
01:02:40.791,,799,499,46
01:02:40.828,,808,494,38
01:02:40.865,,878,495,4
01:02:40.902,,978,498,-25
01:02:40.939,,898,471,-9
01:02:40.976,,902,542,34
01:02:41.013,,881,497,52
01:02:41.050,,836,493,108
01:02:41.087,,826,504,141
01:02:41.124,,801,484,166
01:02:41.161,,809,456,172
01:02:41.198,,885,385,157
01:02:41.235,,958,362,124
01:02:41.272,,877,407,162
01:02:41.309,,806,421,235
01:02:41.346,,823,387,269
01:02:41.384,,884,361,273
01:02:41.421,,871,321,280
01:02:41.458,,865,360,296
01:02:41.495,,845,416,297
01:02:41.532,,757,438,292
01:02:41.569,,731,413,257
01:02:41.606,,743,476,231
01:02:41.643,,753,483,190
01:02:41.680,,828,511,175
01:02:41.717,,851,522,154
01:02:41.754,,843,499,153
01:02:41.791,,839,492,137
01:02:41.828,,799,477,125
01:02:41.865,,771,460,141
01:02:41.902,,790,423,122
01:02:41.939,,933,409,109
01:02:41.976,,992,436,126
01:02:42.013,,869,323,38
01:02:42.050,,941,387,-5
01:02:42.087,,1034,467,2
01:02:42.124,,913,372,-3
01:02:42.161,,811,277,36
01:02:42.198,,844,292,-62
01:02:42.235,,895,322,-109
01:02:42.273,,948,340,-57
01:02:42.310,,974,383,-90
01:02:42.347,,983,411,-112
01:02:42.384,,941,420,-103
01:02:42.421,,887,385,-125
01:02:42.458,,887,367,-125
01:02:42.495,,1004,323,-167
01:02:42.532,,1050,325,-178
01:02:42.569,,1009,347,-130
01:02:42.606,,936,367,-73
01:02:42.643,,910,381,-25
01:02:42.680,,880,362,-5
01:02:42.717,,911,340,11
01:02:42.754,,930,339,8
01:02:42.791,,876,344,30
01:02:42.828,,841,352,34
01:02:42.865,,846,389,26
01:02:42.902,,841,392,7
01:02:42.939,,840,403,-5
01:02:42.976,,825,415,-2
01:02:43.013,,832,424,-14
01:02:43.050,,865,448,-5
01:02:43.088,,875,423,-15
01:02:43.125,,913,426,5
01:02:43.162,,934,431,-7
01:02:43.199,,917,454,23
01:02:43.236,,871,432,44
01:02:43.273,,841,437,65
01:02:43.310,,876,464,100
01:02:43.347,,903,474,129
01:02:43.384,,906,433,134
01:02:43.421,,908,389,137
01:02:43.458,,903,372,139
01:02:43.495,,875,393,133
01:02:43.532,,863,419,147
01:02:43.569,,875,388,136
01:02:43.606,,884,382,102
01:02:43.643,,876,406,85
01:02:43.680,,873,414,76
01:02:43.717,,863,416,72
01:02:43.754,,849,420,58
01:02:43.791,,849,424,77
01:02:43.828,,874,414,71
01:02:43.865,,872,438,63
01:02:43.902,,858,446,72
01:02:43.940,,864,456,81
01:02:43.977,,860,454,90
01:02:44.014,,871,439,110
01:02:44.051,,883,450,116
01:02:44.088,,886,452,120
01:02:44.125,,879,442,132
01:02:44.162,,876,426,131
01:02:44.199,,885,427,132
01:02:44.236,,854,417,145
01:02:44.273,,803,434,165
01:02:44.310,,754,476,151
01:02:44.347,,722,489,156
01:02:44.384,,809,485,152
01:02:44.421,,914,507,133
01:02:44.458,,819,457,79
01:02:44.495,,802,471,89
01:02:44.532,,837,446,37
01:02:44.569,,944,480,-4
01:02:44.606,,1043,481,-10
01:02:44.643,,1012,469,1
01:02:44.680,,909,475,27
01:02:44.717,,853,453,65
01:02:44.754,,848,440,74
01:02:44.792,,857,391,42
01:02:44.829,,843,395,32
01:02:44.866,,823,386,-3
01:02:44.903,,829,416,8
01:02:44.940,,879,398,30
01:02:44.977,,1013,380,16
01:02:45.014,,1041,412,44
01:02:45.051,,875,425,126
01:02:45.088,,906,414,198
01:02:45.125,,969,382,236
01:02:45.162,,932,302,240
01:02:45.199,,870,270,258
01:02:45.236,,860,253,241
01:02:45.273,,864,235,241
01:02:45.310,,873,258,251
01:02:45.347,,868,285,258
01:02:45.384,,843,288,267
01:02:45.421,,825,329,284
01:02:45.458,,821,317,269
01:02:45.495,,826,338,277
01:02:45.532,,818,366,283
01:02:45.569,,812,370,304
01:02:45.606,,821,346,301
01:02:45.644,,818,352,301
01:02:45.681,,827,348,287
01:02:45.718,,944,357,255
01:02:45.755,,948,373,214
01:02:45.792,,849,356,183
01:02:45.829,,869,368,192
01:02:45.866,,929,353,201
01:02:45.903,,927,354,221
01:02:45.940,,905,347,222
01:02:45.977,,889,343,209
01:02:46.014,,876,300,215
01:02:46.051,,873,428,165
01:02:46.088,,880,321,186
01:02:46.125,,857,362,180
01:02:46.162,,864,383,134
01:02:46.199,,864,405,147
01:02:46.236,,882,401,151
01:02:46.273,,924,432,143
01:02:46.310,,928,428,157
01:02:46.347,,919,414,156
01:02:46.384,,909,419,142
01:02:46.421,,900,419,157
01:02:46.458,,896,396,151
01:02:46.496,,908,390,135
01:02:46.533,,925,391,114
01:02:46.570,,916,391,103
01:02:46.607,,903,367,95
01:02:46.644,,891,389,97
01:02:46.681,,874,413,108
01:02:46.718,,872,382,102
01:02:46.755,,874,391,107
01:02:46.792,,875,387,105
01:02:46.829,,876,392,96
01:02:46.866,,874,389,102
01:02:46.903,,860,393,106
01:02:46.940,,852,406,109
01:02:46.977,,863,411,99
01:02:47.014,,873,420,109
01:02:47.051,,879,420,104
01:02:47.088,,881,419,85
01:02:47.125,,882,428,80
01:02:47.162,,892,417,70
01:02:47.199,,903,425,56
01:02:47.236,,919,438,51
01:02:47.273,,915,448,40
01:02:47.310,,850,443,47
01:02:47.348,,840,458,71
01:02:47.385,,851,470,70
01:02:47.422,,882,424,51
01:02:47.459,,1046,499,48
01:02:47.496,,1057,518,57
01:02:47.533,,848,483,125
01:02:47.570,,814,460,170
01:02:47.607,,874,434,170
01:02:47.644,,883,418,154
01:02:47.681,,898,419,140
01:02:47.718,,891,425,112
01:02:47.755,,862,388,100
01:02:47.792,,878,349,26
01:02:47.829,,884,389,29
01:02:47.866,,886,397,9
01:02:47.903,,920,403,0
01:02:47.940,,959,376,1
01:02:47.977,,935,325,-1
01:02:48.014,,907,205,44
01:02:48.051,,850,304,27
01:02:48.088,,865,279,53
01:02:48.125,,884,331,125
01:02:48.162,,927,555,275
01:02:48.200,,991,621,243
01:02:48.237,,895,551,6
01:02:48.274,,746,586,89
01:02:48.311,,697,489,-47
01:02:48.348,,694,454,-122
01:02:48.385,,715,510,-135
01:02:48.422,,755,589,-130
01:02:48.459,,769,625,-84
01:02:48.496,,718,586,-53
01:02:48.533,,683,474,-1
01:02:48.570,,713,443,47
01:02:48.607,,857,451,30
01:02:48.644,,929,458,-46
01:02:48.681,,855,481,-34
01:02:48.718,,879,467,-1
01:02:48.755,,959,460,-47
01:02:48.792,,989,483,-92
01:02:48.829,,945,474,-70
01:02:48.866,,976,460,-55
01:02:48.903,,994,453,-69
01:02:48.941,,926,432,-39
01:02:48.978,,847,415,5
01:02:49.015,,833,414,12
01:02:49.052,,857,423,9
01:02:49.089,,939,415,-10
01:02:49.126,,922,426,6
01:02:49.163,,862,427,35
01:02:49.200,,892,499,79
01:02:49.237,,891,517,138
01:02:49.274,,840,472,161
01:02:49.311,,841,416,166
01:02:49.348,,853,381,183
01:02:49.385,,875,340,172
01:02:49.422,,887,366,158
01:02:49.459,,887,383,133
01:02:49.496,,874,397,142
01:02:49.533,,876,393,142
01:02:49.570,,895,395,135
01:02:49.607,,925,403,135
01:02:49.644,,932,410,140
01:02:49.681,,899,426,163
01:02:49.718,,857,435,191
01:02:49.755,,826,435,219
01:02:49.792,,783,406,226
01:02:49.830,,780,398,221
01:02:49.867,,769,414,227
01:02:49.904,,781,415,216
01:02:49.941,,789,424,207
01:02:49.978,,893,438,186
01:02:50.015,,945,456,170
01:02:50.052,,916,462,154
01:02:50.089,,924,479,170
01:02:50.126,,939,483,178
01:02:50.163,,923,478,161
01:02:50.200,,920,463,157
01:02:50.237,,876,441,136
01:02:50.274,,801,423,119
01:02:50.311,,871,451,112
01:02:50.348,,1030,473,101
01:02:50.385,,980,421,96
01:02:50.422,,815,370,133
01:02:50.459,,730,403,192
01:02:50.496,,736,401,208
01:02:50.533,,769,369,188
01:02:50.570,,782,413,191
01:02:50.607,,829,490,192
01:02:50.644,,811,531,220
01:02:50.681,,815,560,336
01:02:50.719,,868,524,319
01:02:50.756,,965,431,298
01:02:50.793,,924,355,292
01:02:50.830,,858,323,301
01:02:50.867,,845,358,299
01:02:50.904,,830,360,296
01:02:50.941,,796,344,277
01:02:50.978,,806,336,284
01:02:51.015,,855,338,282
01:02:51.052,,874,351,291
01:02:51.089,,872,354,291
01:02:51.126,,868,355,270
01:02:51.163,,859,363,266
01:02:51.200,,848,361,267
01:02:51.237,,832,374,252
01:02:51.274,,788,383,256
01:02:51.311,,764,382,242
01:02:51.348,,785,394,253
01:02:51.385,,856,397,252
01:02:51.422,,912,395,249
01:02:51.459,,964,416,231
01:02:51.496,,873,405,221
01:02:51.533,,870,433,222
01:02:51.570,,900,422,183
01:02:51.607,,890,426,147
01:02:51.644,,884,418,125
01:02:51.682,,879,422,115
01:02:51.719,,864,418,103
01:02:51.756,,862,415,95
01:02:51.793,,908,427,76
01:02:51.830,,946,420,67
01:02:51.867,,936,396,63
01:02:51.904,,888,385,50
01:02:51.941,,852,403,45
01:02:51.978,,849,416,50
01:02:52.015,,857,428,45
01:02:52.052,,858,439,50
01:02:52.089,,866,463,65
01:02:52.126,,890,469,57
01:02:52.163,,894,493,63
01:02:52.200,,888,503,57
01:02:52.237,,878,497,50
01:02:52.274,,865,500,40
01:02:52.311,,872,510,32
01:02:52.348,,910,520,21
01:02:52.385,,873,517,27
01:02:52.422,,789,514,56
01:02:52.459,,818,522,69
01:02:52.496,,879,501,48
01:02:52.533,,878,449,48
01:02:52.570,,868,434,71
01:02:52.607,,892,397,173
01:02:52.644,,888,249,329
01:02:52.681,,949,208,264
01:02:52.719,,959,224,173
01:02:52.756,,902,299,92
01:02:52.793,,867,346,144
01:02:52.830,,867,314,193
01:02:52.867,,907,290,180
01:02:52.904,,879,323,197
01:02:52.941,,808,343,201
01:02:52.978,,773,365,185
01:02:53.015,,822,390,214
01:02:53.052,,840,403,202
01:02:53.089,,824,440,213
01:02:53.126,,816,440,267
01:02:53.163,,781,431,243
01:02:53.200,,794,474,259
01:02:53.237,,885,489,280
01:02:53.274,,974,488,219
01:02:53.311,,868,452,156
01:02:53.348,,939,434,152
01:02:53.385,,1032,467,89
01:02:53.422,,1034,480,-3
01:02:53.459,,953,505,17
01:02:53.496,,830,491,44
01:02:53.533,,808,420,30
01:02:53.570,,861,387,-14
01:02:53.607,,901,357,-41
01:02:53.644,,876,371,-60
01:02:53.682,,836,425,-25
01:02:53.719,,843,443,-40
01:02:53.756,,868,449,-2
01:02:53.793,,889,396,11
01:02:53.830,,923,415,44
01:02:53.867,,948,439,101
01:02:53.904,,946,453,168
01:02:53.941,,974,454,210
01:02:53.978,,1128,447,176
01:02:54.015,,882,458,408
01:02:54.052,,894,420,380
01:02:54.089,,968,346,215
01:02:54.126,,858,200,139
01:02:54.163,,805,210,125
01:02:54.200,,816,301,87
01:02:54.237,,840,378,90
01:02:54.274,,823,380,96
01:02:54.311,,797,391,114
01:02:54.348,,803,366,132
01:02:54.385,,806,349,139
01:02:54.422,,818,366,169
01:02:54.459,,817,386,202
01:02:54.496,,809,397,241
01:02:54.533,,809,395,260
01:02:54.571,,827,395,279
01:02:54.608,,831,389,284
01:02:54.645,,829,386,294
01:02:54.682,,834,426,319
01:02:54.719,,1068,570,322
01:02:54.756,,967,486,255
01:02:54.793,,991,417,178
01:02:54.830,,1065,428,124
01:02:54.867,,967,412,98
01:02:54.904,,889,401,115
01:02:54.941,,835,399,117
01:02:54.978,,809,372,81
01:02:55.015,,818,361,49
01:02:55.052,,812,388,33
01:02:55.089,,793,450,8
01:02:55.126,,774,475,11
01:02:55.163,,796,479,11
01:02:55.200,,835,493,7
01:02:55.237,,869,494,24
01:02:55.274,,889,484,31
01:02:55.311,,905,487,46
01:02:55.348,,910,481,72
01:02:55.385,,901,468,127
01:02:55.422,,896,467,174
01:02:55.459,,966,457,148
01:02:55.497,,1023,460,126
01:02:55.534,,846,476,227
01:02:55.571,,1015,528,286
01:02:55.608,,1034,489,212
01:02:55.645,,810,361,170
01:02:55.682,,721,365,192
01:02:55.719,,753,398,139
01:02:55.756,,818,385,117
01:02:55.793,,844,384,129
01:02:55.830,,816,379,129
01:02:55.867,,782,359,152
01:02:55.904,,771,344,161
01:02:55.941,,793,342,175
01:02:55.978,,777,344,197
01:02:56.015,,734,345,222
01:02:56.052,,726,353,243
01:02:56.089,,773,373,262
01:02:56.126,,819,373,264
01:02:56.163,,834,380,250
01:02:56.200,,965,411,203
01:02:56.237,,1072,470,175
01:02:56.274,,1127,501,110
01:02:56.311,,1143,528,83
01:02:56.348,,983,525,79
01:02:56.385,,861,488,82
01:02:56.422,,787,471,66
01:02:56.459,,798,444,26
01:02:56.497,,898,421,-11
01:02:56.534,,948,404,-55
01:02:56.571,,892,404,-63
01:02:56.608,,866,424,-44
01:02:56.645,,878,407,-54
01:02:56.682,,899,379,-51
01:02:56.719,,926,394,-46
01:02:56.756,,950,441,-81
01:02:56.793,,974,547,-73
01:02:56.830,,973,657,-154
01:02:56.867,,1131,587,-137
01:02:56.904,,1057,342,-262
01:02:56.941,,897,559,-159
01:02:56.978,,793,652,-61
01:02:57.015,,711,449,-45
01:02:57.052,,614,381,18
01:02:57.089,,665,410,-74
01:02:57.126,,744,313,315
01:02:57.163,,793,438,218
01:02:57.200,,793,641,30
01:02:57.237,,758,735,-110
01:02:57.274,,753,529,-113
01:02:57.311,,754,572,119
01:02:57.348,,711,531,267
01:02:57.385,,669,602,104
01:02:57.422,,630,639,11
01:02:57.459,,582,631,-21
01:02:57.496,,539,616,-46
01:02:57.533,,626,666,-73
01:02:57.571,,708,866,-73
01:02:57.608,,748,776,64
01:02:57.645,,802,563,19
01:02:57.682,,785,885,-87
01:02:57.719,,716,930,-186
01:02:57.756,,718,614,-273
01:02:57.793,,749,625,-197
01:02:57.830,,677,589,-19
01:02:57.867,,633,595,69
01:02:57.904,,557,490,-154
01:02:57.941,,549,616,-348
01:02:57.978,,565,724,-340
01:02:58.015,,581,645,-398
01:02:58.052,,599,604,-509
01:02:58.089,,722,505,-347
01:02:58.126,,811,772,-194
01:02:58.163,,677,829,-108
01:02:58.200,,654,750,-83
01:02:58.237,,661,630,-201
01:02:58.274,,737,724,-141
01:02:58.311,,766,796,-221
01:02:58.348,,704,786,-194
01:02:58.385,,697,684,-143
01:02:58.422,,770,565,-82
01:02:58.459,,830,439,-92
01:02:58.496,,793,478,-124
01:02:58.534,,724,603,-125
01:02:58.571,,797,626,-107
01:02:58.608,,845,635,-20
01:02:58.645,,627,547,84
01:02:58.682,,657,485,56
01:02:58.719,,726,439,-12
01:02:58.756,,809,480,-16
01:02:58.793,,906,554,39
01:02:58.830,,964,621,92
01:02:58.867,,992,651,164
01:02:58.904,,972,608,165
01:02:58.941,,1009,528,115
01:02:58.978,,953,485,146
01:02:59.015,,865,465,184
01:02:59.052,,815,467,181
01:02:59.089,,768,443,159
01:02:59.126,,698,409,123
01:02:59.163,,602,391,122
01:02:59.200,,691,391,131
01:02:59.237,,1013,398,57
01:02:59.274,,1212,400,-87
01:02:59.311,,1106,386,-136
01:02:59.348,,990,394,-107
01:02:59.385,,937,421,-127
01:02:59.422,,921,399,-144
01:02:59.459,,913,434,-127
01:02:59.496,,942,386,-144
01:02:59.533,,943,405,-148
01:02:59.571,,902,473,-131
01:02:59.608,,852,508,-111
01:02:59.645,,818,568,-96
01:02:59.682,,778,609,-72
01:02:59.719,,720,620,-29
01:02:59.756,,689,606,31
01:02:59.793,,659,614,58
01:02:59.830,,645,658,73
01:02:59.867,,635,649,86
01:02:59.904,,629,667,105
01:02:59.941,,724,658,96
01:02:59.978,,839,685,45
01:03:00.015,,725,721,83
01:03:00.052,,743,728,165
01:03:00.089,,849,670,200
01:03:00.126,,815,553,135
01:03:00.163,,757,528,92
01:03:00.200,,749,524,108
01:03:00.237,,746,515,115
01:03:00.274,,727,515,129
01:03:00.311,,700,495,126
01:03:00.348,,688,480,106
01:03:00.385,,718,482,110
01:03:00.422,,727,480,101
01:03:00.459,,714,488,115
01:03:00.496,,684,483,125
01:03:00.533,,691,487,131
01:03:00.571,,867,509,96
01:03:00.608,,932,587,75
01:03:00.645,,816,513,30
01:03:00.682,,958,522,18
01:03:00.719,,1081,578,-40
01:03:00.756,,994,519,-77
01:03:00.793,,932,526,14
01:03:00.830,,916,495,18
01:03:00.867,,889,427,-7
01:03:00.904,,880,395,10
01:03:00.941,,874,391,-3
01:03:00.978,,890,380,-31
01:03:01.015,,880,395,-25
01:03:01.052,,866,406,-22
01:03:01.089,,864,415,-10
01:03:01.126,,840,426,52
01:03:01.163,,900,461,200
01:03:01.200,,1045,362,95
01:03:01.237,,1217,442,-38
01:03:01.274,,865,498,78
01:03:01.311,,834,495,174
01:03:01.348,,913,448,127
01:03:01.385,,804,321,36
01:03:01.422,,776,308,30
01:03:01.459,,827,357,42
01:03:01.497,,823,414,43
01:03:01.534,,734,421,87
01:03:01.571,,713,399,124
01:03:01.608,,748,371,122
01:03:01.645,,764,372,99
01:03:01.682,,672,386,131
01:03:01.719,,687,384,167
01:03:01.756,,1027,404,126
01:03:01.793,,1106,470,41
01:03:01.830,,977,425,38
01:03:01.867,,1023,419,87
01:03:01.904,,981,421,60
01:03:01.941,,974,372,90
01:03:01.978,,998,331,99
01:03:02.015,,1010,294,86
01:03:02.052,,985,289,94
01:03:02.089,,981,276,89
01:03:02.126,,950,252,61
01:03:02.163,,940,304,61
01:03:02.200,,953,366,67
01:03:02.237,,981,277,32
01:03:02.274,,959,229,49
01:03:02.311,,1087,168,9
01:03:02.348,,1062,192,-48
01:03:02.385,,692,194,126
01:03:02.422,,872,75,132
01:03:02.459,,1085,92,21
01:03:02.497,,991,154,29
01:03:02.534,,828,210,131
01:03:02.571,,746,182,134
01:03:02.608,,774,190,118
01:03:02.645,,841,235,121
01:03:02.682,,818,239,123
01:03:02.719,,938,254,101
01:03:02.756,,1022,284,26
01:03:02.793,,961,271,-11
01:03:02.830,,907,310,119
01:03:02.867,,924,305,171
01:03:02.904,,1129,319,155
01:03:02.941,,1136,295,168
01:03:02.978,,1067,263,257
01:03:03.015,,1026,207,245
01:03:03.052,,998,127,199
01:03:03.089,,997,80,118
01:03:03.126,,968,74,50
01:03:03.163,,945,69,6
01:03:03.200,,927,134,-39
01:03:03.237,,890,175,-60
01:03:03.274,,831,150,-18
01:03:03.311,,917,118,-12
01:03:03.348,,1086,115,-15
01:03:03.385,,1102,147,-40
01:03:03.422,,1058,320,61
01:03:03.459,,1076,304,149
01:03:03.497,,972,202,196
01:03:03.534,,868,120,228
01:03:03.571,,818,123,270
01:03:03.608,,908,152,267
01:03:03.645,,1044,193,216
01:03:03.682,,876,257,231
01:03:03.719,,810,277,237
01:03:03.756,,864,250,195
01:03:03.793,,878,253,162
01:03:03.830,,817,204,129
01:03:03.867,,770,152,99
01:03:03.904,,696,155,62
01:03:03.941,,822,77,76
01:03:03.978,,1384,82,-75
01:03:04.015,,1075,54,-123
01:03:04.052,,1074,88,0
01:03:04.089,,1130,159,-55
01:03:04.126,,1018,205,57
01:03:04.163,,987,155,92
01:03:04.200,,968,89,32
01:03:04.237,,935,91,-31
01:03:04.274,,1008,-41,-85
01:03:04.311,,984,24,-92
01:03:04.348,,999,98,-98
01:03:04.385,,988,117,-112
01:03:04.423,,982,91,-108
01:03:04.460,,929,67,-139
01:03:04.497,,990,-16,-236
01:03:04.534,,990,-21,-225
01:03:04.571,,989,-7,-228
01:03:04.608,,974,73,-185
01:03:04.645,,961,161,-120
01:03:04.682,,932,207,-75
01:03:04.719,,998,246,-77
01:03:04.756,,1094,306,-92
01:03:04.793,,930,343,5
01:03:04.830,,968,301,18
01:03:04.867,,1060,268,3
01:03:04.904,,961,216,81
01:03:04.941,,870,127,137
01:03:04.978,,995,19,124
01:03:05.015,,1020,-18,13
01:03:05.052,,893,56,44
01:03:05.089,,906,104,16
01:03:05.126,,925,102,-48
01:03:05.163,,894,108,-32
01:03:05.200,,923,95,-22
01:03:05.237,,911,50,-13
01:03:05.274,,887,49,-8
01:03:05.311,,875,24,-8
01:03:05.348,,843,66,-6
01:03:05.385,,879,78,1
01:03:05.423,,950,76,-4
01:03:05.460,,1291,119,-38
01:03:05.497,,1241,23,-31
01:03:05.534,,1045,-101,161
01:03:05.571,,1044,-38,134
01:03:05.608,,1056,-6,114
01:03:05.645,,1031,-2,114
01:03:05.682,,969,-7,43
01:03:05.719,,826,143,58
01:03:05.756,,826,154,12
01:03:05.793,,910,118,-11
01:03:05.830,,928,136,-23
01:03:05.867,,922,205,-8
01:03:05.904,,955,264,-6
01:03:05.941,,979,318,10
01:03:05.978,,1007,365,22
01:03:06.015,,1053,397,22
01:03:06.052,,1060,392,28
01:03:06.089,,979,366,65
01:03:06.126,,1119,382,11
01:03:06.163,,1058,472,-18
01:03:06.200,,866,502,156
01:03:06.237,,899,396,289
01:03:06.274,,888,-30,131
01:03:06.311,,983,-333,73
01:03:06.348,,996,-139,65
01:03:06.385,,905,75,132
01:03:06.423,,831,151,215
01:03:06.460,,822,107,144
01:03:06.497,,819,87,121
01:03:06.534,,835,151,144
01:03:06.571,,836,167,163
01:03:06.608,,822,198,193
01:03:06.645,,795,203,208
01:03:06.682,,848,251,248
01:03:06.719,,850,226,231
01:03:06.756,,815,175,187
01:03:06.793,,1031,285,158
01:03:06.830,,1572,564,112
01:03:06.867,,1086,450,78
01:03:06.904,,820,344,204
01:03:06.941,,784,352,173
01:03:06.978,,864,414,39
01:03:07.015,,984,441,58
01:03:07.052,,998,460,49
01:03:07.089,,936,419,31
01:03:07.126,,923,437,72
01:03:07.163,,933,467,76
01:03:07.200,,916,470,54
01:03:07.237,,857,459,75
01:03:07.274,,795,463,79
01:03:07.311,,713,456,83
01:03:07.348,,633,472,103
01:03:07.385,,586,492,120
01:03:07.422,,587,500,128
01:03:07.460,,767,518,77
01:03:07.497,,919,540,7
01:03:07.534,,992,611,126
01:03:07.571,,1153,743,315
01:03:07.608,,1059,556,84
01:03:07.645,,940,392,59
01:03:07.682,,913,333,115
01:03:07.719,,881,396,101
01:03:07.756,,801,448,80
01:03:07.793,,741,419,19
01:03:07.830,,727,376,9
01:03:07.867,,748,364,28
01:03:07.904,,728,372,31
01:03:07.941,,691,425,102
01:03:07.978,,719,473,169
01:03:08.015,,780,461,162
01:03:08.052,,1039,456,115
01:03:08.089,,1401,604,105
01:03:08.126,,1236,596,56
01:03:08.163,,925,538,149
01:03:08.200,,758,503,131
01:03:08.237,,805,510,37
01:03:08.274,,942,499,1
01:03:08.311,,963,437,-5
01:03:08.348,,861,413,-14
01:03:08.386,,830,425,-36
01:03:08.423,,846,407,-73
01:03:08.460,,847,387,-66
01:03:08.497,,872,395,-66
01:03:08.534,,920,387,-81
01:03:08.571,,970,361,-95
01:03:08.608,,984,358,-92
01:03:08.645,,946,396,-64
01:03:08.682,,934,429,-8
01:03:08.719,,993,402,51
01:03:08.756,,1180,341,-15
01:03:08.793,,1018,374,-66
01:03:08.830,,853,611,465
01:03:08.867,,758,532,586
01:03:08.904,,842,224,364
01:03:08.941,,915,-9,323
01:03:08.978,,950,156,276
01:03:09.015,,911,548,317
01:03:09.052,,794,510,268
01:03:09.089,,756,464,187
01:03:09.126,,758,484,98
01:03:09.163,,745,472,57
01:03:09.200,,721,416,65
01:03:09.237,,681,415,88
01:03:09.274,,658,433,125
01:03:09.311,,661,468,189
01:03:09.349,,665,448,193
01:03:09.386,,807,424,161
01:03:09.423,,1416,647,165
01:03:09.460,,927,496,208
01:03:09.497,,790,468,199
01:03:09.534,,806,489,101
01:03:09.571,,950,500,50
01:03:09.608,,985,477,38
01:03:09.645,,908,417,39
01:03:09.682,,908,402,50
01:03:09.719,,937,375,22
01:03:09.756,,935,346,23
01:03:09.793,,913,300,31
01:03:09.830,,908,271,-1
01:03:09.867,,918,336,24
01:03:09.904,,871,358,69
01:03:09.941,,870,335,96
01:03:09.978,,910,355,132
01:03:10.015,,1199,334,8
01:03:10.052,,1230,380,-95
01:03:10.089,,1014,519,128
01:03:10.126,,886,628,394
01:03:10.163,,800,464,223
01:03:10.200,,799,296,108
01:03:10.237,,890,434,157
01:03:10.274,,856,380,166
01:03:10.311,,732,413,215
01:03:10.348,,692,391,227
01:03:10.385,,704,395,166
01:03:10.423,,708,385,178
01:03:10.460,,695,375,212
01:03:10.497,,658,403,261
01:03:10.534,,686,412,334
01:03:10.571,,746,389,338
01:03:10.608,,1083,348,255
01:03:10.645,,1304,408,74
01:03:10.682,,1132,464,-18
01:03:10.719,,946,586,21
01:03:10.756,,635,621,41
01:03:10.793,,553,544,-15
01:03:10.830,,727,674,-22
01:03:10.867,,927,747,-114
01:03:10.904,,988,677,-90
01:03:10.941,,960,513,-65
01:03:10.978,,904,480,-70
01:03:11.015,,881,482,-32
01:03:11.052,,851,468,-6
01:03:11.089,,833,455,-1
01:03:11.126,,793,434,0
01:03:11.163,,745,407,7
01:03:11.200,,725,425,19
01:03:11.237,,729,470,48
01:03:11.274,,836,483,48
01:03:11.311,,1137,513,-31
01:03:11.348,,1027,593,10
01:03:11.385,,959,711,203
01:03:11.423,,918,538,104
01:03:11.460,,887,242,233
01:03:11.497,,884,198,357
01:03:11.534,,858,359,290
01:03:11.571,,778,428,246
01:03:11.608,,690,427,195
01:03:11.645,,665,406,160
01:03:11.682,,676,386,120
01:03:11.719,,697,373,86
01:03:11.756,,719,394,82
01:03:11.793,,746,398,63
01:03:11.830,,789,520,157
01:03:11.867,,804,555,208
01:03:11.904,,833,542,228
01:03:11.941,,1055,613,244
01:03:11.978,,1176,684,201
01:03:12.015,,1043,651,176
01:03:12.052,,890,592,115
01:03:12.089,,726,550,29
01:03:12.126,,764,569,-1
01:03:12.163,,828,554,-46
01:03:12.200,,848,455,-92
01:03:12.237,,839,401,-54
01:03:12.274,,853,417,-46
01:03:12.311,,886,402,-82
01:03:12.348,,897,504,-86
01:03:12.385,,960,467,-141
01:03:12.423,,954,543,-102
01:03:12.460,,865,533,-125
01:03:12.497,,746,576,-106
01:03:12.534,,709,592,-25
01:03:12.571,,742,583,65
01:03:12.608,,915,566,143
01:03:12.645,,1199,554,20
01:03:12.682,,804,450,190
01:03:12.719,,647,572,415
01:03:12.756,,673,538,391
01:03:12.793,,793,372,299
01:03:12.830,,865,367,269
01:03:12.867,,864,403,204
01:03:12.904,,817,418,115
01:03:12.941,,809,467,105
01:03:12.978,,818,451,59
01:03:13.015,,805,444,52
01:03:13.052,,767,489,70
01:03:13.089,,770,470,67
01:03:13.126,,751,489,102
01:03:13.163,,750,446,157
01:03:13.200,,798,433,176
01:03:13.237,,930,460,122
01:03:13.274,,1286,561,108
01:03:13.311,,1225,551,74
01:03:13.348,,991,462,108
01:03:13.385,,699,556,177
01:03:13.422,,643,486,138
01:03:13.460,,817,484,-24
01:03:13.497,,970,460,-81
01:03:13.534,,932,412,-25
01:03:13.571,,933,416,-9
01:03:13.608,,945,427,-47
01:03:13.645,,922,302,-74
01:03:13.682,,906,344,-6
01:03:13.719,,921,326,-23
01:03:13.756,,949,303,-57
01:03:13.793,,934,358,-44
01:03:13.830,,924,351,-5
01:03:13.867,,1023,303,-20
01:03:13.904,,1176,305,-115
01:03:13.941,,917,392,-27
01:03:13.978,,838,480,104
01:03:14.015,,890,491,250
01:03:14.052,,819,249,84
01:03:14.089,,848,233,138
01:03:14.126,,920,415,284
01:03:14.163,,843,392,273
01:03:14.200,,791,330,254
01:03:14.237,,837,314,237
01:03:14.274,,866,347,210
01:03:14.311,,858,323,154
01:03:14.348,,809,269,134
01:03:14.385,,791,259,89
01:03:14.423,,767,351,98
01:03:14.460,,797,372,155
01:03:14.497,,854,265,117
01:03:14.534,,1275,358,69
01:03:14.571,,1221,413,-1
01:03:14.608,,1027,401,246
01:03:14.645,,823,404,454
01:03:14.682,,751,413,157
01:03:14.719,,841,347,106
01:03:14.756,,985,370,25
01:03:14.793,,1006,467,-8
01:03:14.830,,924,432,22
01:03:14.867,,914,418,88
01:03:14.904,,936,385,56
01:03:14.941,,933,367,73
01:03:14.978,,940,366,78
01:03:15.015,,907,368,60
01:03:15.052,,889,363,85
01:03:15.089,,861,344,81
01:03:15.126,,852,325,12
01:03:15.163,,827,378,27
01:03:15.200,,754,415,75
01:03:15.237,,737,454,166
01:03:15.274,,804,452,192
01:03:15.311,,895,448,163
01:03:15.348,,909,442,184
01:03:15.385,,880,448,197
01:03:15.423,,865,481,217
01:03:15.460,,887,467,226
01:03:15.497,,828,459,220
01:03:15.534,,770,458,248
01:03:15.571,,773,464,243
01:03:15.608,,765,472,232
01:03:15.645,,757,474,233
01:03:15.682,,916,535,232
01:03:15.719,,878,521,208
01:03:15.756,,793,466,150
01:03:15.793,,815,495,136
01:03:15.830,,890,500,129
01:03:15.867,,881,450,146
01:03:15.904,,884,464,143
01:03:15.941,,920,447,119
01:03:15.978,,910,412,120
01:03:16.015,,941,437,142
01:03:16.052,,913,449,173
01:03:16.089,,851,362,159
01:03:16.126,,841,372,147
01:03:16.163,,861,375,128
01:03:16.200,,894,348,108
01:03:16.237,,903,357,91
01:03:16.274,,867,368,119
01:03:16.311,,834,416,166
01:03:16.348,,847,418,125
01:03:16.385,,867,382,135
01:03:16.422,,847,399,150
01:03:16.460,,864,412,164
01:03:16.497,,921,425,169
01:03:16.534,,943,421,178
01:03:16.571,,937,418,165
01:03:16.608,,923,426,148
01:03:16.645,,910,407,142
01:03:16.682,,901,427,158
01:03:16.719,,871,482,218
01:03:16.756,,896,422,143
01:03:16.793,,883,293,192
01:03:16.830,,873,271,209
01:03:16.867,,882,304,196
01:03:16.904,,875,314,229
01:03:16.941,,870,309,233
01:03:16.978,,857,300,241
01:03:17.015,,846,303,232
01:03:17.052,,845,326,216
01:03:17.089,,849,362,194
01:03:17.126,,861,398,163
01:03:17.163,,874,421,138
01:03:17.200,,891,437,115
01:03:17.237,,896,463,116
01:03:17.274,,897,459,111
01:03:17.311,,905,445,105
01:03:17.348,,888,460,113
01:03:17.385,,891,446,111
01:03:17.422,,907,453,99
01:03:17.459,,907,440,100
01:03:17.496,,899,412,113
01:03:17.534,,901,400,115
01:03:17.571,,901,396,109
01:03:17.608,,900,388,105
01:03:17.645,,902,382,116
01:03:17.682,,885,372,117
01:03:17.719,,872,378,115
01:03:17.756,,872,388,116
01:03:17.793,,877,400,104
01:03:17.830,,869,432,88
01:03:17.867,,868,373,89
01:03:17.904,,867,335,93
01:03:17.941,,893,335,77
01:03:17.978,,912,348,78
01:03:18.015,,886,398,115
01:03:18.052,,879,397,116
01:03:18.089,,883,403,128
01:03:18.126,,888,383,145
01:03:18.163,,892,393,173
01:03:18.200,,897,404,163
01:03:18.237,,905,409,137
01:03:18.274,,914,391,105
01:03:18.311,,906,394,87
01:03:18.348,,906,429,46
01:03:18.385,,883,484,50
01:03:18.422,,843,460,63
01:03:18.459,,839,421,84
01:03:18.496,,860,434,90
01:03:18.533,,903,422,68
01:03:18.570,,912,433,50
01:03:18.607,,914,404,30
01:03:18.644,,900,398,32
01:03:18.681,,877,395,49
01:03:18.719,,867,378,71
01:03:18.756,,866,399,91
01:03:18.793,,872,423,84
01:03:18.830,,869,410,90
01:03:18.867,,881,413,104
01:03:18.904,,893,380,92
01:03:18.941,,899,356,100
01:03:18.978,,889,372,101
01:03:19.015,,878,395,104
01:03:19.052,,878,394,107
01:03:19.089,,882,391,115
01:03:19.126,,884,393,120
01:03:19.163,,888,398,124
01:03:19.200,,890,398,125
01:03:19.237,,895,404,127
01:03:19.274,,892,405,129
01:03:19.311,,882,406,127
01:03:19.348,,894,409,128
01:03:19.385,,896,410,131
01:03:19.422,,883,409,137
01:03:19.459,,873,401,139
01:03:19.496,,876,391,135
01:03:19.533,,882,386,134
01:03:19.570,,882,382,129
01:03:19.607,,882,378,122
01:03:19.644,,881,377,118
01:03:19.681,,881,373,111
01:03:19.718,,885,374,109
01:03:19.756,,881,375,115
01:03:19.793,,886,372,118
01:03:19.830,,896,374,120
01:03:19.867,,898,376,127
01:03:19.904,,901,374,134
01:03:19.941,,920,371,139
01:03:19.978,,991,371,174
01:03:20.015,,1034,344,214
01:03:20.052,,991,305,194
01:03:20.089,,937,377,181
01:03:20.126,,872,389,196
01:03:20.163,,784,348,207
01:03:20.200,,745,345,213
01:03:20.237,,737,350,223
01:03:20.274,,747,363,185
01:03:20.311,,783,428,230
01:03:20.348,,803,427,230
01:03:20.385,,891,443,223
01:03:20.422,,975,466,236
01:03:20.459,,979,463,249
01:03:20.496,,841,413,209
01:03:20.533,,834,370,177
01:03:20.570,,918,386,114
01:03:20.607,,929,413,85
01:03:20.644,,952,347,99
01:03:20.681,,936,330,89
01:03:20.718,,905,371,60
01:03:20.755,,921,376,35
01:03:20.792,,915,386,20
01:03:20.830,,882,414,23
01:03:20.867,,876,459,48
01:03:20.904,,858,478,50
01:03:20.941,,864,467,86
01:03:20.978,,907,439,79
01:03:21.015,,917,440,93
01:03:21.052,,907,405,93
01:03:21.089,,888,404,92
01:03:21.126,,909,366,133
01:03:21.163,,921,360,76
01:03:21.200,,919,474,-47
01:03:21.237,,872,533,-9
01:03:21.274,,831,460,16
01:03:21.311,,867,465,46
01:03:21.348,,858,444,72
01:03:21.385,,849,423,105
01:03:21.422,,829,422,60
01:03:21.459,,822,473,82
01:03:21.496,,872,401,99
01:03:21.533,,942,429,118
01:03:21.570,,873,424,150
01:03:21.607,,835,413,161
01:03:21.644,,855,385,184
01:03:21.681,,908,345,125
01:03:21.718,,909,336,118
01:03:21.755,,873,408,144
01:03:21.792,,861,450,163
01:03:21.829,,866,429,208
01:03:21.867,,876,385,212
01:03:21.904,,869,407,198
01:03:21.941,,853,406,172
01:03:21.978,,862,410,149
01:03:22.015,,869,410,151
01:03:22.052,,860,366,147
01:03:22.089,,851,385,122
01:03:22.126,,868,432,119
01:03:22.163,,875,463,108
01:03:22.200,,899,415,91
01:03:22.237,,908,392,81
01:03:22.274,,890,398,73
01:03:22.311,,882,396,96
01:03:22.348,,874,391,108
01:03:22.385,,881,381,110
01:03:22.422,,898,381,111
01:03:22.459,,889,390,110
01:03:22.496,,883,403,114
01:03:22.533,,886,398,126
01:03:22.570,,886,394,120
01:03:22.607,,901,401,114
01:03:22.644,,903,416,105
01:03:22.681,,885,400,124
01:03:22.718,,867,395,115
01:03:22.755,,880,430,99
01:03:22.792,,898,377,77
01:03:22.829,,900,363,82
01:03:22.866,,903,375,87
01:03:22.903,,900,371,85
01:03:22.941,,909,351,72
01:03:22.978,,897,367,77
01:03:23.015,,905,374,79
