Sensors' Acquisition [Hz]: Acc@26.0 
hh:mm:ss.ms, Annotation , AccX [mg], AccY, AccZ
00:59:34.705,,4,-48,935
00:59:34.742,,10,-132,910
00:59:34.765,>walk,,,
00:59:34.779,,12,-152,906
00:59:34.816,,-11,-172,930
00:59:34.853,,-5,-124,998
00:59:34.890,,14,-108,1065
00:59:34.927,,9,-76,1099
00:59:34.964,,-12,-99,1082
00:59:35.001,,-25,-134,1047
00:59:35.038,,-10,-163,1024
00:59:35.075,,19,-163,1022
00:59:35.112,,45,-170,1012
00:59:35.150,,33,-101,1036
00:59:35.187,,-60,-90,1039
00:59:35.224,,-60,0,1131
00:59:35.261,,-8,71,1170
00:59:35.298,,80,20,1122
00:59:35.335,,148,-42,1033
00:59:35.372,,204,-26,994
00:59:35.409,,284,-17,946
00:59:35.446,,286,36,883
00:59:35.483,,219,39,864
00:59:35.520,,83,8,833
00:59:35.557,,-32,-23,876
00:59:35.594,,-65,-44,920
00:59:35.631,,-51,-31,969
00:59:35.668,,-53,-40,997
00:59:35.706,,-73,-84,1009
00:59:35.743,,-84,-147,997
00:59:35.780,,-86,-174,1011
00:59:35.817,,-93,-165,1031
00:59:35.854,,-91,-111,1070
00:59:35.891,,-69,-32,1107
00:59:35.928,,-90,77,1219
00:59:35.965,,-3,129,1263
00:59:36.002,,72,109,1170
00:59:36.039,,23,41,1019
00:59:36.076,,-76,77,932
00:59:36.113,,-152,188,991
00:59:36.150,,-63,280,1102
00:59:36.187,,55,181,1021
00:59:36.225,,50,89,926
00:59:36.262,,11,-14,822
00:59:36.299,,-17,-72,769
00:59:36.336,,-19,-72,770
00:59:36.373,,18,10,892
00:59:36.410,,58,-3,994
00:59:36.447,,102,-22,1000
00:59:36.484,,149,2,1043
00:59:36.521,,192,-8,1050
00:59:36.558,,219,-39,991
00:59:36.595,,244,45,1040
00:59:36.632,,382,59,816
00:59:36.669,,384,222,502
00:59:36.706,,491,305,437
00:59:36.743,,676,825,573
00:59:36.781,,590,765,580
00:59:36.818,,561,327,434
00:59:36.855,,658,153,491
00:59:36.892,,922,485,787
00:59:36.929,,1067,622,745
00:59:36.966,,1027,920,544
00:59:37.003,,841,1055,837
00:59:37.040,,669,568,918
00:59:37.077,,586,447,800
00:59:37.114,,598,723,743
00:59:37.151,,503,361,558
00:59:37.188,,679,486,663
00:59:37.225,,615,347,677
00:59:37.262,,754,828,340
00:59:37.299,,710,724,247
00:59:37.337,,591,674,142
00:59:37.374,,613,647,71
00:59:37.411,,843,739,252
00:59:37.448,,823,769,318
00:59:37.485,,598,801,40
00:59:37.522,,301,736,140
00:59:37.559,,347,386,37
00:59:37.596,,432,666,46
00:59:37.633,,489,783,-76
00:59:37.670,,383,916,177
00:59:37.707,,324,772,374
00:59:37.744,,468,767,563
00:59:37.781,,453,857,908
00:59:37.818,,573,677,955
00:59:37.856,,634,522,807
00:59:37.893,,554,318,808
00:59:37.930,,438,96,998
00:59:37.967,,453,-13,1022
00:59:38.004,,444,192,1037
00:59:38.041,,334,127,775
00:59:38.078,,404,354,727
00:59:38.115,,304,94,664
00:59:38.152,,476,221,485
00:59:38.189,,482,210,710
00:59:38.226,,531,241,794
00:59:38.263,,635,340,754
00:59:38.300,,503,226,788
00:59:38.338,,467,227,811
00:59:38.375,,502,101,786
00:59:38.412,,588,160,834
00:59:38.449,,587,175,776
00:59:38.486,,643,105,769
00:59:38.523,,807,157,1092
00:59:38.560,,852,467,872
00:59:38.597,,728,301,602
00:59:38.634,,614,310,435
00:59:38.671,,618,572,506
00:59:38.708,,702,546,546
00:59:38.745,,765,673,440
00:59:38.782,,683,491,316
00:59:38.819,,610,400,356
00:59:38.857,,639,449,363
00:59:38.894,,663,604,305
00:59:38.931,,709,756,286
00:59:38.968,,689,619,277
00:59:39.005,,624,510,170
00:59:39.042,,591,601,77
00:59:39.079,,693,781,49
00:59:39.116,,700,636,81
00:59:39.153,,716,565,55
00:59:39.190,,739,617,27
00:59:39.227,,819,689,-22
00:59:39.264,,858,665,-7
00:59:39.301,,954,613,104
00:59:39.338,,933,447,142
00:59:39.376,,965,551,170
00:59:39.413,,911,646,199
00:59:39.450,,765,495,178
00:59:39.487,,727,572,134
00:59:39.524,,681,584,47
00:59:39.561,,644,519,80
00:59:39.598,,645,405,184
00:59:39.635,,705,473,295
00:59:39.672,,815,520,418
00:59:39.709,,911,383,371
00:59:39.746,,908,217,410
00:59:39.783,,1003,38,585
00:59:39.820,,1074,102,537
00:59:39.858,,944,355,362
00:59:39.895,,784,560,130
00:59:39.932,,652,681,-236
00:59:39.969,,406,811,-367
00:59:40.006,,541,760,-285
00:59:40.043,,511,650,-121
00:59:40.080,,675,784,2
00:59:40.117,,607,681,-146
00:59:40.154,,590,618,-196
00:59:40.191,,669,617,-63
00:59:40.228,,611,816,-28
00:59:40.265,,661,644,11
00:59:40.302,,722,767,87
00:59:40.339,,728,822,-12
00:59:40.377,,678,685,21
00:59:40.414,,742,658,116
00:59:40.451,,699,630,273
00:59:40.488,,722,533,387
00:59:40.525,,672,451,459
00:59:40.562,,683,562,453
00:59:40.599,,700,513,529
00:59:40.636,,829,541,578
00:59:40.673,,932,564,450
00:59:40.710,,1062,547,460
00:59:40.747,,1148,373,484
00:59:40.784,,1187,184,346
00:59:40.821,,1019,404,388
00:59:40.859,,835,435,454
00:59:40.896,,635,466,368
00:59:40.933,,470,419,364
00:59:40.970,,391,574,240
00:59:41.007,,355,618,155
00:59:41.044,,381,503,135
00:59:41.081,,491,676,276
00:59:41.118,,511,692,313
00:59:41.155,,527,889,198
00:59:41.192,,430,835,95
00:59:41.229,,358,882,37
00:59:41.266,,373,1195,147
00:59:41.303,,541,921,180
00:59:41.341,,621,725,272
00:59:41.378,,758,831,361
00:59:41.415,,943,689,394
00:59:41.452,,772,477,562
00:59:41.489,,637,802,203
00:59:41.526,,519,758,281
00:59:41.563,,773,799,296
00:59:41.600,,803,589,440
00:59:41.637,,676,265,379
00:59:41.674,,592,78,349
00:59:41.711,,656,348,468
00:59:41.748,,673,553,537
00:59:41.786,,650,493,388
00:59:41.823,,629,780,374
00:59:41.860,,675,565,413
00:59:41.897,,682,379,504
00:59:41.934,,662,475,459
00:59:41.971,,663,476,460
00:59:42.008,,836,626,586
00:59:42.045,,920,725,557
00:59:42.082,,832,383,536
00:59:42.119,,764,80,482
00:59:42.156,,738,208,724
00:59:42.193,,667,654,844
00:59:42.230,,554,480,688
00:59:42.268,,425,265,611
00:59:42.305,,380,297,616
00:59:42.342,,407,339,701
00:59:42.379,,470,366,767
00:59:42.416,,482,381,758
00:59:42.453,,392,277,706
00:59:42.490,,307,287,701
00:59:42.527,,412,477,758
00:59:42.564,,654,501,840
00:59:42.601,,767,469,823
00:59:42.638,,792,616,965
00:59:42.675,,628,436,965
00:59:42.713,,418,491,679
00:59:42.750,,635,646,546
00:59:42.787,,682,513,331
00:59:42.824,,697,284,468
00:59:42.861,,629,508,509
00:59:42.898,,603,663,526
00:59:42.935,,505,411,478
00:59:42.972,,437,353,511
00:59:43.009,,446,508,536
00:59:43.046,,546,651,575
00:59:43.083,,625,614,538
00:59:43.120,,631,475,503
00:59:43.157,,574,374,490
00:59:43.195,,616,498,546
00:59:43.232,,820,703,563
00:59:43.269,,1029,855,601
00:59:43.306,,988,487,551
00:59:43.343,,862,229,406
00:59:43.380,,797,117,574
00:59:43.417,,732,559,751
00:59:43.454,,709,525,729
00:59:43.491,,565,315,572
00:59:43.528,,449,125,529
00:59:43.565,,415,186,532
00:59:43.602,,454,233,619
00:59:43.640,,537,317,689
00:59:43.677,,549,181,582
00:59:43.714,,466,137,559
00:59:43.751,,530,262,703
00:59:43.788,,523,310,583
00:59:43.825,,480,312,958
00:59:43.862,,531,220,1051
00:59:43.899,,447,341,1192
00:59:43.936,,480,440,1019
00:59:43.973,,475,386,954
00:59:44.010,,464,455,699
00:59:44.047,,537,464,611
00:59:44.085,,557,432,751
00:59:44.122,,607,314,840
00:59:44.159,,580,413,789
00:59:44.196,,552,260,774
00:59:44.233,,547,217,714
00:59:44.270,,512,422,757
00:59:44.307,,530,416,840
00:59:44.344,,518,427,823
00:59:44.381,,515,428,814
00:59:44.418,,487,425,813
00:59:44.455,,415,583,830
00:59:44.492,,322,509,852
00:59:44.530,,299,465,822
00:59:44.567,,282,512,784
00:59:44.604,,388,635,745
00:59:44.641,,463,719,730
00:59:44.678,,498,494,700
00:59:44.715,,525,423,683
00:59:44.752,,521,439,746
00:59:44.789,,455,459,759
00:59:44.826,,396,466,833
00:59:44.863,,378,341,813
00:59:44.900,,411,406,783
00:59:44.937,,424,385,708
00:59:44.975,,419,374,746
00:59:45.012,,415,325,767
00:59:45.049,,399,317,785
00:59:45.086,,353,336,757
00:59:45.123,,295,368,812
00:59:45.160,,281,346,841
00:59:45.197,,367,307,812
00:59:45.234,,427,362,902
00:59:45.271,,468,464,810
00:59:45.308,,495,492,869
00:59:45.345,,591,499,856
00:59:45.382,,551,425,796
00:59:45.419,,552,455,704
00:59:45.457,,568,603,596
00:59:45.494,,488,635,539
00:59:45.531,,369,545,576
00:59:45.568,,433,571,664
00:59:45.605,,556,778,666
00:59:45.642,,567,666,626
00:59:45.679,,508,651,501
00:59:45.716,,444,582,539
00:59:45.753,,446,831,499
00:59:45.790,,351,910,570
00:59:45.827,,375,623,549
00:59:45.864,,438,708,469
00:59:45.902,,626,601,216
00:59:45.939,,790,327,222
00:59:45.976,,824,402,341
00:59:46.013,,808,359,402
00:59:46.050,,765,464,528
00:59:46.087,,700,478,533
00:59:46.124,,705,493,501
00:59:46.161,,740,406,484
00:59:46.198,,918,603,350
00:59:46.235,,855,511,344
00:59:46.272,,789,233,321
00:59:46.309,,899,131,450
00:59:46.346,,1038,372,619
00:59:46.384,,894,628,536
00:59:46.421,,634,355,444
00:59:46.458,,552,114,478
00:59:46.495,,614,86,553
00:59:46.532,,711,138,614
00:59:46.569,,737,161,637
00:59:46.606,,633,177,645
00:59:46.643,,611,373,635
00:59:46.680,,566,325,716
00:59:46.717,,550,325,749
00:59:46.754,,603,237,684
00:59:46.791,,728,280,672
00:59:46.828,,786,300,655
00:59:46.866,,771,369,698
00:59:46.903,,878,350,744
00:59:46.940,,999,550,531
00:59:46.977,,919,223,441
00:59:47.014,,716,64,294
00:59:47.051,,686,340,242
00:59:47.088,,772,478,521
00:59:47.125,,805,510,577
00:59:47.162,,734,444,332
00:59:47.199,,643,177,278
00:59:47.236,,709,257,362
00:59:47.273,,806,551,356
00:59:47.311,,846,673,300
00:59:47.348,,866,491,325
00:59:47.385,,935,446,389
00:59:47.422,,1023,567,362
00:59:47.459,,958,595,288
00:59:47.496,,838,628,245
00:59:47.533,,828,705,223
00:59:47.570,,790,456,167
00:59:47.607,,698,184,271
00:59:47.644,,846,306,560
00:59:47.681,,908,567,643
00:59:47.718,,785,428,481
00:59:47.756,,669,285,410
00:59:47.793,,561,207,378
00:59:47.830,,575,343,432
00:59:47.867,,662,384,546
00:59:47.904,,677,306,568
00:59:47.941,,700,329,572
00:59:47.978,,678,314,610
00:59:48.015,,646,397,631
00:59:48.052,,617,486,693
00:59:48.089,,572,425,668
00:59:48.126,,561,298,650
00:59:48.163,,619,350,675
00:59:48.200,,612,358,625
00:59:48.238,,584,308,639
00:59:48.275,,736,515,636
00:59:48.312,,1089,651,626
00:59:48.349,,1122,622,480
00:59:48.386,,809,260,470
00:59:48.423,,700,297,367
00:59:48.460,,661,598,141
00:59:48.497,,702,610,252
00:59:48.534,,808,436,423
00:59:48.571,,790,472,378
00:59:48.608,,711,485,311
00:59:48.645,,625,487,329
00:59:48.683,,608,547,417
00:59:48.720,,655,654,422
00:59:48.757,,648,561,366
00:59:48.794,,662,498,385
00:59:48.831,,749,560,429
00:59:48.868,,678,497,369
00:59:48.905,,613,470,314
00:59:48.942,,612,501,329
00:59:48.979,,643,497,369
00:59:49.016,,843,756,368
00:59:49.053,,1082,627,362
00:59:49.090,,1132,382,328
00:59:49.127,,1061,318,513
00:59:49.164,,1015,517,726
00:59:49.202,,894,574,558
00:59:49.239,,676,256,482
00:59:49.276,,620,313,488
00:59:49.313,,576,288,582
00:59:49.350,,548,306,612
00:59:49.387,,596,304,607
00:59:49.424,,630,302,582
00:59:49.461,,618,297,602
00:59:49.498,,540,261,605
00:59:49.535,,492,303,673
00:59:49.572,,499,284,726
00:59:49.609,,556,289,692
00:59:49.647,,572,170,718
00:59:49.684,,692,325,722
00:59:49.721,,724,495,700
00:59:49.758,,627,339,641
00:59:49.795,,623,238,629
00:59:49.832,,816,467,547
00:59:49.869,,1093,600,574
00:59:49.906,,1057,479,652
00:59:49.943,,731,465,460
00:59:49.980,,418,345,386
00:59:50.017,,330,190,413
00:59:50.054,,444,439,524
00:59:50.091,,654,624,450
00:59:50.129,,742,553,328
00:59:50.166,,788,458,345
00:59:50.203,,949,628,402
00:59:50.240,,800,584,304
00:59:50.277,,692,572,257
00:59:50.314,,717,555,356
00:59:50.351,,784,549,377
00:59:50.388,,801,469,390
00:59:50.425,,788,352,396
00:59:50.462,,767,435,395
00:59:50.499,,815,477,381
00:59:50.536,,877,637,256
00:59:50.574,,779,718,195
00:59:50.611,,745,632,127
00:59:50.648,,743,695,147
00:59:50.685,,844,961,86
00:59:50.722,,890,916,101
00:59:50.759,,899,602,212
00:59:50.796,,1051,774,201
00:59:50.833,,963,192,170
00:59:50.870,,917,62,359
00:59:50.907,,824,125,564
00:59:50.944,,683,190,723
00:59:50.981,,601,234,602
00:59:51.018,,482,160,610
00:59:51.056,,414,228,633
00:59:51.093,,401,174,699
00:59:51.130,,368,85,849
00:59:51.167,,329,160,820
00:59:51.204,,296,49,945
00:59:51.241,,295,104,986
00:59:51.278,,288,118,1000
00:59:51.315,,220,46,1128
00:59:51.352,,158,123,1101
00:59:51.389,,183,92,1124
00:59:51.426,,167,161,1146
00:59:51.463,,143,169,1131
00:59:51.501,,118,93,985
00:59:51.538,,-8,92,935
00:59:51.575,,-80,89,973
00:59:51.612,,-44,95,954
00:59:51.649,,-2,83,886
00:59:51.686,,-55,95,814
00:59:51.723,,-126,73,743
00:59:51.760,,-175,61,780
00:59:51.797,,-157,83,847
00:59:51.834,,-122,106,846
00:59:51.871,,-71,153,852
00:59:51.908,,-61,111,949
00:59:51.945,,-54,204,1107
00:59:51.983,,-24,185,1211
00:59:52.020,,52,256,1301
00:59:52.057,,90,382,1300
00:59:52.094,,220,372,1249
00:59:52.131,,188,246,1128
00:59:52.168,,146,218,1060
00:59:52.205,,105,190,991
00:59:52.242,,102,181,943
00:59:52.279,,95,130,906
00:59:52.316,,69,63,855
00:59:52.353,,-20,50,811
00:59:52.390,,-107,38,941
00:59:52.427,,-151,66,973
00:59:52.465,,-65,-64,935
00:59:52.502,,53,-83,993
00:59:52.539,,165,-140,959
00:59:52.576,,223,-65,965
00:59:52.613,,246,-55,1083
00:59:52.650,,139,89,1114
00:59:52.687,,136,105,1218
00:59:52.724,,117,184,1060
00:59:52.761,,61,61,987
00:59:52.798,,43,136,1013
00:59:52.835,,-25,346,938
00:59:52.872,,-4,268,947
00:59:52.909,,53,68,898
00:59:52.947,,120,-103,832
00:59:52.984,,144,-119,704
00:59:53.021,,220,-13,777
00:59:53.058,,249,-35,908
00:59:53.095,,289,-207,880
00:59:53.132,,332,-166,966
00:59:53.169,,355,-131,1147
00:59:53.206,,377,-87,1145
00:59:53.243,,450,-139,1185
00:59:53.280,,600,-90,1218
00:59:53.317,,736,-164,1192
00:59:53.354,,776,-73,1083
00:59:53.391,,608,100,968
00:59:53.429,,530,137,870
00:59:53.466,,397,382,856
00:59:53.503,,238,268,649
00:59:53.540,,60,74,527
00:59:53.577,,-78,-50,419
00:59:53.614,,-103,15,456
00:59:53.651,,-128,62,623
00:59:53.688,,-80,28,840
00:59:53.725,,4,47,1061
00:59:53.762,,50,-123,1250
00:59:53.799,,81,-89,1333
00:59:53.836,,40,110,1386
00:59:53.874,,-86,181,1425
00:59:53.911,,-62,372,1453
00:59:53.948,,38,380,1328
00:59:53.985,,-21,222,1081
00:59:54.022,,-88,341,988
00:59:54.059,,-79,357,898
00:59:54.096,,-46,257,809
00:59:54.133,,-11,193,754
00:59:54.170,,0,131,710
00:59:54.207,,-37,121,725
00:59:54.244,,-59,125,822
00:59:54.281,,-27,116,923
00:59:54.318,,-8,75,965
00:59:54.356,,30,53,996
00:59:54.393,,26,54,1045
00:59:54.430,,66,63,1123
00:59:54.467,,177,48,1144
00:59:54.504,,212,45,1252
00:59:54.541,,413,186,1202
00:59:54.578,,361,260,1105
00:59:54.615,,260,281,964
00:59:54.652,,217,342,913
00:59:54.689,,202,216,846
00:59:54.726,,143,157,769
00:59:54.763,,87,153,778
00:59:54.801,,28,97,782
00:59:54.838,,9,59,809
00:59:54.875,,32,62,868
00:59:54.912,,72,75,939
00:59:54.949,,113,82,999
00:59:54.986,,120,45,991
00:59:55.023,,76,72,1048
00:59:55.060,,56,130,1143
00:59:55.097,,68,122,1153
00:59:55.134,,-59,119,1173
00:59:55.171,,-87,309,1280
00:59:55.208,,47,375,1260
00:59:55.246,,-82,278,1125
00:59:55.283,,-106,367,1050
00:59:55.320,,-75,390,974
00:59:55.357,,-23,299,872
00:59:55.394,,2,191,788
00:59:55.431,,18,129,733
00:59:55.468,,-10,91,723
00:59:55.505,,-20,68,778
00:59:55.542,,-23,87,851
00:59:55.579,,-3,89,920
00:59:55.616,,6,78,963
00:59:55.653,,-36,107,1037
00:59:55.691,,8,195,1198
00:59:55.728,,167,185,1201
00:59:55.765,,196,97,1233
00:59:55.802,,321,209,1289
00:59:55.839,,326,386,1097
00:59:55.876,,177,400,967
00:59:55.913,,245,335,877
00:59:55.950,,201,161,724
00:59:55.987,,112,91,685
00:59:56.024,,28,96,698
00:59:56.061,,-13,70,763
00:59:56.099,,-1,30,868
00:59:56.136,,43,112,946
00:59:56.173,,80,111,1000
00:59:56.210,,36,99,1022
00:59:56.247,,-69,207,1105
00:59:56.284,,-96,257,1153
00:59:56.321,,-188,268,1210
00:59:56.358,,-92,562,1391
00:59:56.395,,66,399,1209
00:59:56.432,,-69,280,1049
00:59:56.469,,-109,447,1073
00:59:56.506,,-84,356,931
00:59:56.544,,-73,271,841
00:59:56.581,,-56,220,815
00:59:56.618,,-60,134,757
00:59:56.655,,-96,74,744
00:59:56.692,,-154,76,808
00:59:56.729,,-140,95,877
00:59:56.766,,-89,87,927
00:59:56.803,,-39,29,961
00:59:56.840,,-64,80,1054
00:59:56.877,,10,84,1139
00:59:56.914,,116,30,1131
00:59:56.952,,163,131,1236
00:59:56.989,,246,208,1220
00:59:57.026,,263,243,1103
00:59:57.063,,212,282,1027
00:59:57.100,,225,269,952
00:59:57.137,,215,182,831
00:59:57.174,,182,139,745
00:59:57.211,,101,81,684
00:59:57.248,,0,55,691
00:59:57.285,,-59,94,798
00:59:57.322,,-26,193,951
00:59:57.359,,43,160,1009
00:59:57.397,,88,66,1009
00:59:57.434,,58,135,1062
00:59:57.471,,-18,115,1105
00:59:57.508,,1,168,1182
00:59:57.545,,-31,170,1201
00:59:57.582,,-71,325,1281
00:59:57.619,,50,455,1258
00:59:57.656,,-79,238,1050
00:59:57.693,,-117,405,1083
00:59:57.730,,-62,416,1022
00:59:57.767,,25,256,897
00:59:57.805,,31,149,798
00:59:57.842,,23,97,729
00:59:57.879,,0,-45,695
00:59:57.916,,-32,-25,731
00:59:57.953,,-42,146,838
00:59:57.990,,-15,220,931
00:59:58.027,,2,146,960
00:59:58.064,,-30,161,1043
00:59:58.101,,-12,284,1168
00:59:58.138,,107,240,1200
00:59:58.176,,165,162,1316
00:59:58.213,,288,308,1310
00:59:58.250,,240,325,1165
00:59:58.287,,158,308,990
00:59:58.324,,180,371,887
00:59:58.361,,197,303,794
00:59:58.398,,158,151,699
00:59:58.435,,95,111,652
00:59:58.472,,35,133,675
00:59:58.509,,-27,142,736
00:59:58.546,,-46,114,819
00:59:58.584,,-42,171,888
00:59:58.621,,-75,252,984
00:59:58.658,,-71,237,1127
00:59:58.695,,-46,151,1208
00:59:58.732,,0,152,1258
00:59:58.769,,-14,134,1225
00:59:58.806,,-50,136,1363
00:59:58.843,,-3,335,1331
00:59:58.880,,-198,404,1028
00:59:58.917,,-180,427,961
00:59:58.954,,-63,447,952
00:59:58.992,,-27,299,814
00:59:59.029,,-20,190,744
00:59:59.066,,-4,171,723
00:59:59.103,,-17,108,725
00:59:59.140,,-39,66,765
00:59:59.177,,-59,71,843
00:59:59.214,,-73,134,931
00:59:59.251,,-59,122,993
00:59:59.288,,-82,120,1050
00:59:59.325,,-59,248,1175
00:59:59.362,,70,260,1236
00:59:59.400,,86,221,1271
00:59:59.437,,275,388,1258
00:59:59.474,,281,357,1067
00:59:59.511,,165,370,966
00:59:59.548,,147,402,911
00:59:59.585,,149,314,787
00:59:59.622,,114,217,702
00:59:59.659,,41,189,656
00:59:59.696,,-26,218,644
00:59:59.733,,-94,158,708
00:59:59.771,,-106,134,798
00:59:59.808,,-64,238,940
00:59:59.845,,-22,272,1086
00:59:59.882,,-41,222,1145
00:59:59.919,,-77,294,1217
00:59:59.956,,-114,332,1211
00:59:59.993,,-224,417,1275
01:00:00.030,,-98,493,1232
01:00:00.067,,-175,362,1042
01:00:00.104,,-253,488,1080
01:00:00.141,,-139,500,1017
01:00:00.178,,-79,352,864
01:00:00.216,,-56,244,771
01:00:00.253,,-74,159,689
01:00:00.290,,-141,115,642
01:00:00.327,,-185,90,665
01:00:00.364,,-153,167,740
01:00:00.401,,-73,258,871
01:00:00.438,,68,310,960
01:00:00.475,,115,233,1036
01:00:00.512,,169,305,1163
01:00:00.549,,223,305,1203
01:00:00.586,,231,257,1228
01:00:00.624,,265,292,1229
01:00:00.661,,266,296,1099
01:00:00.698,,194,354,1032
01:00:00.735,,181,347,970
01:00:00.772,,193,277,862
01:00:00.809,,189,198,749
01:00:00.846,,130,165,673
01:00:00.883,,36,170,670
01:00:00.920,,-64,190,726
01:00:00.957,,-94,200,817
01:00:00.994,,-68,252,941
01:00:01.032,,-79,199,995
01:00:01.069,,-144,223,1079
01:00:01.106,,-135,324,1212
01:00:01.143,,-79,312,1217
01:00:01.180,,-170,365,1278
01:00:01.217,,22,492,1299
01:00:01.254,,21,240,978
01:00:01.291,,-88,301,932
01:00:01.328,,-109,341,939
01:00:01.365,,-61,250,853
01:00:01.402,,3,140,822
01:00:01.440,,8,126,838
01:00:01.477,,-14,128,825
01:00:01.514,,-27,119,846
01:00:01.551,,13,122,901
01:00:01.588,,80,115,922
01:00:01.625,,93,115,957
01:00:01.662,,142,185,1076
01:00:01.699,,265,113,1046
01:00:01.736,,160,110,1087
01:00:01.773,,282,345,1204
01:00:01.810,,293,340,1158
01:00:01.848,,315,277,1107
01:00:01.885,,291,234,993
01:00:01.922,,230,96,821
01:00:01.959,,107,84,722
01:00:01.996,,-1,151,727
01:00:02.033,,-68,103,777
01:00:02.070,,-87,76,866
01:00:02.107,,-32,120,980
01:00:02.144,,8,89,1019
01:00:02.181,,-39,87,1080
01:00:02.218,,-50,175,1163
01:00:02.255,,-78,180,1137
01:00:02.293,,-159,317,1254
01:00:02.330,,-18,315,1169
01:00:02.367,,-118,224,1027
01:00:02.404,,-176,340,1021
01:00:02.441,,-58,352,987
01:00:02.478,,34,117,817
01:00:02.515,,26,118,800
01:00:02.552,,19,147,800
01:00:02.589,,-2,95,817
01:00:02.626,,23,107,901
01:00:02.663,,95,141,971
01:00:02.701,,126,98,980
01:00:02.738,,86,244,1055
01:00:02.775,,222,179,1053
01:00:02.812,,79,142,1162
01:00:02.849,,284,420,1295
01:00:02.886,,281,291,1191
01:00:02.923,,289,311,1166
01:00:02.960,,263,232,1008
01:00:02.997,,194,74,786
01:00:03.034,,57,52,688
01:00:03.071,,-38,128,704
01:00:03.109,,-85,100,736
01:00:03.146,,-65,92,821
01:00:03.183,,12,126,953
01:00:03.220,,99,99,997
01:00:03.257,,21,40,1019
01:00:03.294,,-45,142,1125
01:00:03.331,,-14,133,1107
01:00:03.368,,-155,164,1194
01:00:03.405,,-31,326,1258
01:00:03.442,,-103,123,1081
01:00:03.479,,-198,306,1079
01:00:03.517,,-122,403,1104
01:00:03.554,,62,219,947
01:00:03.591,,51,133,845
01:00:03.628,,5,117,802
01:00:03.665,,-25,87,790
01:00:03.702,,-50,62,854
01:00:03.739,,-8,60,920
01:00:03.776,,24,89,975
01:00:03.813,,40,108,1035
01:00:03.850,,133,121,1088
01:00:03.887,,73,61,1120
01:00:03.925,,280,299,1287
01:00:03.962,,330,53,1087
01:00:03.999,,129,175,1041
01:00:04.036,,143,290,1072
01:00:04.073,,198,173,956
01:00:04.110,,185,94,842
01:00:04.147,,67,97,805
01:00:04.184,,0,100,762
01:00:04.221,,-48,80,772
01:00:04.258,,-36,66,863
01:00:04.295,,45,153,977
01:00:04.332,,108,96,1012
01:00:04.370,,81,22,1021
01:00:04.407,,13,117,1112
01:00:04.444,,36,102,1137
01:00:04.481,,-50,72,1161
01:00:04.518,,12,273,1297
01:00:04.555,,131,145,1172
01:00:04.592,,1,83,993
01:00:04.629,,-109,251,961
01:00:04.666,,-106,336,989
01:00:04.703,,24,221,911
01:00:04.740,,78,172,892
01:00:04.777,,67,145,894
01:00:04.815,,-13,23,855
01:00:04.852,,-58,63,883
01:00:04.889,,-62,55,916
01:00:04.926,,-42,23,941
01:00:04.963,,-38,68,984
01:00:05.000,,43,109,1090
01:00:05.037,,191,78,1099
01:00:05.074,,82,58,1130
01:00:05.111,,153,158,1185
01:00:05.148,,211,200,1156
01:00:05.185,,202,268,1097
01:00:05.222,,253,232,1011
01:00:05.260,,176,52,884
01:00:05.297,,92,26,759
01:00:05.334,,12,86,763
01:00:05.371,,-29,19,776
01:00:05.408,,-14,22,852
01:00:05.445,,49,57,969
01:00:05.482,,137,101,1047
01:00:05.519,,138,31,1023
01:00:05.556,,37,71,1069
01:00:05.593,,51,109,1128
01:00:05.630,,-64,38,1130
01:00:05.667,,-23,237,1252
01:00:05.705,,38,97,1077
01:00:05.742,,-153,118,958
01:00:05.779,,-253,315,1031
01:00:05.816,,-120,343,1087
01:00:05.853,,33,143,973
01:00:05.890,,14,123,924
01:00:05.927,,-58,98,848
01:00:05.964,,-121,105,836
01:00:06.001,,-92,102,873
01:00:06.038,,-32,115,918
01:00:06.075,,0,106,953
01:00:06.113,,-9,168,1037
01:00:06.150,,90,201,1097
01:00:06.187,,14,28,1028
01:00:06.224,,87,194,1140
01:00:06.261,,172,202,1118
01:00:06.298,,96,206,1123
01:00:06.335,,124,233,1114
01:00:06.372,,122,127,982
01:00:06.409,,48,-4,804
01:00:06.446,,-48,20,743
01:00:06.483,,-109,64,759
01:00:06.520,,-128,67,845
01:00:06.558,,-63,136,971
01:00:06.595,,-2,76,1031
01:00:06.632,,-68,142,1143
01:00:06.669,,1,111,1135
01:00:06.706,,-162,174,1169
01:00:06.743,,-45,386,1276
01:00:06.780,,-53,105,1052
01:00:06.817,,-189,265,1028
01:00:06.854,,-229,405,1055
01:00:06.891,,-73,306,986
01:00:06.928,,-9,158,913
01:00:06.965,,-50,157,878
01:00:07.002,,-98,79,820
01:00:07.040,,-67,43,831
01:00:07.077,,-24,10,857
01:00:07.114,,26,-20,904
01:00:07.151,,5,-8,974
01:00:07.188,,67,27,1091
01:00:07.225,,187,-74,1134
01:00:07.262,,77,-155,1211
01:00:07.299,,157,109,1252
01:00:07.336,,75,207,1090
01:00:07.373,,148,99,1015
01:00:07.410,,106,15,965
01:00:07.448,,49,-138,809
01:00:07.485,,-12,-215,814
01:00:07.522,,-47,-223,828
01:00:07.559,,-65,-207,846
01:00:07.596,,-42,-181,976
01:00:07.633,,-33,-92,1013
01:00:07.670,,-47,-150,970
01:00:07.707,,-113,-144,1002
01:00:07.744,,-160,-124,1069
01:00:07.781,,-198,-106,1115
01:00:07.818,,-281,-88,1205
01:00:07.855,,-292,-80,1190
01:00:07.893,,-409,-95,1088
01:00:07.930,,-458,-31,1067
01:00:07.967,,-263,108,1083
01:00:08.004,,-54,41,929
01:00:08.041,,-67,-34,773
01:00:08.078,,-86,-61,655
01:00:08.115,,-143,-118,664
01:00:08.152,,-184,-49,835
01:00:08.189,,-147,-85,916
01:00:08.226,,-147,-226,1029
01:00:08.263,,-95,-239,1262
01:00:08.300,,9,-47,1272
01:00:08.337,,-155,-43,1188
01:00:08.375,,-149,313,1257
01:00:08.412,,-102,252,1166
01:00:08.449,,-73,188,1107
01:00:08.486,,-132,70,960
01:00:08.523,,-128,-59,841
01:00:08.560,,-153,-79,858
01:00:08.597,,-169,-89,826
01:00:08.634,,-178,-113,823
01:00:08.671,,-161,-102,927
01:00:08.708,,-101,-125,964
01:00:08.745,,-87,-185,900
01:00:08.783,,-174,-182,947
01:00:08.820,,-181,-123,1124
01:00:08.857,,-225,-148,1116
01:00:08.894,,-189,-35,1251
01:00:08.931,,-178,-84,1183
01:00:08.968,,-240,-86,1088
01:00:09.005,,-241,46,1112
01:00:09.042,,-92,48,1030
01:00:09.079,,1,-37,869
01:00:09.116,,-14,-72,799
01:00:09.153,,-31,-113,794
01:00:09.190,,-22,-123,836
01:00:09.227,,-5,-82,939
01:00:09.265,,15,-85,1015
01:00:09.302,,37,-85,1088
01:00:09.339,,123,-72,1119
01:00:09.376,,42,-144,987
01:00:09.413,,58,-73,1108
01:00:09.450,,55,100,1182
01:00:09.487,,101,155,1220
01:00:09.524,,101,112,1171
01:00:09.561,,-6,-2,1061
01:00:09.598,,-83,-159,903
01:00:09.635,,-109,-90,816
01:00:09.672,,-88,-60,784
01:00:09.710,,-83,-20,857
01:00:09.747,,-80,-16,926
01:00:09.784,,-94,-77,935
01:00:09.821,,-111,-176,996
01:00:09.858,,-64,-206,1090
01:00:09.895,,-145,-136,1244
01:00:09.932,,-11,79,1328
01:00:09.969,,-89,-9,1082
01:00:10.006,,-284,45,1026
01:00:10.043,,-285,149,1073
01:00:10.080,,-142,144,1012
01:00:10.117,,-74,43,896
01:00:10.155,,-72,-29,802
01:00:10.192,,-90,-76,779
01:00:10.229,,-75,-119,805
01:00:10.266,,-41,-67,894
01:00:10.303,,-10,-71,980
01:00:10.340,,-16,-35,1075
01:00:10.377,,36,28,1132
01:00:10.414,,-29,-75,1074
01:00:10.451,,11,92,1210
01:00:10.488,,50,122,1243
01:00:10.525,,68,150,1223
01:00:10.562,,107,101,1130
01:00:10.600,,65,22,936
01:00:10.637,,-29,-55,795
01:00:10.674,,-82,-58,767
01:00:10.711,,-91,-43,783
01:00:10.748,,-80,-3,896
01:00:10.785,,-46,42,1005
01:00:10.822,,-25,17,1028
01:00:10.859,,-94,-14,1068
01:00:10.896,,-124,-34,1072
01:00:10.933,,-236,-28,1108
01:00:10.970,,-44,142,1229
01:00:11.007,,-145,53,1093
01:00:11.045,,-257,182,1127
01:00:11.082,,-227,257,1174
01:00:11.119,,-123,153,1008
01:00:11.156,,-101,2,797
01:00:11.193,,-123,-27,752
01:00:11.230,,-138,-23,752
01:00:11.267,,-140,-34,811
01:00:11.304,,-105,12,896
01:00:11.341,,-53,76,991
01:00:11.378,,-72,152,1097
01:00:11.415,,-11,179,1163
01:00:11.453,,20,23,1065
01:00:11.490,,-14,60,1163
01:00:11.527,,139,91,1214
01:00:11.564,,103,209,1151
01:00:11.601,,179,227,1134
01:00:11.638,,184,210,1062
01:00:11.675,,134,132,924
01:00:11.712,,43,40,816
01:00:11.749,,-10,20,769
01:00:11.786,,-55,-25,760
01:00:11.823,,-59,-48,819
01:00:11.860,,-29,1,951
01:00:11.898,,-3,31,1047
01:00:11.935,,-38,0,1085
01:00:11.972,,-72,66,1163
01:00:12.009,,-117,100,1161
01:00:12.046,,-148,228,1316
01:00:12.083,,38,167,1199
01:00:12.120,,-121,6,1022
01:00:12.157,,-238,159,1014
01:00:12.194,,-131,225,1047
01:00:12.231,,9,90,942
01:00:12.268,,-3,69,872
01:00:12.305,,-19,64,812
01:00:12.343,,-46,4,800
01:00:12.380,,-22,1,853
01:00:12.417,,36,31,935
01:00:12.454,,49,13,965
01:00:12.491,,38,51,1059
01:00:12.528,,83,0,1071
01:00:12.565,,12,-96,1133
01:00:12.602,,151,289,1257
01:00:12.639,,44,171,1096
01:00:12.676,,48,290,1122
01:00:12.713,,136,306,1148
01:00:12.750,,190,171,964
01:00:12.788,,70,0,825
01:00:12.825,,-27,-46,770
01:00:12.862,,-96,-77,778
01:00:12.899,,-66,-74,857
01:00:12.936,,-1,23,996
01:00:12.973,,54,35,1045
01:00:13.010,,-23,10,1051
01:00:13.047,,-73,32,1066
01:00:13.084,,-109,49,1081
01:00:13.121,,-80,215,1304
01:00:13.158,,45,111,1173
01:00:13.195,,-134,27,1033
01:00:13.233,,-270,154,1032
01:00:13.270,,-244,199,1033
01:00:13.307,,-115,222,1010
01:00:13.344,,-51,139,936
01:00:13.381,,-32,36,828
01:00:13.418,,-75,5,776
01:00:13.455,,-108,-3,793
01:00:13.492,,-94,-20,824
01:00:13.529,,-62,23,895
01:00:13.566,,-46,39,976
01:00:13.603,,64,107,1131
01:00:13.641,,181,23,1100
01:00:13.678,,86,-52,1271
01:00:13.715,,213,203,1365
01:00:13.752,,100,300,1226
01:00:13.789,,162,290,1150
01:00:13.826,,127,224,990
01:00:13.863,,58,110,790
01:00:13.900,,-66,62,732
01:00:13.937,,-127,66,744
01:00:13.974,,-125,5,792
01:00:14.011,,-88,47,899
01:00:14.048,,-49,89,987
01:00:14.086,,-63,70,1034
01:00:14.123,,-108,62,1107
01:00:14.160,,-102,96,1154
01:00:14.197,,-187,141,1221
01:00:14.234,,-107,230,1226
01:00:14.271,,-185,102,1048
01:00:14.308,,-279,232,1054
01:00:14.345,,-209,249,1053
01:00:14.382,,-59,187,956
01:00:14.419,,-52,40,833
01:00:14.456,,-49,17,795
01:00:14.494,,-64,-16,803
01:00:14.531,,-71,-60,828
01:00:14.568,,-40,-4,910
01:00:14.605,,17,39,975
01:00:14.642,,27,40,1062
01:00:14.679,,92,103,1152
01:00:14.716,,75,-5,1209
01:00:14.753,,212,209,1328
01:00:14.790,,175,151,1152
01:00:14.827,,157,195,1109
01:00:14.864,,178,225,1058
01:00:14.902,,130,109,867
01:00:14.939,,-11,9,734
01:00:14.976,,-119,6,701
01:00:15.013,,-144,-10,694
01:00:15.050,,-141,18,795
01:00:15.087,,-98,160,980
01:00:15.124,,-58,153,1039
01:00:15.161,,-116,70,1086
01:00:15.198,,-148,102,1197
01:00:15.235,,-157,69,1195
01:00:15.272,,-189,80,1231
01:00:15.309,,-166,135,1213
01:00:15.346,,-237,113,1101
01:00:15.384,,-252,231,1089
01:00:15.421,,-81,263,1034
01:00:15.458,,3,76,854
01:00:15.495,,-17,-20,757
01:00:15.532,,-47,-16,719
01:00:15.569,,-95,-60,746
01:00:15.606,,-69,23,877
01:00:15.643,,-8,87,954
01:00:15.680,,-2,32,1010
01:00:15.717,,24,162,1153
01:00:15.754,,13,46,1125
01:00:15.792,,49,155,1255
01:00:15.829,,189,262,1286
01:00:15.866,,150,84,1131
01:00:15.903,,152,78,1039
01:00:15.940,,109,111,911
01:00:15.977,,62,20,816
01:00:16.014,,24,-13,780
01:00:16.051,,-4,-9,775
01:00:16.088,,-35,-18,864
01:00:16.125,,-16,27,994
01:00:16.162,,18,46,1054
01:00:16.199,,-14,-16,1059
01:00:16.237,,-64,-85,1116
01:00:16.274,,-58,-28,1166
01:00:16.311,,-117,-44,1203
01:00:16.348,,-94,93,1214
01:00:16.385,,-248,61,1080
01:00:16.422,,-339,103,1066
01:00:16.459,,-221,194,1060
01:00:16.496,,-55,114,939
01:00:16.533,,-20,33,819
01:00:16.570,,-6,-19,736
01:00:16.607,,-57,-78,714
01:00:16.644,,-49,-39,821
01:00:16.681,,-10,-25,956
01:00:16.719,,15,12,1067
01:00:16.756,,94,133,1236
01:00:16.793,,153,22,1142
01:00:16.830,,60,138,1189
01:00:16.867,,94,235,1195
01:00:16.904,,40,208,1085
01:00:16.941,,102,263,1117
01:00:16.978,,101,170,980
01:00:17.015,,21,34,829
01:00:17.052,,-65,-17,738
01:00:17.089,,-116,-26,713
01:00:17.126,,-154,-43,765
01:00:17.164,,-149,47,904
01:00:17.201,,-108,85,1029
01:00:17.238,,-137,16,1204
01:00:17.275,,-140,70,1205
01:00:17.312,,-170,130,1256
01:00:17.349,,-109,188,1190
01:00:17.386,,-222,106,992
01:00:17.423,,-308,213,995
01:00:17.460,,-183,246,994
01:00:17.497,,-60,141,910
01:00:17.534,,-40,145,909
01:00:17.572,,-42,24,835
01:00:17.609,,-83,-44,834
01:00:17.646,,-78,-17,908
01:00:17.683,,-35,-42,942
01:00:17.720,,-33,-9,997
01:00:17.757,,-3,81,1109
01:00:17.794,,70,39,1084
01:00:17.831,,-21,117,1187
01:00:17.868,,121,276,1244
01:00:17.905,,23,231,1169
01:00:17.942,,71,246,1155
01:00:17.979,,92,182,1022
01:00:18.016,,72,52,886
01:00:18.054,,10,-6,783
01:00:18.091,,-22,-28,750
01:00:18.128,,-70,-31,800
01:00:18.165,,-61,-32,882
01:00:18.202,,-15,-15,949
01:00:18.239,,-28,11,1021
01:00:18.276,,-84,12,1077
01:00:18.313,,-70,61,1137
01:00:18.350,,-145,41,1137
01:00:18.387,,-96,125,1213
01:00:18.424,,-71,44,1048
01:00:18.461,,-223,80,967
01:00:18.499,,-330,153,1001
01:00:18.536,,-184,222,1053
01:00:18.573,,-73,136,978
01:00:18.610,,-114,91,932
01:00:18.647,,-158,38,868
01:00:18.684,,-191,-15,872
01:00:18.721,,-179,-43,921
01:00:18.758,,-180,-86,932
01:00:18.795,,-230,-67,979
01:00:18.832,,-173,31,1081
01:00:18.869,,-122,-4,1077
01:00:18.906,,-140,48,1205
01:00:18.944,,-20,240,1180
01:00:18.981,,-178,247,1069
01:00:19.018,,-107,187,1052
01:00:19.055,,-19,169,1005
01:00:19.092,,10,38,924
01:00:19.129,,-36,-69,857
01:00:19.166,,-37,-94,812
01:00:19.203,,-58,-44,856
01:00:19.240,,-55,-22,916
01:00:19.277,,-14,-42,951
01:00:19.314,,-27,-56,987
01:00:19.351,,-40,-68,1011
01:00:19.389,,-78,-42,1046
01:00:19.426,,-99,-24,1077
01:00:19.463,,-202,2,1197
01:00:19.500,,-50,78,1241
01:00:19.537,,-93,-70,1049
01:00:19.574,,-218,17,1019
01:00:19.611,,-211,76,1011
01:00:19.648,,-119,68,967
01:00:19.685,,-85,57,943
01:00:19.722,,-67,20,871
01:00:19.759,,-114,-36,825
01:00:19.797,,-139,-13,866
01:00:19.834,,-124,-21,913
01:00:19.871,,-163,-13,968
01:00:19.908,,-144,-32,1024
01:00:19.945,,-87,-27,1101
01:00:19.982,,17,-5,1143
01:00:20.019,,-47,6,1203
01:00:20.056,,108,136,1228
01:00:20.093,,91,155,1111
01:00:20.130,,14,190,1065
01:00:20.167,,75,188,1034
01:00:20.204,,97,140,960
01:00:20.242,,74,62,895
01:00:20.279,,40,0,826
01:00:20.316,,7,-23,810
01:00:20.353,,-10,-38,828
01:00:20.390,,-17,-2,911
01:00:20.427,,-14,43,1000
01:00:20.464,,-8,37,1024
01:00:20.501,,-47,46,1051
01:00:20.538,,-92,32,1077
01:00:20.575,,-75,46,1108
01:00:20.612,,-146,7,1093
01:00:20.649,,-189,113,1188
01:00:20.687,,-112,166,1165
01:00:20.724,,-171,185,1056
01:00:20.761,,-210,274,1033
01:00:20.798,,-156,234,991
01:00:20.835,,-75,153,955
01:00:20.872,,-40,77,898
01:00:20.909,,-71,17,836
01:00:20.946,,-126,18,830
01:00:20.983,,-139,17,863
01:00:21.020,,-114,30,923
01:00:21.057,,-83,33,973
01:00:21.094,,-96,25,1003
01:00:21.132,,-81,42,1062
01:00:21.169,,-9,74,1100
01:00:21.206,,-133,85,1171
01:00:21.243,,29,221,1292
01:00:21.280,,93,164,1106
01:00:21.317,,-44,202,1034
01:00:21.354,,-16,187,976
01:00:21.391,,46,165,919
01:00:21.428,,26,80,865
01:00:21.465,,-29,10,790
01:00:21.502,,-86,23,812
01:00:21.540,,-98,-13,858
01:00:21.577,,-63,58,957
01:00:21.614,,-22,103,1052
01:00:21.651,,1,60,1036
01:00:21.688,,-72,31,1029
01:00:21.725,,-128,5,1057
01:00:21.762,,-115,56,1113
01:00:21.799,,-205,101,1194
01:00:21.836,,-145,219,1266
01:00:21.873,,-148,101,1058
01:00:21.910,,-282,175,980
01:00:21.947,,-299,259,969
01:00:21.985,,-171,263,976
01:00:22.022,,-78,173,895
01:00:22.059,,-79,36,817
01:00:22.096,,-112,7,787
01:00:22.133,,-138,-35,839
01:00:22.170,,-83,-35,931
01:00:22.207,,-11,24,1034
01:00:22.244,,28,-15,1023
01:00:22.281,,-1,71,1112
01:00:22.318,,100,113,1157
01:00:22.355,,18,-19,1126
01:00:22.392,,143,123,1246
01:00:22.430,,154,130,1140
01:00:22.467,,52,232,1079
01:00:22.504,,127,244,1072
01:00:22.541,,173,157,941
01:00:22.578,,99,11,780
01:00:22.615,,-6,-20,727
01:00:22.652,,-66,0,735
01:00:22.689,,-98,-45,809
01:00:22.726,,-63,53,944
01:00:22.763,,-7,85,1044
01:00:22.801,,-43,26,1044
01:00:22.838,,-139,71,1152
01:00:22.875,,-109,59,1180
01:00:22.912,,-202,62,1175
01:00:22.949,,-189,130,1190
01:00:22.986,,-217,89,1056
01:00:23.023,,-288,192,1029
01:00:23.060,,-270,261,1057
01:00:23.097,,-97,253,1004
01:00:23.134,,-55,92,862
01:00:23.171,,-75,17,784
01:00:23.208,,-96,16,762
01:00:23.246,,-78,-43,794
01:00:23.283,,-27,0,891
01:00:23.320,,31,66,990
01:00:23.357,,30,57,1066
01:00:23.394,,100,104,1158
01:00:23.431,,23,4,1149
01:00:23.468,,121,190,1213
01:00:23.505,,83,162,1139
01:00:23.542,,40,273,1143
01:00:23.579,,152,244,1107
01:00:23.616,,185,112,945
01:00:23.654,,99,-5,797
01:00:23.691,,0,9,737
01:00:23.728,,-58,47,726
01:00:23.765,,-92,45,772
01:00:23.802,,-92,134,925
01:00:23.839,,-42,120,1003
01:00:23.876,,-95,69,1029
01:00:23.913,,-165,124,1151
01:00:23.950,,-95,116,1180
01:00:23.987,,-181,89,1190
01:00:24.024,,-173,209,1237
01:00:24.062,,-199,124,1083
01:00:24.099,,-264,289,1059
01:00:24.136,,-207,317,1073
01:00:24.173,,-12,249,919
01:00:24.210,,-13,38,785
01:00:24.247,,-60,95,761
01:00:24.284,,-71,48,822
01:00:24.321,,-23,-46,861
01:00:24.358,,67,40,963
01:00:24.395,,113,8,974
01:00:24.432,,70,84,1055
01:00:24.470,,106,126,1127
01:00:24.507,,5,56,1196
01:00:24.544,,209,368,1370
01:00:24.581,,178,197,1169
01:00:24.618,,172,265,1121
01:00:24.655,,176,156,980
01:00:24.692,,120,61,802
01:00:24.729,,7,48,719
01:00:24.766,,-84,69,711
01:00:24.803,,-141,83,747
01:00:24.840,,-146,114,864
01:00:24.878,,-91,151,991
01:00:24.915,,-51,100,1017
01:00:24.952,,-140,117,1084
01:00:24.989,,-137,138,1152
01:00:25.026,,-174,83,1133
01:00:25.063,,-196,197,1221
01:00:25.100,,-94,151,1145
01:00:25.137,,-208,141,1034
01:00:25.174,,-249,289,1062
01:00:25.211,,-94,242,994
01:00:25.248,,-13,122,854
01:00:25.285,,-54,49,786
01:00:25.323,,-82,60,780
01:00:25.360,,-90,22,838
01:00:25.397,,-27,67,951
01:00:25.434,,48,75,1003
01:00:25.471,,42,68,1059
01:00:25.508,,96,145,1135
01:00:25.545,,73,11,1083
01:00:25.582,,118,159,1150
01:00:25.619,,193,221,1142
01:00:25.656,,169,275,1136
01:00:25.693,,199,257,1100
01:00:25.731,,198,154,967
01:00:25.768,,109,1,791
01:00:25.805,,13,14,736
01:00:25.842,,-29,38,738
01:00:25.879,,-54,6,786
01:00:25.916,,-41,161,944
01:00:25.953,,33,186,1032
01:00:25.990,,4,111,1049
01:00:26.027,,-80,244,1182
01:00:26.064,,-57,152,1155
01:00:26.101,,-106,217,1194
01:00:26.139,,-8,266,1218
01:00:26.176,,-67,56,1007
01:00:26.213,,-184,231,1040
01:00:26.250,,-140,284,1064
01:00:26.287,,-8,186,956
01:00:26.324,,-20,101,889
01:00:26.361,,-26,69,832
01:00:26.398,,-29,36,804
01:00:26.435,,6,9,845
01:00:26.472,,73,16,868
01:00:26.510,,64,30,891
01:00:26.547,,0,89,977
01:00:26.584,,47,168,1065
01:00:26.621,,-22,35,1039
01:00:26.658,,39,316,1291
01:00:26.695,,207,236,1256
01:00:26.732,,172,229,1189
01:00:26.769,,139,213,1130
01:00:26.806,,126,59,938
01:00:26.843,,54,28,820
01:00:26.881,,-51,31,776
01:00:26.918,,-107,23,766
01:00:26.955,,-110,23,830
01:00:26.992,,-47,123,948
01:00:27.029,,35,79,994
01:00:27.066,,7,17,994
01:00:27.103,,-79,48,1072
01:00:27.140,,-67,33,1092
01:00:27.177,,-192,42,1164
01:00:27.214,,-117,218,1226
01:00:27.251,,-231,125,1092
01:00:27.289,,-322,288,1107
01:00:27.326,,-218,331,1147
01:00:27.363,,-22,234,1041
01:00:27.400,,-2,104,926
01:00:27.437,,-14,-23,810
01:00:27.474,,-51,-62,755
01:00:27.511,,-68,-38,797
01:00:27.548,,-44,-9,854
01:00:27.585,,12,-1,916
01:00:27.622,,62,38,1026
01:00:27.659,,195,40,1081
01:00:27.697,,100,-36,1087
01:00:27.734,,210,116,1236
01:00:27.771,,235,169,1219
01:00:27.808,,188,226,1193
01:00:27.845,,174,191,1079
01:00:27.882,,107,87,777
01:00:27.919,,-95,35,749
01:00:27.956,,-110,1,749
01:00:27.993,,-143,28,865
01:00:28.030,,-96,100,993
01:00:28.067,,-53,43,1029
01:00:28.105,,-131,57,1082
01:00:28.142,,-140,86,1160
01:00:28.179,,-167,119,1188
01:00:28.216,,-142,277,1310
01:00:28.253,,-107,142,1105
01:00:28.290,,-274,224,1017
01:00:28.327,,-310,328,1047
01:00:28.364,,-95,305,1010
01:00:28.401,,21,177,904
01:00:28.438,,13,78,816
01:00:28.476,,2,68,770
01:00:28.513,,-1,20,781
01:00:28.550,,29,42,854
01:00:28.587,,94,108,935
01:00:28.624,,100,131,1030
01:00:28.661,,172,208,1131
01:00:28.698,,162,85,1141
01:00:28.735,,288,319,1287
01:00:28.772,,236,211,1191
01:00:28.809,,210,290,1195
01:00:28.847,,213,178,1064
01:00:28.884,,159,75,847
01:00:28.921,,10,26,714
01:00:28.958,,-111,63,696
01:00:28.995,,-172,44,699
01:00:29.032,,-173,22,798
01:00:29.069,,-101,93,937
01:00:29.106,,-62,69,1013
01:00:29.143,,-83,109,1153
01:00:29.180,,-4,133,1228
01:00:29.217,,-101,141,1225
01:00:29.255,,0,272,1221
01:00:29.292,,-111,215,1045
01:00:29.329,,-197,480,1137
01:00:29.366,,-8,424,1112
01:00:29.403,,138,168,897
01:00:29.440,,90,81,809
01:00:29.477,,52,35,743
01:00:29.514,,3,23,744
01:00:29.551,,0,64,900
01:00:29.588,,74,196,1105
01:00:29.625,,119,212,1214
01:00:29.663,,142,329,1347
01:00:29.700,,212,153,1322
01:00:29.737,,251,294,1131
01:00:29.774,,176,654,1160
01:00:29.811,,278,623,1007
01:00:29.848,,384,651,893
01:00:29.885,,283,532,786
01:00:29.922,,178,469,735
01:00:29.959,,141,386,698
01:00:29.996,,108,230,624
01:00:30.033,,34,131,593
01:00:30.071,,-40,120,632
01:00:30.108,,-82,136,744
01:00:30.145,,-58,203,887
01:00:30.182,,-36,302,1005
01:00:30.219,,-26,288,1077
01:00:30.256,,-16,291,1114
01:00:30.293,,0,280,1106
01:00:30.330,,-115,334,1156
01:00:30.367,,-17,603,1305
01:00:30.404,,93,347,1069
01:00:30.442,,-77,386,941
01:00:30.479,,-180,538,953
01:00:30.516,,-83,405,888
01:00:30.553,,-16,322,850
01:00:30.590,,-49,255,830
01:00:30.627,,-34,143,763
01:00:30.664,,-40,68,742
01:00:30.701,,-41,143,823
01:00:30.738,,32,124,893
01:00:30.775,,129,144,964
01:00:30.812,,145,176,1032
01:00:30.850,,190,205,1124
01:00:30.887,,340,135,1082
01:00:30.924,,279,45,1009
01:00:30.961,,311,282,1155
01:00:30.998,,406,356,1134
01:00:31.035,,390,351,1038
01:00:31.072,,291,268,894
01:00:31.109,,226,245,791
01:00:31.146,,186,145,678
01:00:31.183,,121,78,657
01:00:31.221,,65,114,714
01:00:31.258,,25,142,825
01:00:31.295,,53,230,996
01:00:31.332,,135,238,1104
01:00:31.369,,158,175,1096
01:00:31.406,,109,174,1153
01:00:31.443,,137,153,1159
01:00:31.480,,78,159,1124
01:00:31.517,,54,300,1220
01:00:31.554,,94,209,1039
01:00:31.591,,-79,241,947
01:00:31.629,,-168,392,1033
01:00:31.666,,-24,366,1042
01:00:31.703,,75,173,905
01:00:31.740,,33,104,838
01:00:31.777,,-20,52,759
01:00:31.814,,-65,42,766
01:00:31.851,,-56,61,857
01:00:31.888,,4,131,956
01:00:31.925,,48,99,999
01:00:31.962,,54,175,1092
01:00:31.999,,132,185,1106
01:00:32.037,,40,72,1050
01:00:32.074,,125,350,1272
01:00:32.111,,245,315,1183
01:00:32.148,,198,344,1119
01:00:32.185,,159,232,995
01:00:32.222,,96,108,823
01:00:32.259,,18,134,764
01:00:32.296,,-71,79,745
01:00:32.333,,-90,88,773
01:00:32.370,,-79,144,849
01:00:32.407,,-43,193,932
01:00:32.445,,-14,192,988
01:00:32.482,,-70,198,1051
01:00:32.519,,-169,258,1145
01:00:32.556,,-172,444,1379
01:00:32.593,,42,272,1205
01:00:32.630,,-114,258,1040
01:00:32.667,,-192,453,1084
01:00:32.704,,-53,334,991
01:00:32.741,,21,220,834
01:00:32.778,,-15,139,782
01:00:32.815,,-46,102,739
01:00:32.853,,-65,79,762
01:00:32.890,,-42,91,870
01:00:32.927,,49,175,980
01:00:32.964,,93,132,992
01:00:33.001,,79,233,1084
01:00:33.038,,114,207,1070
01:00:33.075,,84,261,1172
01:00:33.112,,198,379,1209
01:00:33.149,,194,283,1012
01:00:33.186,,50,403,1040
01:00:33.223,,146,381,1051
01:00:33.261,,216,267,898
01:00:33.298,,116,172,793
01:00:33.335,,23,109,732
01:00:33.372,,-24,94,742
01:00:33.409,,-59,20,773
01:00:33.446,,-12,110,899
01:00:33.483,,70,156,1005
01:00:33.520,,95,57,995
01:00:33.557,,88,-7,1025
01:00:33.594,,28,-20,1014
01:00:33.631,,13,53,1069
01:00:33.669,,79,45,1075
01:00:33.706,,41,-76,994
01:00:33.743,,-192,156,1019
01:00:33.780,,-260,199,1086
01:00:33.817,,-234,294,1041
01:00:33.854,,-238,575,1254
01:00:33.891,,-76,463,1302
01:00:33.928,,126,219,1148
01:00:33.965,,138,-49,919
01:00:34.002,,73,-94,762
01:00:34.039,,57,0,743
01:00:34.076,,60,57,767
01:00:34.114,,-4,189,881
01:00:34.151,,82,299,1135
01:00:34.188,,182,112,1081
01:00:34.225,,274,390,1279
01:00:34.262,,208,457,1325
01:00:34.299,,303,420,1273
01:00:34.336,,260,232,1011
01:00:34.373,,87,147,796
01:00:34.410,,-130,167,690
01:00:34.447,,-249,171,683
01:00:34.485,,-273,156,709
01:00:34.522,,-263,245,799
01:00:34.559,,-290,264,858
01:00:34.596,,-330,268,899
01:00:34.633,,-324,341,1039
01:00:34.670,,-209,445,1143
01:00:34.707,,-188,663,1400
01:00:34.744,,36,596,1279
01:00:34.781,,-44,533,1160
01:00:34.818,,-38,580,1075
01:00:34.855,,49,405,902
01:00:34.893,,93,285,751
01:00:34.930,,83,244,700
01:00:34.967,,57,205,692
01:00:35.004,,60,137,724
01:00:35.041,,88,120,812
01:00:35.078,,162,114,922
01:00:35.115,,165,127,1046
01:00:35.152,,281,172,1114
01:00:35.189,,137,19,1047
01:00:35.226,,258,480,1214
01:00:35.263,,210,473,1182
01:00:35.301,,138,356,1021
01:00:35.338,,-78,397,978
01:00:35.375,,-115,130,783
01:00:35.412,,-125,8,697
01:00:35.449,,-118,0,728
01:00:35.486,,-55,-16,815
01:00:35.523,,-2,91,925
01:00:35.560,,16,148,1019
01:00:35.597,,-5,200,1127
01:00:35.634,,-19,272,1236
01:00:35.672,,-145,250,1276
01:00:35.709,,-25,473,1303
01:00:35.746,,-125,235,1112
01:00:35.783,,-212,352,1025
01:00:35.820,,-231,326,969
01:00:35.857,,-132,210,867
01:00:35.894,,-49,143,791
01:00:35.931,,-33,121,747
01:00:35.968,,-22,51,726
01:00:36.005,,-38,70,823
01:00:36.042,,-34,99,975
01:00:36.080,,27,137,1046
01:00:36.117,,100,121,1099
01:00:36.154,,184,81,1082
01:00:36.191,,78,181,1145
01:00:36.228,,151,292,1174
01:00:36.265,,193,387,1230
01:00:36.302,,273,278,1136
01:00:36.339,,214,177,942
01:00:36.376,,121,78,767
01:00:36.413,,10,49,700
01:00:36.450,,-48,26,693
01:00:36.488,,-76,20,752
01:00:36.525,,-80,127,894
01:00:36.562,,-30,216,1049
01:00:36.599,,-18,140,1122
01:00:36.636,,-4,147,1171
01:00:36.673,,-71,141,1129
01:00:36.710,,-224,253,1195
01:00:36.747,,-153,297,1176
01:00:36.784,,-197,300,1140
01:00:36.821,,-188,360,1131
01:00:36.858,,-112,268,1010
01:00:36.896,,-34,115,863
01:00:36.933,,-5,53,777
01:00:36.970,,-11,62,739
01:00:37.007,,-35,42,778
01:00:37.044,,-20,72,860
01:00:37.081,,31,100,965
01:00:37.118,,59,79,1036
01:00:37.155,,129,140,1146
01:00:37.192,,144,77,1142
01:00:37.229,,189,211,1226
01:00:37.267,,200,257,1145
01:00:37.304,,128,302,1073
01:00:37.341,,198,307,1064
01:00:37.378,,199,181,911
01:00:37.415,,117,25,783
01:00:37.452,,20,49,752
01:00:37.489,,-30,97,774
01:00:37.526,,-45,72,834
01:00:37.563,,-28,139,943
01:00:37.600,,5,151,1027
01:00:37.637,,-17,99,1060
01:00:37.675,,-88,109,1120
01:00:37.712,,-77,129,1136
01:00:37.749,,-254,126,1139
01:00:37.786,,-99,403,1274
01:00:37.823,,-112,134,1013
01:00:37.860,,-216,340,1007
01:00:37.897,,-207,353,1006
01:00:37.934,,-79,237,900
01:00:37.971,,-42,175,869
01:00:38.008,,-15,120,825
01:00:38.045,,-38,26,793
01:00:38.083,,-53,64,890
01:00:38.120,,-8,49,970
01:00:38.157,,37,15,1000
01:00:38.194,,15,59,1031
01:00:38.231,,11,118,1108
01:00:38.268,,117,111,1113
01:00:38.305,,-16,50,1072
01:00:38.342,,119,310,1221
01:00:38.379,,150,269,1132
01:00:38.416,,136,319,1126
01:00:38.453,,144,267,1006
01:00:38.491,,81,81,858
01:00:38.528,,-6,49,793
01:00:38.565,,-74,-1,810
01:00:38.602,,-60,80,908
01:00:38.639,,-18,86,969
01:00:38.676,,15,71,991
01:00:38.713,,-56,67,1028
01:00:38.750,,-89,80,1088
01:00:38.787,,-103,95,1093
01:00:38.824,,-172,230,1211
01:00:38.861,,-95,242,1136
01:00:38.899,,-255,223,1020
01:00:38.936,,-294,387,1058
01:00:38.973,,-152,356,988
01:00:39.010,,-43,223,890
01:00:39.047,,-35,196,863
01:00:39.084,,-28,97,839
01:00:39.121,,-43,4,840
01:00:39.158,,-4,70,902
01:00:39.195,,74,51,972
01:00:39.232,,95,36,960
01:00:39.269,,6,127,1037
01:00:39.307,,68,183,1144
01:00:39.344,,111,58,1164
01:00:39.381,,177,217,1309
01:00:39.418,,229,300,1156
01:00:39.455,,118,351,995
01:00:39.492,,132,327,1005
01:00:39.529,,183,242,976
01:00:39.566,,136,190,895
01:00:39.603,,27,88,810
01:00:39.640,,-49,79,782
01:00:39.677,,-95,36,800
01:00:39.715,,-78,31,858
01:00:39.752,,-22,117,926
01:00:39.789,,-24,118,975
01:00:39.826,,-133,93,1029
01:00:39.863,,-165,131,1116
01:00:39.900,,-203,142,1139
01:00:39.937,,-207,298,1273
01:00:39.974,,-83,194,1138
01:00:40.011,,-214,131,978
01:00:40.048,,-290,278,1002
01:00:40.085,,-160,253,999
01:00:40.122,,0,190,933
01:00:40.160,,-13,103,874
01:00:40.197,,-32,49,821
01:00:40.234,,-58,14,829
01:00:40.271,,-34,-9,893
01:00:40.308,,11,-11,948
01:00:40.345,,28,-17,1002
01:00:40.382,,50,41,1096
01:00:40.419,,108,22,1108
01:00:40.456,,43,96,1270
01:00:40.493,,245,229,1307
01:00:40.530,,202,166,1022
01:00:40.568,,72,216,1003
01:00:40.605,,120,235,969
01:00:40.642,,148,158,875
01:00:40.679,,48,71,796
01:00:40.716,,-56,57,759
01:00:40.753,,-107,98,810
01:00:40.790,,-86,41,875
01:00:40.827,,-11,124,998
01:00:40.864,,70,120,1048
01:00:40.901,,16,51,1021
01:00:40.939,,-77,89,1070
01:00:40.976,,-146,99,1077
01:00:41.013,,-353,130,1134
01:00:41.050,,-233,411,1286
01:00:41.087,,-214,189,1067
01:00:41.124,,-293,366,1061
01:00:41.161,,-239,362,1042
01:00:41.198,,-76,258,941
01:00:41.235,,-58,108,832
01:00:41.272,,-95,80,791
01:00:41.309,,-141,58,792
01:00:41.346,,-146,3,852
01:00:41.384,,-97,89,982
01:00:41.421,,-28,58,1010
01:00:41.458,,-47,85,1034
01:00:41.495,,-54,207,1170
01:00:41.532,,56,217,1201
01:00:41.569,,92,157,1213
01:00:41.606,,202,211,1221
01:00:41.643,,159,163,1023
01:00:41.680,,79,189,907
01:00:41.717,,102,291,910
01:00:41.755,,103,185,812
01:00:41.792,,32,120,754
01:00:41.829,,-48,94,746
01:00:41.866,,-90,78,775
01:00:41.903,,-106,23,841
01:00:41.940,,-81,148,958
01:00:41.977,,-36,179,1027
01:00:42.014,,-88,74,1023
01:00:42.051,,-172,153,1133
01:00:42.088,,-228,135,1171
01:00:42.125,,-273,371,1441
01:00:42.163,,-46,315,1364
01:00:42.200,,-131,269,1111
01:00:42.237,,-236,318,955
01:00:42.274,,-259,317,863
01:00:42.311,,-231,261,824
01:00:42.348,,-156,229,865
01:00:42.385,,-61,139,851
01:00:42.422,,-75,71,829
01:00:42.459,,-139,53,865
01:00:42.496,,-121,43,901
01:00:42.533,,-97,16,962
01:00:42.571,,-71,-12,1018
01:00:42.608,,-65,3,1079
01:00:42.645,,45,42,1134
01:00:42.682,,6,18,1115
01:00:42.719,,118,200,1199
01:00:42.756,,147,189,1115
01:00:42.793,,71,231,1109
01:00:42.830,,155,175,1066
01:00:42.867,,144,107,905
01:00:42.904,,63,32,798
01:00:42.941,,-21,49,754
01:00:42.979,,-69,41,751
01:00:43.016,,-96,8,805
01:00:43.053,,-73,52,902
01:00:43.090,,-42,48,978
01:00:43.127,,-24,0,1013
01:00:43.164,,-136,-10,1073
01:00:43.201,,-161,18,1194
01:00:43.238,,-211,48,1264
01:00:43.275,,-120,219,1368
01:00:43.312,,-117,77,1120
01:00:43.349,,-277,193,1041
01:00:43.387,,-268,229,1015
01:00:43.424,,-159,231,957
01:00:43.461,,-86,155,920
01:00:43.498,,-25,67,846
01:00:43.535,,-41,19,779
01:00:43.572,,-99,6,799
01:00:43.609,,-83,-41,845
01:00:43.646,,-37,-4,927
01:00:43.683,,-9,15,985
01:00:43.720,,-38,67,1074
01:00:43.757,,88,127,1153
01:00:43.795,,80,-14,1112
01:00:43.832,,130,249,1269
01:00:43.869,,202,161,1202
01:00:43.906,,145,215,1129
01:00:43.943,,164,131,1013
01:00:43.980,,131,82,871
01:00:44.017,,62,19,763
01:00:44.054,,-10,8,731
01:00:44.091,,-55,21,749
01:00:44.128,,-74,0,833
01:00:44.165,,-35,98,997
01:00:44.203,,6,47,1041
01:00:44.240,,-81,54,1102
01:00:44.277,,-104,79,1207
01:00:44.314,,-200,79,1217
01:00:44.351,,-170,329,1393
01:00:44.388,,-55,148,1156
01:00:44.425,,-215,193,996
01:00:44.462,,-285,287,974
01:00:44.499,,-175,236,901
01:00:44.536,,-77,165,826
01:00:44.573,,-67,70,794
01:00:44.610,,-53,42,776
01:00:44.648,,-44,-31,796
01:00:44.685,,-17,-21,876
01:00:44.722,,29,29,980
01:00:44.759,,43,21,1009
01:00:44.796,,46,143,1161
01:00:44.833,,136,61,1154
01:00:44.870,,82,215,1250
01:00:44.907,,210,334,1249
01:00:44.944,,166,264,1096
01:00:44.981,,154,291,1047
01:00:45.018,,160,163,901
01:00:45.056,,97,69,753
01:00:45.093,,-33,46,718
01:00:45.130,,-118,46,722
01:00:45.167,,-178,31,794
01:00:45.204,,-156,116,932
01:00:45.241,,-53,163,1030
01:00:45.278,,-50,76,991
01:00:45.315,,-160,184,1099
01:00:45.352,,-172,210,1178
01:00:45.389,,-226,309,1303
01:00:45.426,,-126,391,1339
01:00:45.464,,-201,260,1082
01:00:45.501,,-332,370,1000
01:00:45.538,,-287,429,978
01:00:45.575,,-117,302,847
01:00:45.612,,-90,182,772
01:00:45.649,,-88,137,712
01:00:45.686,,-117,108,731
01:00:45.723,,-126,46,782
01:00:45.760,,-88,123,899
01:00:45.797,,-49,178,991
01:00:45.835,,-47,251,1128
01:00:45.872,,91,304,1214
01:00:45.909,,48,186,1140
01:00:45.946,,145,362,1304
01:00:45.983,,119,414,1166
01:00:46.020,,124,395,1110
01:00:46.057,,139,265,987
01:00:46.094,,103,115,782
01:00:46.131,,-22,64,695
01:00:46.168,,-112,104,720
01:00:46.205,,-145,44,762
01:00:46.242,,-150,59,860
01:00:46.280,,-114,127,970
01:00:46.317,,-97,101,1013
01:00:46.354,,-169,72,1074
01:00:46.391,,-186,100,1138
01:00:46.428,,-280,129,1193
01:00:46.465,,-133,337,1333
01:00:46.502,,-155,128,1065
01:00:46.539,,-308,292,1045
01:00:46.576,,-290,333,1031
01:00:46.613,,-117,287,947
01:00:46.650,,-60,165,846
01:00:46.688,,-30,86,767
01:00:46.725,,-60,34,741
01:00:46.762,,-93,-8,784
01:00:46.799,,-56,19,877
01:00:46.836,,17,67,960
01:00:46.873,,16,81,1038
01:00:46.910,,59,195,1191
01:00:46.947,,174,187,1196
01:00:46.984,,108,214,1265
01:00:47.021,,230,272,1240
01:00:47.058,,74,183,1066
01:00:47.096,,49,171,976
01:00:47.133,,64,225,954
01:00:47.170,,55,104,849
01:00:47.207,,-24,49,768
01:00:47.244,,-77,35,749
01:00:47.281,,-100,-1,756
01:00:47.318,,-77,46,853
01:00:47.355,,7,67,981
01:00:47.392,,17,22,1030
01:00:47.429,,-75,58,1120
01:00:47.467,,-141,122,1183
01:00:47.504,,-269,234,1292
01:00:47.541,,-157,326,1270
01:00:47.578,,-247,201,1037
01:00:47.615,,-355,347,1002
01:00:47.652,,-294,324,963
01:00:47.689,,-158,259,886
01:00:47.726,,-127,103,811
01:00:47.763,,-123,89,777
01:00:47.800,,-103,0,777
01:00:47.837,,-72,-34,826
01:00:47.875,,-93,26,917
01:00:47.912,,-111,59,1007
01:00:47.949,,-79,223,1188
01:00:47.986,,62,242,1261
01:00:48.023,,21,224,1268
01:00:48.060,,123,360,1245
01:00:48.097,,41,334,1108
01:00:48.134,,62,311,1051
01:00:48.171,,136,204,936
01:00:48.208,,140,94,741
01:00:48.245,,44,39,640
01:00:48.283,,-62,66,688
01:00:48.320,,-131,67,752
01:00:48.357,,-121,94,863
01:00:48.394,,-78,171,1014
01:00:48.431,,-85,159,1098
01:00:48.468,,-125,196,1190
01:00:48.505,,-53,268,1270
01:00:48.542,,-106,257,1284
01:00:48.579,,-4,346,1257
01:00:48.616,,-89,185,1027
01:00:48.653,,-183,258,992
01:00:48.691,,-138,312,1015
01:00:48.728,,-7,226,896
01:00:48.765,,0,153,824
01:00:48.802,,-19,99,795
01:00:48.839,,-46,54,797
01:00:48.876,,-36,16,851
01:00:48.913,,12,26,934
01:00:48.950,,56,20,956
01:00:48.987,,38,68,1029
01:00:49.024,,91,119,1134
01:00:49.061,,151,-14,1045
01:00:49.099,,48,157,1119
01:00:49.136,,157,374,1280
01:00:49.173,,268,213,1089
01:00:49.210,,221,153,975
01:00:49.247,,138,-69,781
01:00:49.284,,26,-52,776
01:00:49.321,,-35,-35,783
01:00:49.358,,-37,-62,853
01:00:49.395,,5,53,984
01:00:49.432,,60,50,1037
01:00:49.469,,31,-12,1062
01:00:49.507,,9,83,1152
01:00:49.544,,-57,-22,1109
01:00:49.581,,-43,77,1207
01:00:49.618,,-31,-19,1112
01:00:49.655,,-163,76,1078
01:00:49.692,,-182,103,1087
01:00:49.729,,-13,114,1007
01:00:49.766,,53,20,881
01:00:49.803,,53,28,830
01:00:49.840,,47,-61,762
01:00:49.878,,54,-17,841
01:00:49.915,,128,22,936
01:00:49.952,,195,13,962
01:00:49.989,,140,17,1017
01:00:50.026,,170,67,1135
01:00:50.063,,243,-83,1066
01:00:50.100,,126,45,1158
01:00:50.137,,251,162,1252
01:00:50.174,,329,153,1162
01:00:50.211,,399,144,1075
01:00:50.248,,353,113,966
01:00:50.286,,246,-36,754
01:00:50.323,,108,-32,718
01:00:50.360,,50,-27,731
01:00:50.397,,27,-59,804
01:00:50.434,,16,43,961
01:00:50.471,,40,63,1070
01:00:50.508,,7,-6,1119
01:00:50.545,,-19,26,1213
01:00:50.582,,-60,-20,1177
01:00:50.619,,-95,117,1240
01:00:50.656,,-27,81,1114
01:00:50.694,,-163,137,1006
01:00:50.731,,-191,219,1046
01:00:50.768,,37,258,1059
01:00:50.805,,155,100,892
01:00:50.842,,87,34,840
01:00:50.879,,63,-13,788
01:00:50.916,,53,-58,811
01:00:50.953,,87,-43,892
01:00:50.990,,130,-33,942
01:00:51.027,,107,23,1030
01:00:51.064,,184,129,1156
01:00:51.102,,123,-8,1052
01:00:51.139,,182,127,1239
01:00:51.176,,194,211,1181
01:00:51.213,,136,280,1107
01:00:51.250,,165,204,1073
01:00:51.287,,133,106,934
01:00:51.324,,53,-7,808
01:00:51.361,,-26,-5,774
01:00:51.398,,-48,9,787
01:00:51.435,,-28,-1,859
01:00:51.472,,5,94,973
01:00:51.510,,23,47,1009
01:00:51.547,,-54,21,1065
01:00:51.584,,-58,38,1110
01:00:51.621,,-168,29,1124
01:00:51.658,,-78,279,1275
01:00:51.695,,-91,29,1044
01:00:51.732,,-263,296,1071
01:00:51.769,,-222,331,1115
01:00:51.806,,5,171,980
01:00:51.843,,34,98,928
01:00:51.880,,48,39,882
01:00:51.917,,52,-57,813
01:00:51.955,,17,-31,861
01:00:51.992,,55,14,925
01:00:52.029,,111,34,965
01:00:52.066,,92,50,1026
01:00:52.103,,159,104,1101
01:00:52.140,,83,-2,1061
01:00:52.177,,138,206,1193
01:00:52.214,,193,139,1141
01:00:52.251,,106,250,1143
01:00:52.288,,115,223,1122
01:00:52.325,,112,138,967
01:00:52.363,,21,-40,792
01:00:52.400,,-73,-62,746
01:00:52.437,,-105,-62,768
01:00:52.474,,-97,-94,839
01:00:52.511,,-36,25,969
01:00:52.548,,14,94,1054
01:00:52.585,,-41,36,1075
01:00:52.622,,-54,112,1158
01:00:52.659,,-102,58,1167
01:00:52.696,,-70,132,1278
01:00:52.734,,60,-43,1106
01:00:52.771,,-127,-9,999
01:00:52.808,,-233,167,1014
01:00:52.845,,-133,185,1005
01:00:52.882,,-31,92,909
01:00:52.919,,-38,52,857
01:00:52.956,,-54,47,818
01:00:52.993,,-63,16,845
01:00:53.030,,-35,0,899
01:00:53.067,,27,21,963
01:00:53.104,,41,-32,985
01:00:53.142,,68,42,1080
01:00:53.179,,168,82,1118
01:00:53.216,,47,65,1171
01:00:53.253,,199,275,1215
01:00:53.290,,107,155,1106
01:00:53.327,,102,303,1089
01:00:53.364,,83,291,1040
01:00:53.401,,42,134,898
01:00:53.438,,-55,32,797
01:00:53.475,,-101,-31,752
01:00:53.513,,-119,-7,789
01:00:53.550,,-149,172,939
01:00:53.587,,-95,186,1008
01:00:53.624,,-94,199,1018
01:00:53.661,,-133,191,1087
01:00:53.698,,-101,224,1144
01:00:53.735,,-204,187,1139
01:00:53.772,,-130,285,1210
01:00:53.809,,-116,105,1043
01:00:53.846,,-269,153,964
01:00:53.883,,-265,278,1021
01:00:53.921,,-79,249,979
01:00:53.958,,-17,32,878
01:00:53.995,,-65,50,836
01:00:54.032,,-106,10,807
01:00:54.069,,-115,13,853
01:00:54.106,,-59,47,939
01:00:54.143,,-23,17,964
01:00:54.180,,-56,46,1029
01:00:54.217,,20,125,1113
01:00:54.254,,0,-40,1040
01:00:54.292,,-40,82,1125
01:00:54.329,,0,118,1161
01:00:54.366,,34,297,1235
01:00:54.403,,101,173,1158
01:00:54.440,,64,95,973
01:00:54.477,,-25,-26,807
01:00:54.514,,-100,-36,743
01:00:54.551,,-134,-29,738
01:00:54.588,,-146,31,831
01:00:54.625,,-91,106,965
01:00:54.662,,-15,95,1030
01:00:54.700,,-71,42,1080
01:00:54.737,,-88,107,1200
01:00:54.774,,-49,73,1198
01:00:54.811,,-86,145,1284
01:00:54.848,,-20,57,1115
01:00:54.885,,-196,28,967
01:00:54.922,,-289,191,986
01:00:54.959,,-182,274,1056
01:00:54.996,,-26,153,974
01:00:55.033,,-23,62,892
01:00:55.070,,-62,25,820
01:00:55.108,,-122,-10,781
01:00:55.145,,-119,-2,852
01:00:55.182,,-53,19,891
01:00:55.219,,-37,72,966
01:00:55.256,,-2,186,1104
01:00:55.293,,124,39,1065
01:00:55.330,,13,56,1112
01:00:55.367,,104,215,1217
01:00:55.404,,105,200,1238
01:00:55.441,,154,234,1203
01:00:55.478,,112,185,1073
01:00:55.516,,40,111,898
01:00:55.553,,-35,47,808
01:00:55.590,,-73,8,784
01:00:55.627,,-95,-51,817
01:00:55.664,,-100,-35,903
01:00:55.701,,-71,-32,981
01:00:55.738,,-38,-53,1025
01:00:55.775,,-82,-49,1076
01:00:55.812,,-54,0,1111
01:00:55.849,,-190,1,1138
01:00:55.886,,-81,188,1270
01:00:55.924,,-73,-20,1114
01:00:55.961,,-172,178,1104
01:00:55.998,,-166,150,1065
01:00:56.035,,-42,43,937
01:00:56.072,,-45,-3,848
01:00:56.109,,-94,-8,792
01:00:56.146,,-118,-21,813
01:00:56.183,,-67,-8,891
01:00:56.220,,-14,-9,941
01:00:56.257,,-14,-24,967
01:00:56.294,,-47,50,1079
01:00:56.332,,66,34,1095
01:00:56.369,,-54,-83,1051
01:00:56.406,,-14,89,1156
01:00:56.443,,17,77,1138
01:00:56.480,,34,269,1222
01:00:56.517,,43,176,1130
01:00:56.554,,11,122,964
01:00:56.591,,-88,-23,779
01:00:56.628,,-148,-2,759
01:00:56.665,,-163,9,792
01:00:56.703,,-141,45,897
01:00:56.740,,-88,61,960
01:00:56.777,,-48,60,967
01:00:56.814,,-153,21,1029
01:00:56.851,,-164,48,1111
01:00:56.888,,-252,82,1189
01:00:56.925,,-88,297,1414
01:00:56.962,,-3,72,1119
01:00:56.999,,-212,160,1012
01:00:57.036,,-283,222,1015
01:00:57.074,,-124,175,907
01:00:57.111,,-100,70,837
01:00:57.148,,-119,94,848
01:00:57.185,,-116,36,824
01:00:57.222,,-106,14,851
01:00:57.259,,-63,65,921
01:00:57.296,,-21,33,930
01:00:57.333,,-35,83,1010
01:00:57.370,,22,116,1085
01:00:57.407,,-30,18,1060
01:00:57.444,,10,180,1235
01:00:57.482,,176,226,1228
01:00:57.519,,73,219,1142
01:00:57.556,,60,221,1154
01:00:57.593,,87,86,1008
01:00:57.630,,51,50,904
01:00:57.667,,-28,-29,784
01:00:57.704,,-65,-52,721
01:00:57.741,,-61,-47,807
01:00:57.778,,-21,18,938
01:00:57.815,,-4,89,1023
01:00:57.853,,-39,55,968
01:00:57.890,,-157,17,1020
01:00:57.927,,-159,67,1135
01:00:57.964,,-174,41,1123
01:00:58.001,,-232,145,1279
01:00:58.038,,-138,111,1139
01:00:58.075,,-298,99,1032
01:00:58.112,,-336,168,1068
01:00:58.149,,-155,233,1050
01:00:58.186,,-98,99,940
01:00:58.224,,-150,34,839
01:00:58.261,,-167,32,801
01:00:58.298,,-153,17,844
01:00:58.335,,-87,20,887
01:00:58.372,,-29,29,922
01:00:58.409,,-40,37,993
01:00:58.446,,-14,70,1091
01:00:58.483,,47,8,1061
01:00:58.520,,-37,46,1128
01:00:58.557,,-11,100,1118
01:00:58.595,,-84,174,1158
01:00:58.632,,27,242,1227
01:00:58.669,,117,201,1128
01:00:58.706,,68,26,927
01:00:58.743,,-31,-44,811
01:00:58.780,,-87,-85,769
01:00:58.817,,-125,-78,818
01:00:58.854,,-129,12,918
01:00:58.891,,-81,35,972
01:00:58.928,,-72,13,993
01:00:58.965,,-104,-10,1036
01:00:59.003,,-74,6,1069
01:00:59.040,,-192,3,1110
01:00:59.077,,-60,121,1229
01:00:59.114,,-34,-96,992
01:00:59.151,,-280,40,977
01:00:59.188,,-332,166,1065
01:00:59.225,,-81,225,1108
01:00:59.262,,-27,93,998
01:00:59.299,,-65,12,931
01:00:59.336,,-69,-68,829
01:00:59.374,,-75,-61,861
01:00:59.411,,-40,-11,907
01:00:59.448,,-15,1,934
01:00:59.485,,-11,43,1021
01:00:59.522,,91,25,1056
01:00:59.559,,-21,-12,1098
01:00:59.596,,81,148,1243
01:00:59.633,,150,130,1177
01:00:59.670,,80,158,1163
01:00:59.707,,102,112,1056
01:00:59.744,,75,25,905
01:00:59.782,,11,-37,791
01:00:59.819,,-31,-59,833
01:00:59.856,,-16,-38,910
01:00:59.893,,13,20,980
01:00:59.930,,-8,-9,987
01:00:59.967,,-107,-37,1042
01:01:00.004,,-95,-20,1101
01:01:00.041,,-94,-13,1109
01:01:00.078,,-173,42,1190
01:01:00.115,,-70,66,1156
01:01:00.152,,-196,27,1042
01:01:00.190,,-265,117,1058
01:01:00.227,,-108,190,1067
01:01:00.264,,14,81,969
01:01:00.301,,-25,4,884
01:01:00.338,,-62,-32,828
01:01:00.375,,-81,-32,850
01:01:00.412,,-24,0,909
01:01:00.449,,23,9,907
01:01:00.486,,-32,57,923
01:01:00.523,,-46,123,1030
01:01:00.561,,4,90,991
01:01:00.598,,-68,199,1160
01:01:00.635,,91,305,1258
01:01:00.672,,106,183,1230
01:01:00.709,,106,271,1235
01:01:00.746,,86,57,1027
01:01:00.783,,13,-25,873
01:01:00.820,,-83,-34,831
01:01:00.857,,-126,-50,798
01:01:00.894,,-124,-22,851
01:01:00.932,,-90,69,942
01:01:00.969,,-62,46,974
01:01:01.006,,-127,29,1010
01:01:01.043,,-141,13,1084
01:01:01.080,,-56,-31,1100
01:01:01.117,,-170,-60,1103
01:01:01.154,,-144,36,1139
01:01:01.191,,-199,70,1115
01:01:01.228,,-226,192,1123
01:01:01.265,,-100,271,1135
01:01:01.302,,14,118,1007
01:01:01.340,,4,46,881
01:01:01.377,,-45,16,797
01:01:01.414,,-72,13,804
01:01:01.451,,-39,-12,852
01:01:01.488,,9,13,909
01:01:01.525,,-38,35,960
01:01:01.562,,-13,63,1041
01:01:01.599,,42,-46,1038
01:01:01.636,,-40,64,1170
01:01:01.673,,94,230,1284
01:01:01.710,,27,157,1177
01:01:01.748,,16,259,1186
01:01:01.785,,35,125,1091
01:01:01.822,,44,20,927
01:01:01.859,,-26,-55,843
01:01:01.896,,-48,-60,796
01:01:01.933,,-79,-73,793
01:01:01.970,,-75,-47,864
01:01:02.007,,-42,0,921
01:01:02.044,,-43,10,958
01:01:02.081,,-121,-17,1013
01:01:02.118,,-112,15,1089
01:01:02.156,,-219,43,1202
01:01:02.193,,-35,236,1346
01:01:02.230,,-73,-62,1099
01:01:02.267,,-231,200,1107
01:01:02.304,,-207,239,1128
01:01:02.341,,-6,117,995
01:01:02.378,,-8,4,866
01:01:02.415,,-62,-28,802
01:01:02.452,,-103,-14,802
01:01:02.489,,-86,-50,839
01:01:02.527,,-29,3,911
01:01:02.564,,1,42,969
01:01:02.601,,-24,57,1040
01:01:02.638,,80,60,1073
01:01:02.675,,-32,-102,1010
01:01:02.712,,-22,113,1155
01:01:02.749,,76,127,1237
01:01:02.786,,144,87,1154
01:01:02.823,,131,155,1116
01:01:02.860,,69,125,977
01:01:02.898,,1,-29,816
01:01:02.935,,-48,-31,801
01:01:02.972,,-66,-29,827
01:01:03.009,,-34,-22,925
01:01:03.046,,27,23,999
01:01:03.083,,42,-9,1006
01:01:03.120,,1,15,1076
01:01:03.157,,32,-7,1112
01:01:03.194,,-39,-43,1129
01:01:03.231,,2,21,1201
01:01:03.268,,-63,-27,1119
01:01:03.306,,-213,101,1088
01:01:03.343,,-192,176,1155
01:01:03.380,,28,171,1080
01:01:03.417,,15,-5,875
01:01:03.454,,-50,11,802
01:01:03.491,,-56,17,763
01:01:03.528,,-48,-92,750
01:01:03.565,,-14,10,864
01:01:03.602,,43,31,941
01:01:03.640,,110,18,1024
01:01:03.677,,192,-2,1060
01:01:03.714,,-35,-97,1098
01:01:03.751,,171,215,1351
01:01:03.788,,190,-7,1253
01:01:03.825,,99,157,1199
01:01:03.862,,82,133,1174
01:01:03.899,,118,44,1020
01:01:03.936,,54,-102,863
01:01:03.973,,-7,-79,806
01:01:04.010,,-20,-84,780
01:01:04.048,,-14,-129,808
01:01:04.085,,9,-28,877
01:01:04.122,,11,-5,925
01:01:04.159,,-27,-44,972
01:01:04.196,,-27,1,1060
01:01:04.233,,-151,-26,1177
01:01:04.270,,9,157,1391
01:01:04.307,,66,-121,1119
01:01:04.344,,-180,62,1068
01:01:04.381,,-253,166,1068
01:01:04.419,,-59,165,1049
01:01:04.456,,52,40,926
01:01:04.493,,-5,-46,847
01:01:04.530,,-44,-36,798
01:01:04.567,,-59,-58,800
01:01:04.604,,-26,-20,873
01:01:04.641,,19,31,944
01:01:04.678,,12,49,1013
01:01:04.715,,96,68,1101
01:01:04.752,,35,-55,1098
01:01:04.790,,104,174,1266
01:01:04.827,,172,82,1247
01:01:04.864,,134,190,1259
01:01:04.901,,177,95,1149
01:01:04.938,,110,12,970
01:01:04.975,,48,-60,826
01:01:05.012,,-15,-76,782
01:01:05.049,,-43,-65,784
01:01:05.086,,-61,-62,836
01:01:05.123,,-20,11,924
01:01:05.161,,7,-6,948
01:01:05.198,,-48,-36,986
01:01:05.235,,-72,-11,1054
01:01:05.272,,-92,-1,1094
01:01:05.309,,-144,65,1286
01:01:05.346,,49,6,1191
01:01:05.383,,-152,-9,1078
01:01:05.420,,-286,121,1046
01:01:05.457,,-175,179,1072
01:01:05.494,,8,137,1000
01:01:05.532,,12,36,896
01:01:05.569,,-30,5,822
01:01:05.606,,-60,-22,795
01:01:05.643,,-45,-42,844
01:01:05.680,,12,19,929
01:01:05.717,,16,26,988
01:01:05.754,,20,48,1045
01:01:05.791,,57,38,1033
01:01:05.828,,-102,67,1158
01:01:05.865,,103,193,1263
01:01:05.903,,61,97,1191
01:01:05.940,,-11,256,1186
01:01:05.977,,-1,127,1054
01:01:06.014,,-24,61,922
01:01:06.051,,-90,-9,818
01:01:06.088,,-142,-22,779
01:01:06.125,,-161,-30,795
01:01:06.162,,-136,23,886
01:01:06.199,,-58,94,965
01:01:06.236,,-56,43,962
01:01:06.273,,-155,61,1015
01:01:06.311,,-198,96,1081
01:01:06.348,,-195,256,1284
01:01:06.385,,-68,193,1222
01:01:06.422,,-201,156,1080
01:01:06.459,,-330,231,1008
01:01:06.496,,-236,356,1015
01:01:06.533,,-63,346,957
01:01:06.570,,16,274,920
01:01:06.607,,33,194,893
01:01:06.644,,83,83,958
01:01:06.681,,160,24,1000
01:01:06.719,,225,79,935
01:01:06.756,,251,57,848
01:01:06.793,,241,100,878
01:01:06.830,,230,34,869
01:01:06.867,,202,154,1113
01:01:06.904,,345,308,1241
01:01:06.941,,307,252,1239
01:01:06.978,,197,209,1115
01:01:07.015,,72,84,941
01:01:07.052,,19,37,810
01:01:07.089,,-47,25,796
01:01:07.127,,-59,-11,831
01:01:07.164,,-1,37,900
01:01:07.201,,53,97,990
01:01:07.238,,72,27,975
01:01:07.275,,30,10,1006
01:01:07.312,,40,-25,1039
01:01:07.349,,40,-66,1068
01:01:07.386,,-48,55,1226
01:01:07.423,,66,77,1185
01:01:07.460,,-85,-37,1014
01:01:07.498,,-187,171,1034
01:01:07.535,,-131,211,1047
01:01:07.572,,28,123,963
01:01:07.609,,50,62,909
01:01:07.646,,49,53,868
01:01:07.683,,29,0,808
01:01:07.720,,57,-21,817
01:01:07.757,,83,77,880
01:01:07.794,,77,136,938
01:01:07.831,,94,190,1049
01:01:07.869,,201,131,1066
01:01:07.906,,74,108,1082
01:01:07.943,,185,276,1179
01:01:07.980,,219,168,1125
01:01:08.017,,240,348,1233
01:01:08.054,,318,292,1177
01:01:08.091,,271,161,975
01:01:08.128,,121,72,825
01:01:08.165,,14,89,777
01:01:08.202,,-30,35,763
01:01:08.239,,-40,30,820
01:01:08.277,,-6,115,906
01:01:08.314,,-17,74,926
01:01:08.351,,-40,112,1027
01:01:08.388,,-12,110,1093
01:01:08.425,,-99,104,1137
01:01:08.462,,43,336,1338
01:01:08.499,,63,2,1120
01:01:08.536,,-94,270,1133
01:01:08.573,,-142,336,1120
01:01:08.610,,41,255,1013
01:01:08.648,,90,134,892
01:01:08.685,,70,72,814
01:01:08.722,,50,38,768
01:01:08.759,,66,15,801
01:01:08.796,,133,42,869
01:01:08.833,,173,69,921
01:01:08.870,,169,138,1027
01:01:08.907,,266,123,1082
01:01:08.944,,210,22,1082
01:01:08.981,,294,185,1194
01:01:09.018,,238,137,1138
01:01:09.056,,250,279,1217
01:01:09.093,,299,209,1192
01:01:09.130,,225,57,977
01:01:09.167,,59,-9,848
01:01:09.204,,-56,11,781
01:01:09.241,,-84,-15,759
01:01:09.278,,-96,-15,806
01:01:09.315,,-90,39,874
01:01:09.352,,-152,4,927
01:01:09.389,,-180,9,1004
01:01:09.427,,-216,10,1066
01:01:09.464,,-314,41,1179
01:01:09.501,,-119,203,1289
01:01:09.538,,-183,57,1123
01:01:09.575,,-291,304,1132
01:01:09.612,,-150,308,1087
01:01:09.649,,0,163,942
01:01:09.686,,38,92,889
01:01:09.723,,54,63,857
01:01:09.760,,60,-67,799
01:01:09.798,,53,-54,821
01:01:09.835,,47,12,872
01:01:09.872,,40,120,962
01:01:09.909,,141,165,1086
01:01:09.946,,147,53,1110
01:01:09.983,,248,188,1222
01:01:10.020,,162,246,1200
01:01:10.057,,58,281,1227
01:01:10.094,,109,184,1159
01:01:10.131,,113,88,989
01:01:10.168,,-61,-27,799
01:01:10.206,,-227,28,777
01:01:10.243,,-280,11,771
01:01:10.280,,-257,-16,820
01:01:10.317,,-238,-20,893
01:01:10.354,,-208,-24,920
01:01:10.391,,-215,-72,956
01:01:10.428,,-221,252,1301
01:01:10.465,,-192,-52,1106
01:01:10.502,,-426,214,1141
01:01:10.539,,-373,317,1160
01:01:10.576,,-119,229,1050
01:01:10.614,,7,121,927
01:01:10.651,,18,143,912
01:01:10.688,,39,80,868
01:01:10.725,,74,-46,837
01:01:10.762,,118,-48,862
01:01:10.799,,135,-2,871
01:01:10.836,,99,33,934
01:01:10.873,,169,58,987
01:01:10.910,,32,-32,1060
01:01:10.947,,214,294,1296
01:01:10.985,,186,143,1290
01:01:11.022,,238,206,1255
01:01:11.059,,36,209,1213
01:01:11.096,,-48,58,1037
01:01:11.133,,-138,-75,891
01:01:11.170,,-123,-87,835
01:01:11.207,,-82,-109,791
01:01:11.244,,-82,-123,779
01:01:11.281,,-139,-114,789
01:01:11.318,,-217,-122,818
01:01:11.355,,-229,-78,910
01:01:11.393,,-186,27,1039
01:01:11.430,,-282,-76,1133
01:01:11.467,,-451,-30,1173
01:01:11.504,,-547,116,1249
01:01:11.541,,-394,325,1359
01:01:11.578,,1,299,1285
01:01:11.615,,218,214,1063
01:01:11.652,,175,-4,810
01:01:11.689,,90,-15,732
01:01:11.726,,50,-22,730
01:01:11.764,,65,-147,757
01:01:11.801,,113,-118,821
01:01:11.838,,114,-69,957
01:01:11.875,,176,-86,1071
01:01:11.912,,85,-207,1157
01:01:11.949,,145,68,1429
01:01:11.986,,137,104,1288
01:01:12.023,,33,226,1202
01:01:12.060,,-19,165,1068
01:01:12.097,,-37,100,922
01:01:12.134,,-85,0,814
01:01:12.172,,-180,-35,796
01:01:12.209,,-226,-74,805
01:01:12.246,,-225,-140,896
01:01:12.283,,-235,-32,926
01:01:12.320,,-239,-40,944
01:01:12.357,,-249,-46,963
01:01:12.394,,-222,28,1023
01:01:12.431,,-75,0,982
01:01:12.468,,-294,-167,886
01:01:12.505,,-614,3,968
01:01:12.543,,-613,159,1134
01:01:12.580,,-420,329,1246
01:01:12.617,,-90,313,1141
01:01:12.654,,167,614,1145
01:01:12.691,,239,350,978
01:01:12.728,,194,23,793
01:01:12.765,,135,28,734
01:01:12.802,,98,52,712
01:01:12.839,,76,62,765
01:01:12.876,,72,181,884
01:01:12.914,,160,219,1017
01:01:12.951,,143,-51,1004
01:01:12.988,,133,218,1224
01:01:13.025,,183,515,1319
01:01:13.062,,224,317,1290
01:01:13.099,,255,181,1120
01:01:13.136,,45,155,962
01:01:13.173,,-114,132,870
01:01:13.210,,-191,152,838
01:01:13.247,,-194,105,839
01:01:13.285,,-169,73,865
01:01:13.322,,-167,68,910
01:01:13.359,,-159,33,925
01:01:13.396,,-216,-23,940
01:01:13.433,,-186,34,985
01:01:13.470,,-212,81,1089
01:01:13.507,,-60,290,1246
01:01:13.544,,-106,-5,1105
01:01:13.581,,-274,263,1150
01:01:13.618,,-156,408,1193
01:01:13.656,,54,224,1095
01:01:13.693,,127,61,949
01:01:13.730,,107,-10,852
01:01:13.767,,82,-25,780
01:01:13.804,,68,-7,763
01:01:13.841,,110,15,816
01:01:13.878,,122,95,879
01:01:13.915,,174,97,979
01:01:13.952,,233,8,1014
01:01:13.989,,12,23,1067
01:01:14.026,,196,284,1230
01:01:14.064,,159,256,1272
01:01:14.101,,247,261,1274
01:01:14.138,,132,219,1152
01:01:14.175,,-79,166,1052
01:01:14.212,,-185,52,926
01:01:14.249,,-211,-23,833
01:01:14.286,,-198,-78,757
01:01:14.323,,-187,-68,734
01:01:14.360,,-245,-90,711
01:01:14.397,,-381,-31,763
01:01:14.435,,-420,72,923
01:01:14.472,,-460,104,1059
01:01:14.509,,-237,263,1349
01:01:14.546,,-207,187,1347
01:01:14.583,,-295,367,1396
01:01:14.620,,-135,447,1333
01:01:14.657,,80,164,1060
01:01:14.694,,112,55,860
01:01:14.731,,122,45,753
01:01:14.768,,105,9,701
01:01:14.806,,120,-34,687
01:01:14.843,,157,-74,695
01:01:14.880,,205,47,816
01:01:14.917,,265,64,943
01:01:14.954,,259,-121,1073
01:01:14.991,,328,31,1259
01:01:15.028,,199,187,1288
01:01:15.065,,141,253,1322
01:01:15.102,,206,185,1217
01:01:15.139,,192,94,1050
01:01:15.176,,59,30,877
01:01:15.214,,-61,83,801
01:01:15.251,,-103,97,764
01:01:15.288,,-126,99,764
01:01:15.325,,-156,53,816
01:01:15.362,,-120,13,872
01:01:15.399,,-127,-122,917
01:01:15.436,,-157,-174,1018
01:01:15.473,,-363,-259,1130
01:01:15.510,,-311,81,1254
01:01:15.547,,-436,89,1347
01:01:15.585,,-356,411,1408
01:01:15.622,,-98,447,1278
01:01:15.659,,63,369,1041
01:01:15.696,,132,224,840
01:01:15.733,,186,137,752
01:01:15.770,,204,66,708
01:01:15.807,,235,-2,711
01:01:15.844,,268,-98,696
01:01:15.881,,269,-99,742
01:01:15.918,,330,-32,848
01:01:15.956,,304,-47,1060
01:01:15.993,,433,-52,1312
01:01:16.030,,395,60,1420
01:01:16.067,,382,282,1468
01:01:16.104,,241,172,1227
01:01:16.141,,102,99,952
01:01:16.178,,-10,91,823
01:01:16.215,,-112,73,771
01:01:16.252,,-145,-31,757
01:01:16.289,,-259,-10,779
01:01:16.327,,-336,74,809
01:01:16.364,,-358,101,855
01:01:16.401,,-265,140,960
01:01:16.438,,-253,51,1087
01:01:16.475,,-67,66,1208
01:01:16.512,,-244,-103,1086
01:01:16.549,,-452,151,1205
01:01:16.586,,-326,328,1373
01:01:16.623,,-31,66,1222
01:01:16.660,,1,-23,994
01:01:16.698,,-27,-26,820
01:01:16.735,,-27,-63,674
01:01:16.772,,5,-112,599
01:01:16.809,,63,-114,662
01:01:16.846,,67,-133,778
01:01:16.883,,84,-21,962
01:01:16.920,,145,-126,1081
01:01:16.957,,-71,-283,1067
01:01:16.994,,112,451,1428
01:01:17.031,,84,400,1509
01:01:17.068,,65,285,1304
01:01:17.106,,-120,251,1098
01:01:17.143,,-232,156,930
01:01:17.180,,-273,84,818
01:01:17.217,,-268,17,784
01:01:17.254,,-242,-24,773
01:01:17.291,,-278,19,785
01:01:17.328,,-305,11,803
01:01:17.365,,-306,29,877
01:01:17.402,,-185,107,987
01:01:17.439,,-195,112,1078
01:01:17.477,,-184,162,1231
01:01:17.514,,-224,96,1225
01:01:17.551,,-274,299,1268
01:01:17.588,,-141,327,1224
01:01:17.625,,-3,259,1088
01:01:17.662,,61,138,946
01:01:17.699,,44,12,811
01:01:17.736,,35,9,775
01:01:17.773,,48,-5,771
01:01:17.810,,51,-49,775
01:01:17.847,,12,15,878
01:01:17.885,,79,110,1026
01:01:17.922,,170,-29,1024
01:01:17.959,,-40,-45,1112
01:01:17.996,,119,328,1342
01:01:18.033,,161,187,1326
01:01:18.070,,238,218,1287
01:01:18.107,,141,153,1117
01:01:18.144,,26,-4,907
01:01:18.181,,-91,-3,842
01:01:18.218,,-121,-50,797
01:01:18.255,,-122,-111,763
01:01:18.293,,-173,-36,787
01:01:18.330,,-228,29,823
01:01:18.367,,-271,-1,873
01:01:18.404,,-262,22,964
01:01:18.441,,-379,165,1255
01:01:18.478,,-3,272,1339
01:01:18.515,,-103,-32,1214
01:01:18.552,,-318,328,1272
01:01:18.589,,-193,376,1265
01:01:18.626,,46,92,1035
01:01:18.664,,47,8,859
01:01:18.701,,12,25,753
01:01:18.738,,5,31,683
01:01:18.775,,20,-6,652
01:01:18.812,,53,-5,728
01:01:18.849,,81,126,852
01:01:18.886,,155,183,1004
01:01:18.923,,71,81,1107
01:01:18.960,,212,327,1332
01:01:18.997,,164,346,1400
01:01:19.035,,190,308,1401
01:01:19.072,,122,115,1225
01:01:19.109,,26,49,1038
01:01:19.146,,-82,23,915
01:01:19.183,,-116,-22,799
01:01:19.220,,-149,-45,734
01:01:19.257,,-198,-16,720
01:01:19.294,,-261,2,723
01:01:19.331,,-281,8,764
01:01:19.368,,-264,18,846
01:01:19.405,,-294,157,1029
01:01:19.443,,-87,413,1269
01:01:19.480,,-34,166,1260
01:01:19.517,,-160,480,1321
01:01:19.554,,-72,480,1358
01:01:19.591,,137,260,1170
01:01:19.628,,177,175,1008
01:01:19.665,,186,164,874
01:01:19.702,,169,97,734
01:01:19.739,,132,74,686
01:01:19.776,,118,114,732
01:01:19.814,,137,127,822
01:01:19.851,,237,150,926
01:01:19.888,,169,8,997
01:01:19.925,,271,273,1295
01:01:19.962,,250,436,1373
01:01:19.999,,140,388,1310
01:01:20.036,,-60,373,1112
01:01:20.073,,-190,272,950
01:01:20.110,,-227,146,791
01:01:20.147,,-197,82,744
01:01:20.184,,-97,14,742
01:01:20.221,,-96,-7,681
01:01:20.259,,-250,68,720
01:01:20.296,,-412,137,805
01:01:20.333,,-426,240,951
01:01:20.370,,-533,326,1153
01:01:20.407,,-284,646,1372
01:01:20.444,,-199,408,1249
01:01:20.481,,-220,676,1281
01:01:20.518,,0,628,1193
01:01:20.555,,228,351,970
01:01:20.592,,252,152,806
01:01:20.630,,203,77,693
01:01:20.667,,150,14,620
01:01:20.704,,131,34,635
01:01:20.741,,130,182,749
01:01:20.778,,211,289,865
01:01:20.815,,255,480,926
01:01:20.852,,172,399,970
01:01:20.889,,151,580,1048
01:01:20.926,,50,646,1095
01:01:20.963,,10,843,1221
01:01:21.000,,38,637,1112
01:01:21.038,,-57,417,865
01:01:21.075,,-165,343,809
01:01:21.112,,-185,293,836
01:01:21.149,,-151,188,843
01:01:21.186,,-162,110,812
01:01:21.223,,-255,109,795
01:01:21.260,,-340,140,819
01:01:21.297,,-364,189,856
01:01:21.334,,-406,539,1075
01:01:21.371,,-123,814,1170
01:01:21.409,,-56,592,1118
01:01:21.446,,-120,688,1064
01:01:21.483,,-92,737,1040
01:01:21.520,,83,509,885
01:01:21.557,,172,245,801
01:01:21.594,,170,135,743
01:01:21.631,,135,155,725
01:01:21.668,,137,181,766
01:01:21.705,,209,251,813
01:01:21.742,,205,199,838
01:01:21.779,,188,292,973
01:01:21.817,,113,273,1051
01:01:21.854,,87,234,1157
01:01:21.891,,177,348,1250
01:01:21.928,,286,365,1335
01:01:21.965,,313,169,1122
01:01:22.002,,184,92,931
01:01:22.039,,31,88,851
01:01:22.076,,-51,119,830
01:01:22.113,,-75,29,772
01:01:22.150,,-145,-15,750
01:01:22.187,,-245,59,772
01:01:22.225,,-324,149,832
01:01:22.262,,-368,190,935
01:01:22.299,,-370,304,1054
01:01:22.336,,-201,533,1337
01:01:22.373,,-105,279,1203
01:01:22.410,,-260,322,1216
01:01:22.447,,-216,661,1253
01:01:22.484,,38,487,1122
01:01:22.521,,206,160,875
01:01:22.558,,214,112,747
01:01:22.595,,181,111,697
01:01:22.633,,177,87,696
01:01:22.670,,200,27,737
01:01:22.707,,275,9,808
01:01:22.744,,342,36,920
01:01:22.781,,432,-25,1005
01:01:22.818,,345,-68,1138
01:01:22.855,,330,228,1302
01:01:22.892,,191,367,1329
01:01:22.929,,97,341,1285
01:01:22.966,,15,313,1146
01:01:23.004,,-55,203,1021
01:01:23.041,,-111,62,901
01:01:23.078,,-131,-20,822
01:01:23.115,,-176,-46,760
01:01:23.152,,-243,-35,693
01:01:23.189,,-274,68,722
01:01:23.226,,-302,71,792
01:01:23.263,,-253,91,896
01:01:23.300,,-346,117,1091
01:01:23.337,,-174,315,1314
01:01:23.374,,-217,168,1374
01:01:23.412,,-161,399,1400
01:01:23.449,,83,381,1308
01:01:23.486,,251,87,1026
01:01:23.523,,236,-41,823
01:01:23.560,,191,-36,736
01:01:23.597,,172,-42,683
01:01:23.634,,145,-66,662
01:01:23.671,,171,-41,758
01:01:23.708,,233,109,960
01:01:23.745,,369,-36,1064
01:01:23.783,,270,-261,1070
01:01:23.820,,268,128,1301
01:01:23.857,,243,219,1337
01:01:23.894,,323,150,1264
01:01:23.931,,168,113,1091
01:01:23.968,,14,174,989
01:01:24.005,,-71,81,885
01:01:24.042,,-150,-16,824
01:01:24.079,,-176,-56,800
01:01:24.116,,-203,-52,784
01:01:24.154,,-215,-2,797
01:01:24.191,,-272,-14,890
01:01:24.228,,-251,50,1005
01:01:24.265,,-197,87,1060
01:01:24.302,,-236,348,1381
01:01:24.339,,-7,426,1450
01:01:24.376,,-46,253,1305
01:01:24.413,,-98,492,1278
01:01:24.450,,58,418,1128
01:01:24.487,,198,259,885
01:01:24.525,,243,217,740
01:01:24.562,,257,209,642
01:01:24.599,,292,121,571
01:01:24.636,,351,5,598
01:01:24.673,,484,-59,675
01:01:24.710,,617,1,924
01:01:24.747,,499,-19,1191
01:01:24.784,,438,141,1340
01:01:24.821,,355,402,1408
01:01:24.858,,217,569,1390
01:01:24.895,,162,550,1313
01:01:24.933,,-50,346,1067
01:01:24.970,,-290,235,878
01:01:25.007,,-419,88,739
01:01:25.044,,-391,-67,622
01:01:25.081,,-376,-111,617
01:01:25.118,,-325,-86,696
01:01:25.155,,-146,-395,781
01:01:25.192,,-99,-53,836
01:01:25.229,,-313,370,1038
01:01:25.266,,-583,485,1188
01:01:25.304,,-252,655,1319
01:01:25.341,,-202,399,1107
01:01:25.378,,-274,391,1257
01:01:25.415,,-73,419,1330
01:01:25.452,,41,241,1082
01:01:25.489,,-16,82,811
01:01:25.526,,-35,-5,663
01:01:25.563,,-47,96,655
01:01:25.600,,-45,119,740
01:01:25.637,,-21,130,811
01:01:25.675,,13,117,881
01:01:25.712,,145,160,1009
01:01:25.749,,118,168,1037
01:01:25.786,,131,188,1121
01:01:25.823,,134,236,1197
01:01:25.860,,173,282,1216
01:01:25.897,,129,252,1244
01:01:25.934,,38,106,1140
01:01:25.971,,-75,-12,1057
01:01:26.008,,-153,-62,971
01:01:26.046,,-198,-141,862
01:01:26.083,,-188,-92,795
01:01:26.120,,-155,-10,770
01:01:26.157,,-152,-35,758
01:01:26.194,,-143,36,866
01:01:26.231,,-71,67,960
01:01:26.268,,-192,30,1138
01:01:26.305,,-101,32,1185
01:01:26.342,,-338,179,1282
01:01:26.379,,-285,355,1413
01:01:26.417,,59,298,1390
01:01:26.454,,260,112,1103
01:01:26.491,,200,-52,803
01:01:26.528,,91,-40,665
01:01:26.565,,27,16,620
01:01:26.602,,43,3,656
01:01:26.639,,124,134,787
01:01:26.676,,249,225,994
01:01:26.713,,412,9,982
01:01:26.750,,327,-79,939
01:01:26.788,,311,175,1187
01:01:26.825,,331,327,1466
01:01:26.862,,385,113,1322
01:01:26.899,,85,133,1210
01:01:26.936,,-208,59,1085
01:01:26.973,,-415,-39,907
01:01:27.010,,-368,-96,775
01:01:27.047,,-217,-94,708
01:01:27.084,,-149,99,723
01:01:27.121,,-177,175,759
01:01:27.158,,-207,271,889
01:01:27.196,,-213,296,1021
01:01:27.233,,-199,480,1388
01:01:27.270,,114,464,1333
01:01:27.307,,-139,251,1179
01:01:27.344,,-149,554,1289
01:01:27.381,,136,406,1143
01:01:27.418,,246,173,922
01:01:27.455,,190,82,786
01:01:27.492,,98,12,695
01:01:27.529,,72,18,663
01:01:27.567,,75,17,639
01:01:27.604,,91,31,695
01:01:27.641,,128,255,883
01:01:27.678,,281,357,1095
01:01:27.715,,342,64,1064
01:01:27.752,,205,310,1265
01:01:27.789,,222,461,1386
01:01:27.826,,322,314,1306
01:01:27.863,,196,170,1140
01:01:27.900,,-2,246,1019
01:01:27.938,,-111,226,904
01:01:27.975,,-185,68,816
01:01:28.012,,-241,49,794
01:01:28.049,,-302,83,806
01:01:28.086,,-350,52,793
01:01:28.123,,-374,19,805
01:01:28.160,,-396,-38,837
01:01:28.197,,-591,-30,1011
01:01:28.234,,-223,414,1201
01:01:28.271,,-326,92,1177
01:01:28.308,,-311,477,1338
01:01:28.346,,-36,606,1353
01:01:28.383,,259,302,1103
01:01:28.420,,262,132,899
01:01:28.457,,196,122,788
01:01:28.494,,164,99,718
01:01:28.531,,177,83,693
01:01:28.568,,214,10,763
01:01:28.605,,301,56,903
01:01:28.642,,438,92,957
01:01:28.679,,338,-76,1017
01:01:28.716,,389,378,1260
01:01:28.754,,324,494,1384
01:01:28.791,,232,256,1313
01:01:28.828,,87,138,1104
01:01:28.865,,-73,141,979
01:01:28.902,,-119,58,844
01:01:28.939,,-158,-44,759
01:01:28.976,,-207,-63,732
01:01:29.013,,-337,5,747
01:01:29.050,,-424,76,796
01:01:29.087,,-446,116,903
01:01:29.124,,-297,345,1085
01:01:29.162,,-200,350,1308
01:01:29.199,,131,359,1290
01:01:29.236,,38,316,1228
01:01:29.273,,-2,496,1191
01:01:29.310,,146,513,1169
01:01:29.347,,265,280,980
01:01:29.384,,276,143,850
01:01:29.421,,264,85,771
01:01:29.458,,253,81,685
01:01:29.495,,277,-9,660
01:01:29.532,,317,-67,697
01:01:29.570,,391,38,871
01:01:29.607,,546,98,1088
01:01:29.644,,555,31,1115
01:01:29.681,,403,373,1223
01:01:29.718,,204,606,1238
01:01:29.755,,141,528,1118
01:01:29.792,,39,462,999
01:01:29.829,,-82,410,879
01:01:29.866,,-183,278,780
01:01:29.903,,-263,231,768
01:01:29.940,,-351,54,813
01:01:29.978,,-316,-8,844
01:01:30.015,,-262,331,871
01:01:30.052,,-264,420,890
01:01:30.089,,-317,439,880
01:01:30.126,,-222,366,884
01:01:30.163,,-401,676,1068
01:01:30.200,,-134,614,1269
01:01:30.237,,-91,75,1016
01:01:30.274,,-295,431,1073
01:01:30.311,,-132,497,1185
01:01:30.348,,41,230,997
01:01:30.386,,96,62,863
01:01:30.423,,84,52,839
01:01:30.460,,91,55,744
01:01:30.497,,101,63,703
01:01:30.534,,98,56,719
01:01:30.571,,78,108,804
01:01:30.608,,176,254,1005
01:01:30.645,,146,23,1138
01:01:30.682,,281,20,1236
01:01:30.719,,185,225,1403
01:01:30.756,,193,134,1311
01:01:30.794,,98,63,1097
01:01:30.831,,-15,77,975
01:01:30.868,,-62,-51,855
01:01:30.905,,-20,-86,791
01:01:30.942,,-17,-64,803
01:01:30.979,,-30,-30,820
01:01:31.016,,-71,32,818
01:01:31.053,,-124,43,858
01:01:31.090,,-184,5,933
01:01:31.127,,-146,114,1059
01:01:31.164,,-315,26,1213
01:01:31.202,,-341,57,1276
01:01:31.239,,-514,191,1310
01:01:31.276,,-456,393,1341
01:01:31.313,,-128,265,1164
01:01:31.350,,82,169,940
01:01:31.387,,173,280,858
01:01:31.424,,199,207,729
01:01:31.461,,210,87,652
01:01:31.498,,201,74,678
01:01:31.535,,201,87,730
01:01:31.572,,239,187,869
01:01:31.610,,301,89,994
01:01:31.647,,344,-25,1277
01:01:31.684,,277,126,1387
01:01:31.721,,329,228,1399
01:01:31.758,,295,127,1206
01:01:31.795,,172,123,1051
01:01:31.832,,17,106,926
01:01:31.869,,-124,53,838
01:01:31.906,,-211,34,798
01:01:31.943,,-266,-2,716
01:01:31.980,,-354,25,670
01:01:32.018,,-389,118,704
01:01:32.055,,-372,105,790
01:01:32.092,,-255,200,1019
01:01:32.129,,-158,237,1253
01:01:32.166,,31,-62,1248
01:01:32.203,,-134,57,1230
01:01:32.240,,-266,338,1296
01:01:32.277,,-73,299,1230
01:01:32.314,,114,185,1062
01:01:32.351,,201,78,911
01:01:32.388,,241,14,787
01:01:32.426,,252,0,699
01:01:32.463,,275,-6,673
01:01:32.500,,287,-73,663
01:01:32.537,,297,-3,748
01:01:32.574,,313,67,870
01:01:32.611,,290,-13,1033
01:01:32.648,,471,221,1276
01:01:32.685,,602,495,1414
01:01:32.722,,547,512,1271
01:01:32.759,,338,352,985
01:01:32.796,,147,332,834
01:01:32.834,,-41,400,804
01:01:32.871,,-145,300,784
01:01:32.908,,-185,177,788
01:01:32.945,,-198,191,818
01:01:32.982,,-236,203,847
01:01:33.019,,-276,220,908
01:01:33.056,,-288,235,1031
01:01:33.093,,-273,233,1156
01:01:33.130,,-241,393,1281
01:01:33.167,,-260,502,1383
01:01:33.204,,-175,632,1328
01:01:33.242,,30,723,1225
01:01:33.279,,196,495,983
01:01:33.316,,240,197,705
01:01:33.353,,216,148,640
01:01:33.390,,204,179,593
01:01:33.427,,202,136,578
01:01:33.464,,179,74,615
01:01:33.501,,161,101,758
01:01:33.538,,270,264,1053
01:01:33.575,,322,68,1138
01:01:33.612,,429,-3,1356
01:01:33.650,,503,278,1458
01:01:33.687,,535,391,1411
01:01:33.724,,343,55,1074
01:01:33.761,,167,-133,825
01:01:33.798,,36,-47,778
01:01:33.835,,-66,-25,755
01:01:33.872,,-111,-101,707
01:01:33.909,,-164,-19,694
01:01:33.946,,-200,136,801
01:01:33.983,,-226,171,943
01:01:34.020,,-147,210,1105
01:01:34.058,,-131,124,1241
01:01:34.095,,105,53,1263
01:01:34.132,,-11,-6,1261
01:01:34.169,,-38,240,1304
01:01:34.206,,113,292,1311
01:01:34.243,,276,167,1111
01:01:34.280,,287,62,888
01:01:34.317,,244,2,724
01:01:34.354,,255,15,681
01:01:34.391,,298,-25,672
01:01:34.429,,337,-95,670
01:01:34.466,,344,-50,782
01:01:34.503,,371,34,930
01:01:34.540,,274,-97,1085
01:01:34.577,,281,198,1329
01:01:34.614,,306,457,1524
01:01:34.651,,304,243,1337
01:01:34.688,,154,108,1028
01:01:34.725,,-62,65,831
01:01:34.762,,-159,93,717
01:01:34.799,,-183,-31,647
01:01:34.837,,-206,7,662
01:01:34.874,,-281,78,751
01:01:34.911,,-359,137,888
01:01:34.948,,-304,180,1035
01:01:34.985,,-131,246,1166
01:01:35.022,,-72,222,1283
01:01:35.059,,58,233,1273
01:01:35.096,,-104,299,1210
01:01:35.133,,-130,447,1204
01:01:35.170,,59,375,1130
01:01:35.207,,176,213,939
01:01:35.245,,194,116,827
01:01:35.282,,201,72,731
01:01:35.319,,200,24,677
01:01:35.356,,220,27,673
01:01:35.393,,235,82,727
01:01:35.430,,330,269,869
01:01:35.467,,349,335,1099
01:01:35.504,,489,420,1307
01:01:35.541,,433,483,1402
01:01:35.578,,356,539,1384
01:01:35.615,,144,258,1125
01:01:35.653,,-2,127,911
01:01:35.690,,-97,154,801
01:01:35.727,,-117,85,722
01:01:35.764,,-134,1,649
01:01:35.801,,-178,78,636
01:01:35.838,,-281,117,661
01:01:35.875,,-297,196,836
01:01:35.912,,-118,344,1052
01:01:35.949,,-114,195,1057
01:01:35.986,,-133,223,1237
01:01:36.023,,-174,522,1458
01:01:36.061,,-84,697,1560
01:01:36.098,,157,600,1503
01:01:36.135,,297,303,1152
01:01:36.172,,258,119,844
01:01:36.209,,214,76,656
01:01:36.246,,184,72,524
01:01:36.283,,146,45,494
01:01:36.320,,130,98,549
01:01:36.357,,101,130,636
01:01:36.394,,170,240,857
01:01:36.431,,339,491,1316
01:01:36.469,,555,290,1425
01:01:36.506,,427,475,1438
01:01:36.543,,317,556,1336
01:01:36.580,,101,301,1041
01:01:36.617,,-43,227,853
01:01:36.654,,-79,246,776
01:01:36.691,,-49,168,751
01:01:36.728,,-40,117,715
01:01:36.765,,-71,122,710
01:01:36.802,,-152,83,709
01:01:36.840,,-336,83,796
01:01:36.877,,-341,244,993
01:01:36.914,,-279,327,1177
01:01:36.951,,-68,492,1275
01:01:36.988,,6,404,1260
01:01:37.025,,-18,555,1217
01:01:37.062,,100,538,1183
01:01:37.099,,215,316,1041
01:01:37.136,,221,118,909
01:01:37.173,,208,67,798
01:01:37.210,,195,97,705
01:01:37.248,,217,77,690
01:01:37.285,,297,65,744
01:01:37.322,,380,112,884
01:01:37.359,,454,53,892
01:01:37.396,,356,39,984
01:01:37.433,,476,387,1251
01:01:37.470,,298,334,1252
01:01:37.507,,206,337,1210
01:01:37.544,,84,253,1123
01:01:37.581,,67,94,967
01:01:37.619,,-25,-42,841
01:01:37.656,,-77,19,827
01:01:37.693,,-104,50,835
01:01:37.730,,-88,67,862
01:01:37.767,,-80,76,905
01:01:37.804,,-95,20,918
01:01:37.841,,-68,45,966
01:01:37.878,,-217,-18,1036
01:01:37.915,,58,227,1225
01:01:37.952,,-71,276,1407
01:01:37.989,,-208,513,1538
01:01:38.026,,-73,520,1552
01:01:38.064,,118,193,1305
01:01:38.101,,144,-1,1060
01:01:38.138,,111,-8,930
01:01:38.175,,109,-37,851
01:01:38.212,,30,-190,930
01:01:38.249,,-53,-92,870
01:01:38.286,,-151,-56,805
01:01:38.323,,-285,3,871
01:01:38.360,,-293,150,928
01:01:38.397,,-347,107,981
01:01:38.435,,-262,114,1033
01:01:38.472,,-236,6,916
01:01:38.509,,-229,-146,828
01:01:38.546,,-266,-268,633
01:01:38.583,,-330,-167,805
01:01:38.620,,-387,142,1030
01:01:38.657,,-370,44,700
01:01:38.694,,-324,-95,483
01:01:38.731,,-276,25,616
01:01:38.768,,-262,112,924
01:01:38.806,,-307,314,787
01:01:38.843,,-602,686,568
01:01:38.880,,-678,421,629
01:01:38.917,,-609,83,976
01:01:38.954,,-829,-50,1190
01:01:38.991,,-936,159,1321
01:01:39.028,,-521,444,1307
01:01:39.065,,-244,383,1125
01:01:39.102,,-12,254,895
01:01:39.139,,69,97,707
01:01:39.176,,133,-32,601
01:01:39.214,,110,-108,570
01:01:39.251,,64,0,665
01:01:39.288,,94,175,840
01:01:39.325,,93,50,1027
01:01:39.362,,14,7,1248
01:01:39.399,,-112,340,1524
01:01:39.436,,70,508,1624
01:01:39.473,,69,44,1324
01:01:39.510,,42,-194,1023
01:01:39.547,,-15,-141,906
01:01:39.584,,-32,-76,825
01:01:39.622,,-63,-80,710
01:01:39.659,,-108,-113,644
01:01:39.696,,-177,-106,685
01:01:39.733,,-268,-9,808
01:01:39.770,,-305,202,996
01:01:39.807,,-212,228,1174
01:01:39.844,,-201,143,1179
01:01:39.881,,-213,87,1233
01:01:39.918,,-363,205,1348
01:01:39.955,,-320,667,1462
01:01:39.993,,-11,839,1486
01:01:40.030,,248,260,1142
01:01:40.067,,321,-147,899
01:01:40.104,,283,32,814
01:01:40.141,,260,-36,712
01:01:40.178,,271,-152,642
01:01:40.215,,297,-188,632
01:01:40.252,,271,-160,691
01:01:40.289,,346,-142,756
01:01:40.326,,291,-251,803
01:01:40.363,,274,-99,914
01:01:40.401,,182,278,1106
01:01:40.438,,256,303,1276
01:01:40.475,,299,338,1264
01:01:40.512,,204,405,1198
01:01:40.549,,28,229,1073
01:01:40.586,,-140,180,991
01:01:40.623,,-232,218,998
01:01:40.660,,-270,147,983
01:01:40.697,,-261,122,979
01:01:40.734,,-293,63,948
01:01:40.771,,-319,96,947
01:01:40.809,,-472,135,984
01:01:40.846,,-228,792,1463
01:01:40.883,,-27,434,1381
01:01:40.920,,36,680,1459
01:01:40.957,,223,713,1380
01:01:40.994,,384,396,1031
01:01:41.031,,383,244,787
01:01:41.068,,372,239,664
01:01:41.105,,339,182,569
01:01:41.142,,272,243,573
01:01:41.179,,241,315,650
01:01:41.217,,380,369,727
01:01:41.254,,450,56,758
01:01:41.291,,509,181,944
01:01:41.328,,347,674,1230
01:01:41.365,,182,317,1181
01:01:41.402,,0,221,1110
01:01:41.439,,-108,342,1089
01:01:41.476,,-135,197,969
01:01:41.513,,-124,118,864
01:01:41.550,,-153,158,758
01:01:41.588,,-225,221,715
01:01:41.625,,-309,271,761
01:01:41.662,,-303,343,862
01:01:41.699,,-311,593,1123
01:01:41.736,,-146,819,1315
01:01:41.773,,-71,483,1220
01:01:41.810,,-172,768,1286
01:01:41.847,,-50,846,1223
01:01:41.884,,94,470,964
01:01:41.921,,125,331,810
01:01:41.958,,121,396,767
01:01:41.996,,119,356,705
01:01:42.033,,130,224,651
01:01:42.070,,166,238,696
01:01:42.107,,200,275,752
01:01:42.144,,281,231,813
01:01:42.181,,383,115,853
01:01:42.218,,288,101,898
01:01:42.255,,201,648,1254
01:01:42.292,,265,423,1272
01:01:42.329,,244,247,1164
01:01:42.366,,80,177,1033
01:01:42.404,,-57,42,903
01:01:42.441,,-106,-8,847
01:01:42.478,,-133,-25,780
01:01:42.515,,-170,41,754
01:01:42.552,,-189,163,793
01:01:42.589,,-204,163,856
01:01:42.626,,-206,158,942
01:01:42.663,,-211,250,1115
01:01:42.700,,0,507,1381
01:01:42.737,,20,271,1307
01:01:42.774,,-28,456,1306
01:01:42.812,,51,591,1314
01:01:42.849,,227,378,1153
01:01:42.886,,278,158,959
01:01:42.923,,254,88,798
01:01:42.960,,204,90,670
01:01:42.997,,169,104,619
01:01:43.034,,155,145,647
01:01:43.071,,214,228,759
01:01:43.108,,332,285,865
01:01:43.145,,332,21,823
01:01:43.183,,185,151,1037
01:01:43.220,,197,432,1264
01:01:43.257,,296,413,1347
01:01:43.294,,284,77,1215
01:01:43.331,,188,157,1086
01:01:43.368,,66,137,944
01:01:43.405,,-32,97,853
01:01:43.442,,-65,55,814
01:01:43.479,,-114,19,779
01:01:43.516,,-211,44,805
01:01:43.554,,-301,80,869
01:01:43.591,,-288,115,972
01:01:43.628,,-278,148,1076
01:01:43.665,,-111,406,1329
01:01:43.702,,-91,79,1170
01:01:43.739,,-225,291,1188
01:01:43.776,,-225,510,1218
01:01:43.813,,-40,403,1107
01:01:43.850,,91,194,948
01:01:43.887,,124,134,866
01:01:43.925,,145,117,795
01:01:43.962,,132,16,699
01:01:43.999,,133,35,682
01:01:44.036,,134,83,744
01:01:44.073,,184,220,899
01:01:44.110,,306,239,993
01:01:44.147,,174,177,1091
01:01:44.184,,240,379,1206
01:01:44.221,,124,547,1269
01:01:44.258,,138,437,1266
01:01:44.295,,135,257,1109
01:01:44.333,,80,113,939
01:01:44.370,,-31,107,830
01:01:44.407,,-88,131,771
01:01:44.444,,-80,90,724
01:01:44.481,,-107,131,699
01:01:44.518,,-220,214,737
01:01:44.555,,-356,307,827
01:01:44.592,,-337,541,964
01:01:44.629,,-408,501,1037
01:01:44.666,,-322,855,1263
01:01:44.704,,-239,821,1208
01:01:44.741,,-265,905,1191
01:01:44.778,,-88,985,1181
01:01:44.815,,112,598,971
01:01:44.852,,166,168,747
01:01:44.889,,157,131,664
01:01:44.926,,139,207,637
01:01:44.963,,100,221,601
01:01:45.000,,99,240,624
01:01:45.037,,140,318,769
01:01:45.074,,294,395,921
01:01:45.112,,253,212,984
01:01:45.149,,313,401,1204
01:01:45.186,,217,605,1238
01:01:45.223,,70,527,1229
01:01:45.260,,-64,427,1114
01:01:45.297,,-158,359,1028
01:01:45.334,,-273,169,932
01:01:45.371,,-243,107,874
01:01:45.408,,-197,31,784
01:01:45.445,,-229,27,673
01:01:45.483,,-305,127,626
01:01:45.520,,-372,188,658
01:01:45.557,,-386,257,785
01:01:45.594,,-465,654,1127
01:01:45.631,,-120,1021,1286
01:01:45.668,,13,529,1190
01:01:45.705,,-75,698,1204
01:01:45.742,,41,845,1185
01:01:45.779,,123,375,965
01:01:45.816,,130,133,811
01:01:45.854,,127,104,764
01:01:45.891,,98,108,693
01:01:45.928,,80,139,672
01:01:45.965,,124,286,730
01:01:46.002,,203,397,815
01:01:46.039,,314,373,887
01:01:46.076,,277,346,918
01:01:46.113,,236,446,1033
01:01:46.150,,195,657,1175
01:01:46.187,,146,581,1216
01:01:46.224,,42,415,1175
01:01:46.262,,2,366,1161
01:01:46.299,,-108,122,1005
01:01:46.336,,-212,-14,918
01:01:46.373,,-269,-32,864
01:01:46.410,,-320,-13,795
01:01:46.447,,-365,60,762
01:01:46.484,,-397,137,778
01:01:46.521,,-414,172,809
01:01:46.558,,-463,299,1050
01:01:46.595,,-185,711,1230
01:01:46.633,,-239,217,1104
01:01:46.670,,-256,511,1164
01:01:46.707,,-87,733,1165
01:01:46.744,,88,401,987
01:01:46.781,,236,251,869
01:01:46.818,,268,196,749
01:01:46.855,,251,136,683
01:01:46.892,,218,111,677
01:01:46.929,,192,94,729
01:01:46.966,,294,147,895
01:01:47.003,,354,75,999
01:01:47.041,,453,30,1131
01:01:47.078,,386,354,1297
01:01:47.115,,397,508,1362
01:01:47.152,,403,358,1200
01:01:47.189,,201,203,975
01:01:47.226,,-61,156,881
01:01:47.263,,-171,167,862
01:01:47.300,,-209,64,790
01:01:47.337,,-302,-45,729
01:01:47.374,,-451,13,734
01:01:47.412,,-584,130,751
01:01:47.449,,-674,233,829
01:01:47.486,,-640,326,907
01:01:47.523,,-591,502,1083
01:01:47.560,,-450,625,1084
01:01:47.597,,-429,496,1032
01:01:47.634,,-283,694,1015
01:01:47.671,,-76,684,922
01:01:47.708,,74,486,793
01:01:47.745,,163,413,725
01:01:47.782,,200,341,703
01:01:47.820,,248,279,806
01:01:47.857,,308,192,894
01:01:47.894,,405,223,985
01:01:47.931,,546,358,1036
01:01:47.968,,432,169,988
01:01:48.005,,243,401,1169
01:01:48.042,,233,814,1136
01:01:48.079,,129,630,1107
01:01:48.116,,91,402,1013
01:01:48.153,,-21,272,924
01:01:48.190,,-132,240,899
01:01:48.228,,-159,199,857
01:01:48.265,,-125,92,777
01:01:48.302,,-212,21,691
01:01:48.339,,-319,84,650
01:01:48.376,,-444,182,701
01:01:48.413,,-437,282,793
01:01:48.450,,-492,347,969
01:01:48.487,,-266,624,1130
01:01:48.524,,-312,438,1149
01:01:48.561,,-275,671,1172
01:01:48.598,,-87,780,1128
01:01:48.636,,77,474,971
01:01:48.673,,194,167,532
01:01:48.710,,239,264,758
01:01:48.747,,157,326,856
01:01:48.784,,202,272,786
01:01:48.821,,154,194,772
01:01:48.858,,134,357,922
01:01:48.895,,221,492,1029
01:01:48.932,,133,329,1057
01:01:48.969,,239,690,1310
01:01:49.006,,320,737,1288
01:01:49.044,,275,394,1068
01:01:49.081,,90,299,881
01:01:49.118,,-33,380,808
01:01:49.155,,-126,293,700
01:01:49.192,,-254,220,646
01:01:49.229,,-262,241,679
01:01:49.266,,-330,248,658
01:01:49.303,,-410,317,676
01:01:49.340,,-416,419,837
01:01:49.377,,-248,570,980
01:01:49.415,,-253,655,1137
01:01:49.452,,-58,570,1134
01:01:49.489,,-193,467,1100
01:01:49.526,,-228,867,1199
01:01:49.563,,-51,913,1102
01:01:49.600,,52,412,856
01:01:49.637,,107,309,745
01:01:49.674,,145,302,701
01:01:49.711,,150,244,669
01:01:49.748,,158,227,699
01:01:49.786,,186,291,767
01:01:49.823,,204,332,806
01:01:49.860,,352,282,911
01:01:49.897,,395,308,1069
01:01:49.934,,381,510,1139
01:01:49.971,,297,419,1197
01:01:50.008,,293,367,1186
01:01:50.045,,232,223,1040
01:01:50.082,,150,39,882
01:01:50.119,,0,46,843
01:01:50.156,,-29,103,772
01:01:50.194,,-49,43,765
01:01:50.231,,-107,18,812
01:01:50.268,,-182,110,833
01:01:50.305,,-223,179,929
01:01:50.342,,-186,282,1073
01:01:50.379,,-222,268,1253
01:01:50.416,,-14,261,1252
01:01:50.453,,-211,331,1263
01:01:50.490,,-152,562,1275
01:01:50.527,,52,456,1126
01:01:50.564,,180,336,1020
01:01:50.602,,171,232,885
01:01:50.639,,145,130,765
01:01:50.676,,130,67,711
01:01:50.713,,137,71,699
01:01:50.750,,169,87,724
01:01:50.787,,153,108,777
01:01:50.824,,231,232,892
01:01:50.861,,232,177,982
01:01:50.898,,333,381,1277
01:01:50.935,,326,503,1289
01:01:50.973,,326,502,1294
01:01:51.010,,232,498,1160
01:01:51.047,,40,358,947
01:01:51.084,,-89,276,861
01:01:51.121,,-155,213,742
01:01:51.158,,-219,58,695
01:01:51.195,,-223,9,685
01:01:51.232,,-275,138,725
01:01:51.269,,-318,267,782
01:01:51.306,,-347,343,865
01:01:51.343,,-358,425,917
01:01:51.381,,-427,629,1106
01:01:51.418,,-253,1060,1311
01:01:51.455,,-114,1051,1248
01:01:51.492,,59,946,1182
01:01:51.529,,221,742,991
01:01:51.566,,281,397,750
01:01:51.603,,293,225,640
01:01:51.640,,271,185,602
01:01:51.677,,242,179,627
01:01:51.714,,223,166,705
01:01:51.752,,175,194,724
01:01:51.789,,230,484,870
01:01:51.826,,351,505,893
01:01:51.863,,229,354,967
01:01:51.900,,343,784,1145
01:01:51.937,,278,787,1175
01:01:51.974,,332,683,1147
01:01:52.011,,276,387,951
01:01:52.048,,154,233,788
01:01:52.085,,-7,285,697
01:01:52.122,,-141,284,640
01:01:52.160,,-220,254,655
01:01:52.197,,-318,296,706
01:01:52.234,,-330,347,792
01:01:52.271,,-191,602,965
01:01:52.308,,-40,659,1031
01:01:52.345,,-69,418,1102
01:01:52.382,,1,691,1238
01:01:52.419,,-86,804,1192
01:01:52.456,,12,791,1143
01:01:52.493,,157,524,978
01:01:52.530,,199,269,763
01:01:52.568,,214,275,701
01:01:52.605,,198,312,667
01:01:52.642,,182,240,623
01:01:52.679,,197,212,653
01:01:52.716,,255,369,806
01:01:52.753,,496,618,976
01:01:52.790,,553,82,899
01:01:52.827,,635,608,1183
01:01:52.864,,525,457,1073
01:01:52.901,,307,170,858
01:01:52.939,,56,366,800
01:01:52.976,,-139,452,787
01:01:53.013,,-211,239,733
01:01:53.050,,-182,198,692
01:01:53.087,,-123,288,716
01:01:53.124,,-220,199,630
01:01:53.161,,-433,249,678
01:01:53.198,,-415,597,915
01:01:53.235,,-598,601,1098
01:01:53.272,,-224,1155,1324
01:01:53.309,,-244,782,1202
01:01:53.347,,-208,990,1248
01:01:53.384,,23,1040,1220
01:01:53.421,,178,460,932
01:01:53.458,,184,138,719
01:01:53.495,,156,164,672
01:01:53.532,,123,200,622
01:01:53.569,,146,157,684
01:01:53.606,,84,221,824
01:01:53.643,,116,523,1075
01:01:53.680,,253,436,1105
01:01:53.718,,369,153,1053
01:01:53.755,,331,437,1140
01:01:53.792,,163,505,1085
01:01:53.829,,160,414,1079
01:01:53.866,,186,422,1030
01:01:53.903,,66,291,859
01:01:53.940,,-54,137,762
01:01:53.977,,-104,132,733
01:01:54.014,,-126,118,699
01:01:54.051,,-163,101,736
01:01:54.088,,-156,255,879
01:01:54.126,,-75,350,996
01:01:54.163,,-11,230,1024
01:01:54.200,,-25,102,1044
01:01:54.237,,-224,114,1034
01:01:54.274,,-216,345,1182
01:01:54.311,,-117,460,1143
01:01:54.348,,-225,291,986
01:01:54.385,,-243,648,1073
01:01:54.422,,-76,710,1105
01:01:54.459,,98,313,933
01:01:54.497,,150,150,853
01:01:54.534,,124,180,816
01:01:54.571,,79,191,780
01:01:54.608,,49,210,787
01:01:54.645,,67,307,872
01:01:54.682,,139,318,932
01:01:54.719,,163,116,860
01:01:54.756,,4,187,984
01:01:54.793,,174,495,1130
01:01:54.830,,70,196,1091
01:01:54.868,,20,236,1060
01:01:54.905,,-110,247,1109
01:01:54.942,,-97,224,1083
01:01:54.979,,-90,119,981
01:01:55.016,,-118,12,859
01:01:55.053,,-107,29,803
01:01:55.090,,-84,52,810
01:01:55.127,,-34,49,844
01:01:55.164,,27,19,880
01:01:55.201,,39,-57,913
01:01:55.238,,-11,-117,969
01:01:55.276,,-24,-142,1017
01:01:55.313,,24,-238,993
01:01:55.350,,-154,-246,1007
01:01:55.387,,-190,88,1153
01:01:55.424,,-245,330,1254
01:01:55.461,,-192,504,1327
01:01:55.498,,72,643,1397
01:01:55.535,,324,505,1275
01:01:55.572,,405,50,979
01:01:55.609,,341,-114,770
01:01:55.647,,284,-30,698
01:01:55.684,,189,75,703
01:01:55.721,,202,181,848
01:01:55.758,,383,189,962
01:01:55.795,,371,-18,1092
01:01:55.832,,378,314,1247
01:01:55.869,,355,515,1366
01:01:55.906,,372,249,1209
01:01:55.943,,288,164,1015
01:01:55.980,,93,71,863
01:01:56.018,,-79,48,774
01:01:56.055,,-194,73,754
01:01:56.092,,-227,60,770
01:01:56.129,,-274,101,818
01:01:56.166,,-304,134,883
01:01:56.203,,-226,254,1010
01:01:56.240,,-58,328,1084
01:01:56.277,,-17,185,1086
01:01:56.314,,-108,276,1130
01:01:56.351,,-69,546,1234
01:01:56.389,,64,586,1192
01:01:56.426,,180,284,1044
01:01:56.463,,205,236,922
01:01:56.500,,232,162,823
01:01:56.537,,225,68,744
01:01:56.574,,206,34,718
01:01:56.611,,214,22,733
01:01:56.648,,273,22,749
01:01:56.685,,261,8,738
01:01:56.722,,233,108,832
01:01:56.760,,339,237,950
01:01:56.797,,340,199,1031
01:01:56.834,,301,355,1273
01:01:56.871,,423,545,1382
01:01:56.908,,325,486,1301
01:01:56.945,,59,444,1207
01:01:56.982,,-11,451,1143
01:01:57.019,,-27,235,956
01:01:57.056,,-20,149,773
01:01:57.093,,-62,180,655
01:01:57.130,,-86,255,651
01:01:57.168,,-121,260,679
01:01:57.205,,-177,315,795
01:01:57.242,,-66,556,1063
01:01:57.279,,-72,572,1168
01:01:57.316,,72,460,1119
01:01:57.353,,-137,646,1183
01:01:57.390,,-124,720,1175
01:01:57.427,,97,570,1084
01:01:57.464,,226,327,937
01:01:57.501,,226,256,850
01:01:57.539,,199,220,801
01:01:57.576,,184,198,779
01:01:57.613,,198,185,784
01:01:57.650,,210,208,793
01:01:57.687,,185,283,840
01:01:57.724,,251,354,904
01:01:57.761,,214,322,906
01:01:57.798,,244,537,1093
01:01:57.835,,337,614,1159
01:01:57.872,,347,476,1102
01:01:57.910,,352,360,1027
01:01:57.947,,279,270,853
01:01:57.984,,191,178,673
01:01:58.021,,57,176,577
01:01:58.058,,-17,255,606
01:01:58.095,,-79,276,663
01:01:58.132,,-124,321,739
01:01:58.169,,-195,422,892
01:01:58.206,,-187,304,1019
01:01:58.243,,-168,181,1085
01:01:58.281,,-115,250,1176
01:01:58.318,,-47,195,1117
01:01:58.355,,-139,125,991
01:01:58.392,,-103,553,1105
01:01:58.429,,-238,658,1100
01:01:58.466,,-90,1047,1205
01:01:58.503,,88,977,1139
01:01:58.540,,311,873,994
01:01:58.577,,471,631,865
01:01:58.614,,460,287,682
01:01:58.651,,395,201,612
01:01:58.689,,380,307,629
01:01:58.726,,386,329,653
01:01:58.763,,468,310,764
01:01:58.800,,571,204,832
01:01:58.837,,577,121,873
01:01:58.874,,536,486,1114
01:01:58.911,,653,843,1354
01:01:58.948,,654,370,1083
01:01:58.985,,486,242,882
01:01:59.022,,276,364,779
01:01:59.059,,122,335,703
01:01:59.097,,38,179,654
01:01:59.134,,-49,149,654
01:01:59.171,,-186,208,730
01:01:59.208,,-279,308,850
01:01:59.245,,-298,280,945
01:01:59.282,,-200,352,1041
01:01:59.319,,-198,627,1305
01:01:59.356,,193,692,1312
01:01:59.393,,59,163,1148
01:01:59.430,,-6,598,1184
01:01:59.468,,78,680,1177
01:01:59.505,,283,394,986
01:01:59.542,,357,234,844
01:01:59.579,,312,168,701
01:01:59.616,,208,114,594
01:01:59.653,,147,119,632
01:01:59.690,,156,110,728
01:01:59.727,,170,107,747
01:01:59.764,,162,124,768
01:01:59.801,,148,56,753
01:01:59.838,,222,-16,747
01:01:59.876,,134,-117,675
01:01:59.913,,-43,158,968
01:01:59.950,,-44,712,1472
01:01:59.987,,287,1135,1734
01:02:00.024,,380,856,1462
01:02:00.061,,246,413,1113
01:02:00.098,,82,203,897
01:02:00.135,,-22,149,802
01:02:00.172,,-122,75,709
01:02:00.209,,-217,171,700
01:02:00.246,,-290,317,781
01:02:00.284,,-308,388,880
01:02:00.321,,-208,463,989
01:02:00.358,,-200,460,1047
01:02:00.395,,-18,642,1253
01:02:00.432,,-60,507,1151
01:02:00.469,,-77,624,1105
01:02:00.506,,-52,678,1078
01:02:00.543,,77,532,961
01:02:00.580,,163,382,864
01:02:00.617,,178,281,784
01:02:00.655,,172,243,740
01:02:00.692,,179,208,723
01:02:00.729,,191,189,724
01:02:00.766,,190,248,775
01:02:00.803,,225,359,890
01:02:00.840,,326,357,953
01:02:00.877,,297,274,968
01:02:00.914,,304,509,1155
01:02:00.951,,324,616,1164
01:02:00.988,,308,520,1053
01:02:01.025,,252,427,908
01:02:01.063,,188,399,781
01:02:01.100,,140,370,710
01:02:01.137,,70,269,656
01:02:01.174,,47,280,698
01:02:01.211,,17,274,767
01:02:01.248,,28,262,842
01:02:01.285,,74,242,895
01:02:01.322,,94,174,880
01:02:01.359,,45,46,872
01:02:01.396,,-46,-60,948
01:02:01.433,,-55,-156,993
01:02:01.471,,-24,-225,961
01:02:01.508,,-116,-90,901
01:02:01.545,,-590,234,1060
01:02:01.582,,-396,1132,1503
01:02:01.619,,-220,1007,1490
01:02:01.656,,-43,1105,1514
01:02:01.693,,159,1093,1407
01:02:01.730,,392,447,1029
01:02:01.767,,502,148,750
01:02:01.804,,539,168,624
01:02:01.842,,543,32,475
01:02:01.879,,485,44,486
01:02:01.916,,588,270,618
01:02:01.953,,726,81,680
01:02:01.990,,819,217,1069
01:02:02.027,,988,589,1266
01:02:02.064,,825,583,1300
01:02:02.101,,571,439,961
01:02:02.138,,298,372,699
01:02:02.175,,-42,583,662
01:02:02.212,,-294,612,704
01:02:02.250,,-506,431,748
01:02:02.287,,-591,461,814
01:02:02.324,,-533,450,956
01:02:02.361,,-354,344,976
01:02:02.398,,-259,206,922
01:02:02.435,,-197,420,1078
01:02:02.472,,5,913,1353
01:02:02.509,,237,1044,1479
01:02:02.546,,389,476,1154
01:02:02.583,,359,384,978
01:02:02.620,,342,350,846
01:02:02.658,,328,231,697
01:02:02.695,,297,110,563
01:02:02.732,,272,126,583
01:02:02.769,,315,131,698
01:02:02.806,,447,182,840
01:02:02.843,,531,113,864
01:02:02.880,,475,136,965
01:02:02.917,,496,515,1140
01:02:02.954,,494,831,1210
01:02:02.991,,361,471,980
01:02:03.028,,237,363,817
01:02:03.066,,90,421,771
01:02:03.103,,-71,358,750
01:02:03.140,,-141,279,793
01:02:03.177,,-168,275,856
01:02:03.214,,-265,353,946
01:02:03.251,,-301,381,1032
01:02:03.288,,-286,411,1093
01:02:03.325,,-296,399,1101
01:02:03.362,,-166,648,1269
01:02:03.399,,-134,722,1142
01:02:03.436,,-66,840,1118
01:02:03.474,,143,647,952
01:02:03.511,,258,287,717
01:02:03.548,,268,166,625
01:02:03.585,,226,156,611
01:02:03.622,,202,138,618
01:02:03.659,,234,109,668
01:02:03.696,,305,116,732
01:02:03.733,,383,187,864
01:02:03.770,,493,174,924
01:02:03.807,,443,116,971
01:02:03.844,,481,515,1161
01:02:03.882,,414,635,1241
01:02:03.919,,453,515,1147
01:02:03.956,,374,373,972
01:02:03.993,,234,190,757
01:02:04.030,,69,195,639
01:02:04.067,,-55,283,666
01:02:04.104,,-101,258,716
01:02:04.141,,-98,350,837
01:02:04.178,,-15,485,1052
01:02:04.215,,21,407,1088
01:02:04.252,,-7,336,1132
01:02:04.290,,-75,370,1160
01:02:04.327,,-141,432,1157
01:02:04.364,,-185,528,1168
01:02:04.401,,-148,670,1163
01:02:04.438,,-36,699,1151
01:02:04.475,,180,655,1057
01:02:04.512,,270,297,797
01:02:04.549,,226,76,655
01:02:04.586,,170,124,677
01:02:04.623,,144,130,708
01:02:04.661,,171,66,725
01:02:04.698,,236,117,758
01:02:04.735,,259,267,867
01:02:04.772,,318,314,964
01:02:04.809,,206,161,912
01:02:04.846,,327,472,1028
01:02:04.883,,256,632,1075
01:02:04.920,,271,729,1073
01:02:04.957,,209,512,939
01:02:04.994,,128,449,876
01:02:05.031,,27,338,751
01:02:05.069,,-128,261,694
01:02:05.106,,-264,329,749
01:02:05.143,,-319,459,869
01:02:05.180,,-304,497,966
01:02:05.217,,-316,482,1004
01:02:05.254,,-281,571,1083
01:02:05.291,,-320,579,1106
01:02:05.328,,-153,925,1200
01:02:05.365,,-155,584,906
01:02:05.402,,-254,681,893
01:02:05.439,,-202,833,898
01:02:05.477,,-23,570,704
01:02:05.514,,53,327,590
01:02:05.551,,90,328,592
01:02:05.588,,91,306,589
01:02:05.625,,105,247,637
01:02:05.662,,136,349,794
01:02:05.699,,218,465,951
01:02:05.736,,351,527,1041
01:02:05.773,,406,426,1035
01:02:05.810,,346,612,1160
01:02:05.847,,284,546,1003
01:02:05.885,,183,589,1037
01:02:05.922,,257,615,1052
01:02:05.959,,247,392,899
01:02:05.996,,116,135,770
01:02:06.033,,-27,218,751
01:02:06.070,,-71,235,769
01:02:06.107,,-46,154,768
01:02:06.144,,-28,159,807
01:02:06.181,,-44,208,893
01:02:06.218,,-58,192,975
01:02:06.255,,-121,302,1082
01:02:06.293,,-30,634,1433
01:02:06.330,,144,331,1199
01:02:06.367,,-58,304,1158
01:02:06.404,,-166,375,1110
01:02:06.441,,-142,256,981
01:02:06.478,,-13,202,856
01:02:06.515,,50,187,796
01:02:06.552,,65,151,723
01:02:06.589,,73,137,737
01:02:06.626,,116,131,791
01:02:06.663,,189,179,861
01:02:06.701,,228,243,962
01:02:06.738,,332,259,1046
01:02:06.775,,303,114,1027
01:02:06.812,,430,365,1229
01:02:06.849,,406,528,1253
01:02:06.886,,383,475,1134
01:02:06.923,,322,456,973
01:02:06.960,,205,268,740
01:02:06.997,,62,159,622
01:02:07.034,,-67,175,653
01:02:07.071,,-151,144,727
01:02:07.109,,-163,183,882
01:02:07.146,,-165,289,1041
01:02:07.183,,-133,229,1163
01:02:07.220,,-51,212,1266
01:02:07.257,,2,103,1184
01:02:07.294,,-73,148,1260
01:02:07.331,,-35,227,1201
01:02:07.368,,-59,373,1183
01:02:07.405,,-31,365,1122
01:02:07.442,,62,338,1021
01:02:07.479,,143,193,838
01:02:07.517,,131,58,723
01:02:07.554,,111,48,735
01:02:07.591,,134,26,793
01:02:07.628,,202,-14,872
01:02:07.665,,296,33,943
01:02:07.702,,357,58,996
01:02:07.739,,430,35,989
01:02:07.776,,360,0,957
01:02:07.813,,359,144,963
01:02:07.850,,297,194,1027
01:02:07.888,,383,388,1137
01:02:07.925,,486,291,1094
01:02:07.962,,418,83,854
01:02:07.999,,191,77,766
01:02:08.036,,8,128,802
01:02:08.073,,-65,56,795
01:02:08.110,,-46,68,848
01:02:08.147,,-21,144,953
01:02:08.184,,-8,181,1045
01:02:08.221,,6,168,1128
01:02:08.258,,50,112,1170
01:02:08.296,,-96,93,1193
01:02:08.333,,-22,259,1243
01:02:08.370,,-122,238,1179
01:02:08.407,,-127,406,1161
01:02:08.444,,-7,433,1127
01:02:08.481,,146,268,933
01:02:08.518,,149,77,744
01:02:08.555,,123,49,706
01:02:08.592,,124,29,735
01:02:08.629,,145,-16,766
01:02:08.667,,184,54,864
01:02:08.704,,218,148,979
01:02:08.741,,298,197,1105
01:02:08.778,,363,109,1067
01:02:08.815,,335,319,1200
01:02:08.852,,432,366,1120
01:02:08.889,,303,431,1041
01:02:08.926,,337,461,998
01:02:08.963,,367,365,830
01:02:09.000,,294,217,660
01:02:09.037,,141,205,627
01:02:09.074,,-11,276,713
01:02:09.112,,-107,259,802
01:02:09.149,,-111,340,956
01:02:09.186,,-71,413,1090
01:02:09.223,,-81,282,1141
01:02:09.260,,-94,304,1227
01:02:09.297,,-293,276,1224
01:02:09.334,,-6,594,1320
01:02:09.371,,-90,398,1141
01:02:09.408,,-81,545,1088
01:02:09.445,,-27,486,978
01:02:09.483,,30,258,771
01:02:09.520,,51,171,687
01:02:09.557,,82,195,688
01:02:09.594,,101,150,678
01:02:09.631,,123,103,744
01:02:09.668,,152,184,858
01:02:09.705,,179,293,987
01:02:09.742,,273,339,1105
01:02:09.779,,370,143,1011
01:02:09.816,,211,307,1093
01:02:09.853,,294,556,1174
01:02:09.891,,277,609,1163
01:02:09.928,,343,429,1017
01:02:09.965,,308,309,846
01:02:10.002,,209,164,676
01:02:10.039,,62,157,610
01:02:10.076,,-109,218,676
01:02:10.113,,-196,228,787
01:02:10.150,,-154,296,911
01:02:10.187,,-69,337,1031
01:02:10.224,,-56,330,1132
01:02:10.261,,-37,330,1170
01:02:10.299,,-255,397,1198
01:02:10.336,,-41,676,1269
01:02:10.373,,-125,368,1013
01:02:10.410,,-197,590,1010
01:02:10.447,,-105,627,991
01:02:10.484,,40,364,798
01:02:10.521,,56,236,686
01:02:10.558,,10,248,685
01:02:10.595,,7,260,693
01:02:10.632,,31,182,707
01:02:10.670,,91,227,794
01:02:10.707,,129,340,955
01:02:10.744,,199,372,1067
01:02:10.781,,290,185,1018
01:02:10.818,,189,420,1196
01:02:10.855,,302,492,1171
01:02:10.892,,181,594,1105
01:02:10.929,,229,660,1068
01:02:10.966,,223,486,894
01:02:11.003,,137,377,697
01:02:11.040,,-25,282,584
01:02:11.078,,-151,246,649
01:02:11.115,,-177,275,712
01:02:11.152,,-170,297,804
01:02:11.189,,-145,364,960
01:02:11.226,,-128,372,1072
01:02:11.263,,-140,346,1127
01:02:11.300,,-123,368,1154
01:02:11.337,,-258,379,1223
01:02:11.374,,-69,461,1205
01:02:11.411,,-175,287,1008
01:02:11.449,,-209,438,1073
01:02:11.486,,-100,385,1028
01:02:11.523,,20,223,853
01:02:11.560,,47,133,784
01:02:11.597,,7,67,737
01:02:11.634,,-6,25,748
01:02:11.671,,-6,49,859
01:02:11.708,,37,61,907
01:02:11.745,,71,100,988
01:02:11.782,,173,172,1133
01:02:11.820,,159,28,1050
01:02:11.857,,215,250,1271
01:02:11.894,,128,242,1204
01:02:11.931,,135,271,1228
01:02:11.968,,193,255,1147
01:02:12.005,,186,110,932
01:02:12.042,,66,-19,797
01:02:12.079,,-17,-39,722
01:02:12.116,,-87,-94,703
01:02:12.153,,-138,-13,797
01:02:12.190,,-163,39,913
01:02:12.228,,-162,76,1010
01:02:12.265,,-170,97,1107
01:02:12.302,,-131,81,1161
01:02:12.339,,-252,116,1215
01:02:12.376,,-100,201,1247
01:02:12.413,,-191,39,1040
01:02:12.450,,-279,144,1068
01:02:12.487,,-199,189,1043
01:02:12.524,,-54,179,962
01:02:12.562,,-24,66,844
01:02:12.599,,-17,16,774
01:02:12.636,,-4,-7,794
01:02:12.673,,36,17,882
01:02:12.710,,87,31,943
01:02:12.747,,52,41,1004
01:02:12.784,,95,119,1136
01:02:12.821,,130,11,1085
01:02:12.858,,108,192,1207
01:02:12.895,,161,289,1212
01:02:12.933,,100,375,1199
01:02:12.970,,140,336,1133
01:02:13.007,,159,234,976
01:02:13.044,,85,67,799
01:02:13.081,,-15,37,737
01:02:13.118,,-79,12,712
01:02:13.155,,-121,28,791
01:02:13.192,,-123,122,916
01:02:13.229,,-116,180,1040
01:02:13.266,,-145,156,1134
01:02:13.304,,-123,105,1176
01:02:13.341,,-221,48,1112
01:02:13.378,,-231,177,1209
01:02:13.415,,-199,178,1116
01:02:13.452,,-299,338,1134
01:02:13.489,,-255,402,1142
01:02:13.526,,-67,313,986
01:02:13.563,,-20,116,797
01:02:13.600,,-24,52,704
01:02:13.637,,-33,18,692
01:02:13.675,,-27,29,777
01:02:13.712,,36,137,938
01:02:13.749,,90,159,1009
01:02:13.786,,106,215,1113
01:02:13.823,,191,158,1116
01:02:13.860,,20,53,1068
01:02:13.897,,113,254,1179
01:02:13.934,,59,360,1208
01:02:13.971,,115,440,1255
01:02:14.008,,93,78,857
01:02:14.045,,-26,-43,729
01:02:14.083,,-97,-31,697
01:02:14.120,,-136,-30,741
01:02:14.157,,-133,78,871
01:02:14.194,,-93,203,1011
01:02:14.231,,-93,182,1060
01:02:14.268,,-116,198,1141
01:02:14.305,,-221,243,1268
01:02:14.342,,-52,339,1319
01:02:14.379,,-78,178,1091
01:02:14.416,,-219,195,998
01:02:14.454,,-250,261,963
01:02:14.491,,-173,240,860
01:02:14.528,,-131,208,825
01:02:14.565,,-77,191,802
01:02:14.602,,-55,113,765
01:02:14.639,,-54,92,814
01:02:14.676,,-2,120,900
01:02:14.713,,59,149,982
01:02:14.750,,54,187,1085
01:02:14.787,,153,227,1194
01:02:14.825,,160,61,1091
01:02:14.862,,124,141,1256
01:02:14.899,,195,402,1251
01:02:14.936,,158,383,1151
01:02:14.973,,162,369,1060
01:02:15.010,,120,195,867
01:02:15.047,,62,68,733
01:02:15.084,,-14,33,707
01:02:15.121,,-77,20,727
01:02:15.158,,-110,23,819
01:02:15.195,,-102,110,934
01:02:15.233,,-93,161,1024
01:02:15.270,,-101,183,1121
01:02:15.307,,-82,153,1127
01:02:15.344,,-239,211,1228
01:02:15.381,,-49,338,1264
01:02:15.418,,-134,72,1007
01:02:15.455,,-267,297,1056
01:02:15.492,,-208,340,1044
01:02:15.529,,-47,226,890
01:02:15.567,,-28,145,817
01:02:15.604,,-36,109,759
01:02:15.641,,-43,61,746
01:02:15.678,,-17,94,845
01:02:15.715,,57,164,956
01:02:15.752,,90,149,1000
01:02:15.789,,98,242,1138
01:02:15.826,,122,201,1176
01:02:15.863,,208,340,1325
01:02:15.900,,292,358,1197
01:02:15.937,,144,313,1052
01:02:15.975,,136,365,1038
01:02:16.012,,172,260,926
01:02:16.049,,129,186,819
01:02:16.086,,-3,139,753
01:02:16.123,,-90,149,717
01:02:16.160,,-127,138,728
01:02:16.197,,-114,180,837
01:02:16.234,,-59,264,949
01:02:16.271,,-103,203,978
01:02:16.308,,-242,220,1123
01:02:16.345,,-324,258,1260
01:02:16.383,,-285,309,1362
01:02:16.420,,-99,323,1279
01:02:16.457,,12,298,1080
01:02:16.494,,-20,142,811
01:02:16.531,,-16,236,788
01:02:16.568,,10,232,742
01:02:16.605,,-7,148,747
01:02:16.642,,-43,163,820
01:02:16.679,,-29,132,922
01:02:16.716,,10,113,990
01:02:16.754,,38,94,1016
01:02:16.791,,45,42,996
01:02:16.828,,51,92,1064
01:02:16.865,,153,131,1113
01:02:16.902,,156,177,1186
01:02:16.939,,341,543,1331
01:02:16.976,,278,376,1130
01:02:17.013,,230,417,1093
01:02:17.050,,297,384,963
01:02:17.087,,281,209,754
01:02:17.125,,169,171,639
01:02:17.162,,86,158,551
01:02:17.199,,20,224,548
01:02:17.236,,-39,264,680
01:02:17.273,,-42,356,865
01:02:17.310,,-31,314,991
01:02:17.347,,-134,305,1097
01:02:17.384,,-214,391,1267
01:02:17.421,,-225,368,1275
01:02:17.458,,-310,439,1333
01:02:17.495,,-151,653,1344
01:02:17.533,,-193,374,993
01:02:17.570,,-269,490,925
01:02:17.607,,-208,566,862
01:02:17.644,,-106,414,703
01:02:17.681,,-78,354,675
01:02:17.718,,-30,321,677
01:02:17.755,,0,211,667
01:02:17.792,,28,218,758
01:02:17.829,,88,251,876
01:02:17.867,,159,266,974
01:02:17.904,,220,313,1122
01:02:17.941,,343,311,1160
01:02:17.978,,266,186,1087
01:02:18.015,,293,409,1178
01:02:18.052,,290,356,1039
01:02:18.089,,255,463,1021
01:02:18.126,,280,427,957
01:02:18.163,,248,303,831
01:02:18.200,,145,178,724
01:02:18.237,,25,179,688
01:02:18.275,,-65,206,719
01:02:18.312,,-110,211,803
01:02:18.349,,-71,267,911
01:02:18.386,,-17,293,991
01:02:18.423,,-57,319,1065
01:02:18.460,,-85,377,1149
01:02:18.497,,-175,465,1254
01:02:18.534,,-42,630,1330
01:02:18.571,,-48,370,1036
01:02:18.608,,-183,410,936
01:02:18.646,,-202,504,890
01:02:18.683,,-136,412,793
01:02:18.720,,-90,362,772
01:02:18.757,,-71,316,767
01:02:18.794,,-55,220,723
01:02:18.831,,-70,174,766
01:02:18.868,,-38,213,863
01:02:18.905,,34,200,932
01:02:18.942,,91,195,986
01:02:18.979,,121,267,1070
01:02:19.016,,161,277,1080
01:02:19.054,,85,310,1141
01:02:19.091,,224,497,1232
01:02:19.128,,290,397,1032
01:02:19.165,,151,445,941
01:02:19.202,,128,495,926
01:02:19.239,,152,343,815
01:02:19.276,,109,302,772
01:02:19.313,,-19,227,745
01:02:19.350,,-75,235,780
01:02:19.387,,-75,178,816
01:02:19.425,,-46,208,899
01:02:19.462,,-2,265,1007
01:02:19.499,,27,247,1018
01:02:19.536,,-30,260,1062
01:02:19.573,,-79,295,1083
01:02:19.610,,-216,302,1081
01:02:19.647,,-153,600,1266
01:02:19.684,,-82,435,1058
01:02:19.721,,-213,400,929
01:02:19.758,,-266,596,952
01:02:19.796,,-162,480,835
01:02:19.833,,-93,373,762
01:02:19.870,,-75,358,752
01:02:19.907,,-64,242,705
01:02:19.944,,-74,185,754
01:02:19.981,,-50,183,833
01:02:20.018,,26,200,920
01:02:20.055,,58,227,979
01:02:20.092,,85,339,1114
01:02:20.129,,210,329,1128
01:02:20.166,,167,380,1207
01:02:20.203,,297,541,1195
01:02:20.241,,184,460,1048
01:02:20.278,,167,535,1038
01:02:20.315,,205,393,908
01:02:20.352,,170,238,768
01:02:20.389,,38,161,687
01:02:20.426,,-83,139,639
01:02:20.463,,-183,156,679
01:02:20.500,,-183,271,851
01:02:20.537,,-86,386,1001
01:02:20.574,,-44,235,1003
01:02:20.612,,-79,360,1137
01:02:20.649,,-89,274,1100
01:02:20.686,,-198,397,1220
01:02:20.723,,-31,562,1233
01:02:20.760,,-104,328,998
01:02:20.797,,-207,505,955
01:02:20.834,,-202,507,890
01:02:20.871,,-92,338,748
01:02:20.908,,-51,244,726
01:02:20.945,,-11,238,748
01:02:20.982,,20,146,768
01:02:21.020,,69,177,884
01:02:21.057,,169,227,955
01:02:21.094,,184,148,929
01:02:21.131,,133,287,1048
01:02:21.168,,197,260,1054
01:02:21.205,,193,383,1197
01:02:21.242,,327,580,1229
01:02:21.279,,235,441,1068
01:02:21.316,,197,514,1060
01:02:21.353,,191,388,927
01:02:21.391,,144,276,837
01:02:21.428,,42,205,807
01:02:21.465,,-21,129,766
01:02:21.502,,-64,107,788
01:02:21.539,,-82,111,860
01:02:21.576,,-34,149,940
01:02:21.613,,-12,164,983
01:02:21.650,,-77,157,1052
01:02:21.687,,-42,227,1144
01:02:21.724,,-106,185,1124
01:02:21.761,,-55,384,1272
01:02:21.799,,-42,263,1064
01:02:21.836,,-217,260,945
01:02:21.873,,-266,409,998
01:02:21.910,,-95,331,918
01:02:21.947,,15,248,848
01:02:21.984,,38,154,797
01:02:22.021,,29,36,747
01:02:22.058,,11,-40,803
01:02:22.095,,49,-29,913
01:02:22.132,,105,22,1008
01:02:22.170,,127,91,1109
01:02:22.207,,193,177,1174
01:02:22.244,,175,95,1098
01:02:22.281,,170,241,1269
01:02:22.318,,268,276,1181
01:02:22.355,,153,274,1067
01:02:22.392,,161,259,1037
01:02:22.429,,154,185,903
01:02:22.466,,75,113,825
01:02:22.503,,-5,47,767
01:02:22.541,,-38,-3,736
01:02:22.578,,-65,6,834
01:02:22.615,,-9,42,947
01:02:22.652,,26,42,1010
01:02:22.689,,-27,58,1082
01:02:22.726,,-76,85,1194
01:02:22.763,,-128,87,1208
01:02:22.800,,-180,189,1315
01:02:22.837,,-92,205,1242
01:02:22.874,,-220,140,1092
01:02:22.912,,-261,148,1056
01:02:22.949,,-174,180,963
01:02:22.986,,-112,109,863
01:02:23.023,,-82,20,772
01:02:23.060,,-31,-38,708
01:02:23.097,,3,-54,739
01:02:23.134,,18,-55,803
01:02:23.171,,66,-1,925
01:02:23.208,,113,21,1068
01:02:23.245,,245,76,1195
01:02:23.282,,219,-11,1198
01:02:23.320,,379,169,1313
01:02:23.357,,373,149,1179
01:02:23.394,,321,123,1091
01:02:23.431,,380,138,1017
01:02:23.468,,425,80,837
01:02:23.505,,350,11,741
01:02:23.542,,240,-31,726
01:02:23.579,,161,-51,725
01:02:23.616,,141,-40,822
01:02:23.653,,154,31,951
01:02:23.691,,171,53,1029
01:02:23.728,,126,15,1061
01:02:23.765,,95,-12,1108
01:02:23.802,,25,0,1133
01:02:23.839,,-12,120,1247
01:02:23.876,,72,244,1268
01:02:23.913,,-23,209,1094
01:02:23.950,,-117,317,1107
01:02:23.987,,-42,292,1014
01:02:24.024,,33,168,888
01:02:24.061,,39,58,809
01:02:24.099,,44,-33,758
01:02:24.136,,17,-83,768
01:02:24.173,,11,-63,857
01:02:24.210,,72,-26,949
01:02:24.247,,139,0,1001
01:02:24.284,,132,46,1063
01:02:24.321,,188,82,1116
