Sensors' Acquisition [Hz]: Acc@26.0 
hh:mm:ss.ms, Annotation , AccX [mg], AccY, AccZ
16:39:52.605,,302,899,-194
16:39:52.641,,177,844,-204
16:39:52.664,>Walk,,,
16:39:52.678,,80,744,-141
16:39:52.715,,-19,666,-107
16:39:52.751,,-64,690,-26
16:39:52.788,,-42,636,31
16:39:52.824,,-45,828,182
16:39:52.861,,130,516,513
16:39:52.898,,266,767,432
16:39:52.934,,220,848,831
16:39:52.971,,-180,993,861
16:39:53.008,,-432,1263,482
16:39:53.044,,-395,1159,317
16:39:53.081,,-200,1039,244
16:39:53.117,,-53,934,178
16:39:53.154,,45,783,131
16:39:53.276,,58,854,130
16:39:53.277,,58,854,130
16:39:53.277,,58,854,130
16:39:53.301,,28,763,300
16:39:53.337,,26,672,452
16:39:53.374,,-129,910,571
16:39:53.410,,-238,829,456
16:39:53.447,,-268,818,486
16:39:53.483,,-225,892,577
16:39:53.520,,-204,845,593
16:39:53.557,,-156,996,607
16:39:53.593,,-157,1002,757
16:39:53.630,,-101,895,901
16:39:53.666,,-115,1206,807
16:39:53.703,,-112,1068,654
16:39:53.739,,-160,844,486
16:39:53.775,,-166,790,342
16:39:53.811,,-259,745,356
16:39:53.847,,-354,806,333
16:39:53.931,,-322,584,622
16:39:53.931,,-322,584,622
16:39:53.955,,-339,520,727
16:39:53.991,,-399,583,676
16:39:54.027,,-446,603,682
16:39:54.064,,-446,641,701
16:39:54.101,,-536,705,668
16:39:54.137,,-517,516,656
16:39:54.174,,-480,458,718
16:39:54.211,,-418,795,674
16:39:54.247,,-397,885,638
16:39:54.284,,-396,851,580
16:39:54.321,,-376,1477,238
16:39:54.357,,-162,946,305
16:39:54.394,,-88,751,220
16:39:54.431,,120,701,420
16:39:54.468,,205,757,316
16:39:54.504,,285,1111,102
16:39:54.541,,156,947,-142
16:39:54.630,,-224,1107,-82
16:39:54.631,,-224,1107,-82
16:39:54.651,,-257,871,232
16:39:54.688,,-118,286,692
16:39:54.723,,-39,553,1079
16:39:54.758,,-279,371,1035
16:39:54.792,,-416,676,841
16:39:54.827,,-441,547,861
16:39:54.862,,-554,259,1009
16:39:54.896,,-439,726,487
16:39:54.932,,-265,1198,577
16:39:54.967,,-26,866,1046
16:39:55.002,,223,1367,944
16:39:55.037,,169,966,671
16:39:55.072,,229,413,706
16:39:55.107,,173,190,864
16:39:55.141,,-30,137,938
16:39:55.176,,-197,56,926
16:39:55.211,,-352,35,834
16:39:55.291,,-485,279,686
16:39:55.291,,-485,279,686
16:39:55.313,,-556,155,704
16:39:55.348,,-691,97,493
16:39:55.383,,-708,442,164
16:39:55.420,,-743,657,-55
16:39:55.457,,-609,1059,-407
16:39:55.493,,-486,1216,-605
16:39:55.530,,-445,1430,-508
16:39:55.567,,-335,1290,-575
16:39:55.604,,-176,1073,-637
16:39:55.640,,-146,1030,-693
16:39:55.677,,23,699,-433
16:39:55.714,,195,970,-421
16:39:55.751,,209,892,-353
16:39:55.787,,-437,758,-589
16:39:55.824,,-232,647,-245
16:39:55.861,,-92,513,-96
16:39:55.897,,6,357,282
16:39:55.985,,160,899,518
16:39:55.985,,160,899,518
16:39:56.007,,-48,988,663
16:39:56.044,,-46,1079,496
16:39:56.081,,-137,1205,298
16:39:56.117,,-130,1166,236
16:39:56.154,,-147,1535,-31
16:39:56.191,,-33,1373,-17
16:39:56.227,,-79,990,150
16:39:56.264,,-119,1149,32
16:39:56.301,,-135,996,34
16:39:56.337,,-121,854,99
16:39:56.374,,-69,875,120
16:39:56.411,,-44,777,157
16:39:56.447,,-11,870,160
16:39:56.484,,-22,848,117
16:39:56.521,,48,802,271
16:39:56.557,,127,922,520
16:39:56.594,,252,1123,527
16:39:56.682,,-14,1155,442
16:39:56.683,,-14,1155,442
16:39:56.704,,-407,941,-655
16:39:56.741,,-77,396,-243
16:39:56.778,,-83,679,295
16:39:56.814,,-39,883,117
16:39:56.851,,115,1161,-156
16:39:56.888,,63,998,-167
16:39:56.924,,13,984,-159
16:39:56.961,,-71,1043,-195
16:39:56.998,,-78,992,-110
16:39:57.035,,-60,943,-85
16:39:57.071,,-18,884,-76
16:39:57.108,,20,767,-86
16:39:57.145,,59,786,-80
16:39:57.182,,44,824,-137
16:39:57.219,,34,947,-162
16:39:57.255,,83,1111,-243
16:39:57.292,,153,1196,-320
16:39:57.378,,288,1078,-546
16:39:57.379,,288,1078,-546
16:39:57.403,,326,1108,-645
16:39:57.440,,258,1069,-695
16:39:57.476,,250,872,-674
16:39:57.513,,231,730,-513
16:39:57.550,,144,701,-588
16:39:57.587,,261,521,-490
16:39:57.624,,251,581,-485
16:39:57.661,,263,567,-446
16:39:57.698,,221,543,-434
16:39:57.735,,156,591,-422
16:39:57.771,,124,792,-379
16:39:57.808,,141,892,-426
16:39:57.845,,92,934,-460
16:39:57.882,,28,934,-405
16:39:57.919,,78,1072,-469
16:39:57.956,,207,1125,-537
16:39:57.992,,356,1006,-444
16:39:58.085,,466,771,-382
16:39:58.085,,466,771,-382
16:39:58.103,,466,771,-382
16:39:58.140,,386,680,-212
16:39:58.176,,373,659,-207
16:39:58.213,,394,602,-195
16:39:58.250,,332,627,-194
16:39:58.287,,218,703,-216
16:39:58.324,,103,718,-221
16:39:58.360,,24,792,-251
16:39:58.397,,3,874,-302
16:39:58.434,,27,941,-298
16:39:58.471,,65,935,-248
16:39:58.508,,97,954,-234
16:39:58.545,,139,998,-260
16:39:58.581,,185,1030,-330
16:39:58.618,,238,999,-324
16:39:58.655,,254,1013,-311
16:39:58.692,,233,1011,-331
16:39:58.729,,344,1245,-467
16:39:58.766,,527,1145,-440
16:39:58.803,,542,817,-268
16:39:58.839,,383,779,-281
16:39:58.876,,318,785,-373
16:39:58.913,,353,740,-394
16:39:58.950,,309,679,-325
16:39:58.987,,224,609,-269
16:39:59.024,,176,665,-293
16:39:59.060,,172,716,-303
16:39:59.097,,185,804,-255
16:39:59.134,,127,831,-259
16:39:59.171,,45,874,-315
16:39:59.208,,11,928,-340
16:39:59.244,,27,1017,-449
16:39:59.281,,95,996,-577
16:39:59.318,,219,997,-707
16:39:59.355,,305,948,-688
16:39:59.392,,381,809,-761
16:39:59.428,,298,677,-790
16:39:59.465,,333,572,-738
16:39:59.502,,387,504,-610
16:39:59.539,,358,439,-543
16:39:59.575,,343,448,-550
16:39:59.612,,294,599,-413
16:39:59.649,,211,575,-507
16:39:59.686,,118,848,-433
16:39:59.722,,196,1204,-77
16:39:59.759,,329,1373,32
16:39:59.795,,486,1351,-13
16:39:59.830,,334,1374,359
16:39:59.864,,37,1126,542
16:39:59.899,,-187,1328,391
16:39:59.934,,-424,1217,138
16:39:59.969,,-549,958,79
16:40:00.005,,-748,790,70
16:40:00.041,,-842,590,57
16:40:00.078,,-993,422,148
16:40:00.114,,-1120,409,86
16:40:00.151,,-1026,181,263
16:40:00.187,,-761,212,330
16:40:00.224,,-553,30,371
16:40:00.260,,-439,-24,277
16:40:00.296,,-452,-64,306
16:40:00.333,,-568,-78,319
16:40:00.369,,-687,25,404
16:40:00.406,,-820,83,645
16:40:00.442,,-1095,6,778
16:40:00.479,,-1161,192,959
16:40:00.515,,-898,-16,1004
16:40:00.551,,-893,-34,953
16:40:00.588,,-745,-65,760
16:40:00.624,,-702,-47,583
16:40:00.661,,-648,26,412
16:40:00.697,,-648,-21,312
16:40:00.734,,-678,-40,371
16:40:00.770,,-747,31,454
16:40:00.807,,-818,36,589
16:40:00.843,,-912,75,728
16:40:00.880,,-1002,114,776
16:40:00.916,,-1066,47,806
16:40:00.953,,-1150,110,800
16:40:00.989,,-1193,222,688
16:40:01.025,,-1153,288,579
16:40:01.062,,-1086,268,393
16:40:01.098,,-995,285,326
16:40:01.135,,-824,349,413
16:40:01.171,,-683,142,364
16:40:01.207,,-639,77,374
16:40:01.244,,-697,127,385
16:40:01.280,,-784,159,401
16:40:01.316,,-876,229,486
16:40:01.353,,-969,210,551
16:40:01.389,,-1043,132,527
16:40:01.426,,-1128,137,521
16:40:01.463,,-1154,123,569
16:40:01.499,,-1095,98,651
16:40:01.536,,-1121,126,763
16:40:01.573,,-988,157,751
16:40:01.610,,-793,143,622
16:40:01.646,,-657,198,548
16:40:01.683,,-653,137,522
16:40:01.720,,-660,59,528
16:40:01.756,,-687,16,541
16:40:01.793,,-691,-150,500
16:40:01.830,,-775,-99,480
16:40:01.867,,-820,-123,446
16:40:01.903,,-765,-275,448
16:40:01.940,,-736,-281,512
16:40:01.977,,-805,-280,534
16:40:02.014,,-893,-225,559
16:40:02.050,,-966,-259,631
16:40:02.087,,-998,-270,646
16:40:02.124,,-998,-343,617
16:40:02.161,,-997,-252,528
16:40:02.197,,-1073,-145,346
16:40:02.234,,-1046,-184,263
16:40:02.271,,-986,-124,267
16:40:02.307,,-887,-111,181
16:40:02.344,,-823,-78,87
16:40:02.381,,-802,-21,35
16:40:02.418,,-761,26,79
16:40:02.454,,-669,130,152
16:40:02.491,,-658,206,207
16:40:02.528,,-593,350,287
16:40:02.564,,-589,372,400
16:40:02.601,,-505,609,594
16:40:02.638,,-363,758,711
16:40:02.675,,-189,792,797
16:40:02.712,,26,737,734
16:40:02.748,,261,702,745
16:40:02.785,,411,819,693
16:40:02.822,,601,520,493
16:40:02.859,,781,299,377
16:40:02.896,,1090,315,381
16:40:02.933,,1361,385,323
16:40:02.969,,1569,402,132
16:40:03.006,,1571,495,30
16:40:03.043,,1332,544,81
16:40:03.080,,1154,505,88
16:40:03.117,,1068,585,50
16:40:03.154,,983,650,17
16:40:03.191,,904,595,43
16:40:03.228,,832,486,116
16:40:03.264,,828,502,182
16:40:03.301,,881,547,277
16:40:03.338,,1145,504,270
16:40:03.375,,1028,527,314
16:40:03.412,,1132,610,394
16:40:03.449,,1104,637,386
16:40:03.486,,994,528,298
16:40:03.523,,938,462,254
16:40:03.560,,1092,427,216
16:40:03.597,,1213,362,161
16:40:03.633,,1196,348,100
16:40:03.670,,1101,277,-27
16:40:03.707,,1008,396,-41
16:40:03.744,,862,499,-198
16:40:03.781,,748,460,-267
16:40:03.818,,621,451,-331
16:40:03.855,,497,98,-309
16:40:03.892,,750,266,-313
16:40:03.928,,1047,776,-187
16:40:03.965,,1236,1007,-13
16:40:04.002,,1263,1047,68
16:40:04.039,,1127,1016,202
16:40:04.076,,964,460,301
16:40:04.113,,755,331,355
16:40:04.150,,573,356,277
16:40:04.187,,588,314,81
16:40:04.224,,589,173,-59
16:40:04.260,,595,313,-116
16:40:04.297,,489,426,-20
16:40:04.334,,460,826,-94
16:40:04.371,,533,517,-94
16:40:04.408,,637,685,-28
16:40:04.445,,650,726,165
16:40:04.482,,615,916,182
16:40:04.519,,589,829,72
16:40:04.556,,591,843,272
16:40:04.593,,545,782,247
16:40:04.630,,675,656,-35
16:40:04.667,,635,1346,-289
16:40:04.704,,638,1085,-349
16:40:04.741,,666,568,-512
16:40:04.777,,507,468,-536
16:40:04.814,,312,800,-300
16:40:04.851,,400,667,-441
16:40:04.888,,349,800,-514
16:40:04.925,,288,571,-602
16:40:04.962,,304,590,-647
16:40:04.999,,294,621,-624
16:40:05.036,,341,570,-575
16:40:05.073,,458,518,-537
16:40:05.110,,501,559,-508
16:40:05.147,,572,562,-544
16:40:05.183,,618,555,-608
16:40:05.220,,668,645,-700
16:40:05.257,,658,909,-793
16:40:05.294,,662,755,-803
16:40:05.331,,735,663,-790
16:40:05.368,,744,203,-544
16:40:05.405,,631,189,-604
16:40:05.442,,298,226,-730
16:40:05.479,,189,74,-895
16:40:05.516,,211,631,-854
16:40:05.553,,193,544,-919
16:40:05.589,,298,-93,-676
16:40:05.626,,243,177,-623
16:40:05.663,,160,462,-646
16:40:05.700,,327,858,-527
16:40:05.737,,570,710,-232
16:40:05.774,,696,448,-67
16:40:05.811,,812,604,-91
16:40:05.848,,783,972,-322
16:40:05.885,,896,37,-213
16:40:05.922,,940,83,-239
16:40:05.959,,820,558,-406
16:40:05.996,,1127,-183,-421
16:40:06.033,,1678,625,-472
16:40:06.070,,1233,184,-594
16:40:06.107,,684,-198,-940
16:40:06.144,,751,54,-727
16:40:06.181,,978,771,-1084
16:40:06.217,,555,-478,205
16:40:06.254,,734,430,199
16:40:06.291,,1176,848,417
16:40:06.328,,1330,589,314
16:40:06.365,,1512,687,34
16:40:06.402,,1433,489,173
16:40:06.439,,1055,495,156
16:40:06.476,,744,1070,34
16:40:06.513,,593,1038,-68
16:40:06.550,,362,831,-33
16:40:06.587,,644,1027,179
16:40:06.623,,556,1431,-48
16:40:06.660,,607,870,1
16:40:06.697,,490,754,333
16:40:06.734,,561,831,650
16:40:06.771,,763,784,892
16:40:06.808,,825,363,924
16:40:06.845,,584,-119,896
16:40:06.882,,252,299,1088
16:40:06.918,,139,482,960
16:40:06.955,,155,607,677
16:40:06.992,,364,552,588
16:40:07.029,,655,776,145
16:40:07.066,,851,157,-132
16:40:07.103,,341,112,1
16:40:07.139,,-182,450,376
16:40:07.176,,-355,413,706
16:40:07.213,,-554,-114,884
16:40:07.250,,-331,-661,1672
16:40:07.287,,-689,-699,1293
16:40:07.323,,-1164,-463,-148
16:40:07.360,,-1293,-840,-243
16:40:07.397,,-669,-1794,256
16:40:07.434,,-158,-652,-84
16:40:07.471,,-347,334,-33
16:40:07.507,,-296,56,60
16:40:07.544,,-103,25,12
16:40:07.581,,-122,767,-23
16:40:07.618,,-463,1417,188
16:40:07.655,,-520,1309,417
16:40:07.692,,-137,1330,867
16:40:07.729,,-112,1606,561
16:40:07.766,,-198,1737,497
16:40:07.803,,-84,1373,218
16:40:07.839,,72,1075,213
16:40:07.876,,221,1069,161
16:40:07.913,,313,1194,2
16:40:07.950,,283,1148,-53
16:40:07.987,,319,750,-101
16:40:08.024,,435,701,-139
16:40:08.061,,318,825,-10
16:40:08.098,,231,461,-26
16:40:08.135,,221,549,-92
16:40:08.172,,122,435,-60
16:40:08.208,,37,440,-277
16:40:08.245,,-25,932,-543
16:40:08.282,,22,893,-581
16:40:08.319,,150,963,-619
16:40:08.356,,231,853,-600
16:40:08.393,,324,758,-730
16:40:08.430,,322,879,-806
16:40:08.467,,331,899,-883
16:40:08.504,,184,1295,-1197
16:40:08.541,,93,1064,-916
16:40:08.578,,15,980,-686
16:40:08.615,,-87,554,-596
16:40:08.652,,-144,352,-451
16:40:08.689,,-31,523,-447
16:40:08.725,,182,791,-402
16:40:08.762,,203,541,-296
16:40:08.799,,193,429,-225
16:40:08.836,,245,959,-336
16:40:08.873,,188,1215,-287
16:40:08.910,,185,892,-215
16:40:08.947,,241,1063,-143
16:40:08.984,,249,1349,-114
16:40:09.021,,278,1172,-67
16:40:09.058,,378,1184,-151
16:40:09.094,,411,1180,-262
16:40:09.131,,372,1192,-269
16:40:09.168,,372,1135,-54
16:40:09.205,,480,605,15
16:40:09.242,,509,762,-2
16:40:09.279,,238,723,-10
16:40:09.316,,311,110,90
16:40:09.352,,314,361,364
16:40:09.389,,143,898,259
16:40:09.426,,126,246,291
16:40:09.463,,281,107,404
16:40:09.500,,392,314,474
16:40:09.537,,531,541,744
16:40:09.574,,558,73,677
16:40:09.611,,831,907,929
16:40:09.648,,842,821,1110
16:40:09.685,,762,936,1085
16:40:09.721,,880,960,1161
16:40:09.758,,795,625,904
16:40:09.795,,589,230,693
16:40:09.832,,471,561,812
16:40:09.869,,454,809,771
16:40:09.906,,567,1224,697
16:40:09.943,,734,744,729
16:40:09.980,,675,660,734
16:40:10.017,,608,652,770
16:40:10.053,,510,531,731
16:40:10.090,,459,405,689
16:40:10.127,,434,304,668
16:40:10.164,,431,144,736
16:40:10.201,,470,190,913
16:40:10.238,,497,80,966
16:40:10.275,,530,-49,1032
16:40:10.311,,482,14,1089
16:40:10.348,,471,-104,1034
16:40:10.385,,420,-117,908
16:40:10.422,,362,-64,807
16:40:10.459,,359,-43,818
16:40:10.496,,325,-85,759
16:40:10.533,,279,-89,786
16:40:10.569,,254,-125,829
16:40:10.606,,221,-167,839
16:40:10.643,,181,-193,869
16:40:10.680,,134,-216,902
16:40:10.717,,104,-226,928
16:40:10.754,,71,-231,933
16:40:10.791,,65,-196,1035
16:40:10.828,,72,-193,1119
16:40:10.864,,59,-206,1148
16:40:10.901,,25,-159,1226
16:40:10.938,,73,-58,1316
16:40:10.975,,104,-49,1239
16:40:11.012,,59,-98,1067
16:40:11.049,,-39,60,957
16:40:11.086,,-58,199,966
16:40:11.122,,-5,38,922
16:40:11.159,,-9,71,908
16:40:11.196,,-74,138,921
16:40:11.233,,-104,125,947
16:40:11.270,,-121,284,870
16:40:11.307,,-171,647,840
16:40:11.344,,-141,575,836
16:40:11.381,,-129,384,852
16:40:11.417,,-139,519,886
16:40:11.454,,-152,613,885
16:40:11.491,,-116,626,899
16:40:11.528,,-73,543,875
16:40:11.565,,-67,464,834
16:40:11.602,,-26,532,765
16:40:11.639,,125,502,589
16:40:11.676,,196,282,371
16:40:11.713,,257,169,248
16:40:11.749,,434,189,199
16:40:11.786,,657,253,214
16:40:11.823,,843,331,254
16:40:11.860,,973,358,224
16:40:11.897,,1251,393,168
16:40:11.934,,1559,457,147
16:40:11.971,,1738,726,192
16:40:12.008,,1683,931,323
16:40:12.045,,1449,892,243
16:40:12.082,,1177,607,68
16:40:12.118,,1094,426,93
16:40:12.155,,1069,371,127
16:40:12.192,,1049,378,130
16:40:12.229,,968,549,158
16:40:12.266,,838,704,145
16:40:12.303,,771,745,151
16:40:12.340,,737,651,137
16:40:12.377,,907,601,104
16:40:12.414,,1088,549,101
16:40:12.451,,1163,452,73
16:40:12.488,,1192,396,73
16:40:12.525,,1200,359,68
16:40:12.561,,1212,363,62
16:40:12.598,,1182,350,62
16:40:12.635,,1087,298,36
16:40:12.672,,992,242,28
16:40:12.709,,975,388,65
16:40:12.746,,1079,732,237
16:40:12.783,,930,574,382
16:40:12.820,,736,533,355
16:40:12.857,,606,460,353
16:40:12.894,,483,486,414
16:40:12.931,,386,607,458
16:40:12.967,,406,509,346
16:40:13.004,,506,461,247
16:40:13.041,,518,383,198
16:40:13.078,,483,359,184
16:40:13.115,,451,322,186
16:40:13.152,,479,315,197
16:40:13.189,,560,340,212
16:40:13.226,,708,394,221
16:40:13.263,,917,412,262
16:40:13.300,,1075,406,317
16:40:13.336,,1225,426,320
16:40:13.373,,1338,407,295
16:40:13.410,,1439,449,320
16:40:13.447,,1364,481,326
16:40:13.484,,1424,553,345
16:40:13.521,,1215,656,380
16:40:13.558,,947,630,360
16:40:13.595,,700,510,294
16:40:13.632,,749,486,250
16:40:13.669,,1001,451,282
16:40:13.706,,1172,312,215
16:40:13.743,,1262,223,165
16:40:13.780,,1143,219,121
16:40:13.816,,960,292,97
16:40:13.853,,789,362,91
16:40:13.890,,702,412,77
16:40:13.927,,702,442,32
16:40:13.964,,778,396,-2
16:40:14.001,,863,367,-9
16:40:14.038,,927,371,37
16:40:14.075,,1022,386,107
16:40:14.112,,1121,411,122
16:40:14.148,,1003,429,185
16:40:14.185,,871,427,319
16:40:14.222,,764,400,384
16:40:14.259,,764,346,318
16:40:14.296,,791,317,284
16:40:14.333,,698,262,308
16:40:14.370,,675,299,334
16:40:14.407,,681,276,348
16:40:14.444,,716,433,429
16:40:14.481,,682,581,288
16:40:14.517,,640,767,14
16:40:14.554,,516,881,-349
16:40:14.591,,421,1386,-571
16:40:14.628,,448,1255,-592
16:40:14.665,,544,920,-520
16:40:14.702,,586,697,-608
16:40:14.739,,621,606,-785
16:40:14.776,,612,552,-805
16:40:14.813,,572,451,-751
16:40:14.850,,471,454,-671
16:40:14.887,,466,406,-711
16:40:14.924,,455,377,-768
16:40:14.961,,430,360,-742
16:40:14.998,,366,385,-758
16:40:15.035,,299,373,-723
16:40:15.072,,235,375,-706
16:40:15.109,,153,410,-739
16:40:15.145,,36,477,-755
16:40:15.182,,-10,558,-774
16:40:15.219,,44,634,-766
16:40:15.256,,98,671,-778
16:40:15.293,,140,716,-817
16:40:15.330,,105,702,-810
16:40:15.367,,86,628,-931
16:40:15.404,,16,596,-935
16:40:15.441,,-39,512,-909
16:40:15.478,,-84,485,-828
16:40:15.515,,1,505,-704
16:40:15.552,,89,509,-695
16:40:15.589,,88,535,-690
16:40:15.626,,-48,429,-725
16:40:15.663,,-179,337,-778
16:40:15.700,,-284,418,-756
16:40:15.736,,-313,629,-660
16:40:15.773,,-255,493,-595
16:40:15.810,,-240,347,-591
16:40:15.847,,-267,188,-731
16:40:15.884,,-208,424,-816
16:40:15.921,,-273,649,-770
16:40:15.958,,-265,488,-838
16:40:15.995,,-307,430,-858
16:40:16.032,,-261,471,-881
16:40:16.069,,-159,548,-1035
16:40:16.106,,-37,665,-1074
16:40:16.143,,-32,668,-938
16:40:16.180,,-19,634,-721
16:40:16.216,,-14,789,-587
16:40:16.253,,59,804,-356
16:40:16.290,,50,699,-143
16:40:16.327,,52,631,-46
16:40:16.364,,27,675,4
16:40:16.401,,78,778,80
16:40:16.438,,197,822,189
16:40:16.475,,321,925,213
16:40:16.512,,442,887,170
16:40:16.548,,594,759,115
16:40:16.585,,772,614,117
16:40:16.622,,1050,588,159
16:40:16.659,,1313,637,194
16:40:16.696,,1273,661,297
16:40:16.733,,1153,551,366
16:40:16.770,,1011,504,305
16:40:16.807,,1021,596,116
16:40:16.844,,1024,323,179
16:40:16.881,,887,98,250
16:40:16.917,,816,220,216
16:40:16.954,,737,261,139
16:40:16.991,,650,279,12
16:40:17.028,,570,381,-45
16:40:17.065,,525,424,19
16:40:17.102,,519,430,91
16:40:17.139,,483,486,225
16:40:17.176,,488,393,315
16:40:17.212,,631,377,346
16:40:17.249,,849,350,410
16:40:17.286,,1191,317,366
16:40:17.323,,1578,499,391
16:40:17.360,,1468,591,385
16:40:17.397,,956,515,297
16:40:17.434,,859,402,194
16:40:17.471,,939,378,168
16:40:17.508,,888,375,147
16:40:17.544,,781,348,160
16:40:17.581,,699,344,168
16:40:17.618,,697,397,130
16:40:17.655,,738,445,74
16:40:17.692,,801,474,61
16:40:17.729,,923,623,89
16:40:17.766,,1042,578,101
16:40:17.803,,1105,694,135
16:40:17.840,,1123,832,156
16:40:17.876,,1007,748,175
16:40:17.913,,893,704,146
16:40:17.950,,731,656,149
16:40:17.987,,612,581,211
16:40:18.024,,542,521,260
16:40:18.061,,560,483,251
16:40:18.098,,593,436,206
16:40:18.134,,526,397,185
16:40:18.171,,426,459,221
16:40:18.208,,367,578,274
16:40:18.245,,351,653,267
16:40:18.282,,330,705,282
16:40:18.319,,332,784,331
16:40:18.356,,347,842,304
16:40:18.393,,368,885,289
16:40:18.429,,371,891,313
16:40:18.466,,394,981,325
16:40:18.503,,432,993,313
16:40:18.540,,466,986,292
16:40:18.577,,527,1156,271
16:40:18.614,,584,1143,239
16:40:18.650,,519,887,226
16:40:18.687,,434,840,198
16:40:18.724,,447,833,182
16:40:18.761,,422,801,147
16:40:18.798,,372,748,147
16:40:18.835,,322,666,162
16:40:18.872,,293,714,193
16:40:18.908,,320,780,240
16:40:18.945,,340,796,247
16:40:18.982,,351,787,268
16:40:19.019,,367,833,293
16:40:19.056,,416,923,324
16:40:19.093,,487,983,379
16:40:19.130,,499,869,407
16:40:19.166,,584,962,371
16:40:19.203,,554,798,339
16:40:19.240,,447,581,345
16:40:19.277,,477,496,341
16:40:19.314,,620,408,290
16:40:19.351,,693,353,201
16:40:19.388,,683,334,184
16:40:19.424,,684,345,181
16:40:19.461,,755,380,160
16:40:19.498,,849,410,158
16:40:19.535,,850,461,188
16:40:19.572,,833,454,204
16:40:19.609,,914,444,185
16:40:19.646,,1049,463,196
16:40:19.682,,1162,478,217
16:40:19.719,,1087,436,218
16:40:19.756,,1049,408,201
16:40:19.793,,1200,604,293
16:40:19.830,,1104,689,297
16:40:19.867,,850,532,236
16:40:19.903,,937,556,295
16:40:19.940,,1042,457,306
16:40:19.977,,960,303,175
16:40:20.014,,818,208,112
16:40:20.051,,727,256,119
16:40:20.088,,716,361,120
16:40:20.124,,749,411,66
16:40:20.161,,792,375,20
16:40:20.198,,867,326,16
16:40:20.235,,1012,301,40
16:40:20.272,,1161,307,70
16:40:20.308,,1131,308,100
16:40:20.345,,1216,363,85
16:40:20.382,,1053,377,120
16:40:20.419,,857,402,249
16:40:20.456,,680,373,343
16:40:20.492,,720,361,316
16:40:20.529,,843,312,284
16:40:20.566,,815,219,246
16:40:20.603,,749,193,276
16:40:20.639,,713,258,295
16:40:20.676,,708,305,272
16:40:20.712,,681,367,272
16:40:20.749,,644,394,290
16:40:20.786,,666,399,284
16:40:20.822,,786,411,302
16:40:20.859,,953,426,332
16:40:20.895,,1074,438,349
16:40:20.932,,1163,419,320
16:40:20.968,,1281,509,349
16:40:21.004,,1204,529,351
16:40:21.041,,977,447,304
16:40:21.077,,858,382,219
16:40:21.114,,893,392,188
16:40:21.150,,860,407,173
16:40:21.187,,771,369,132
16:40:21.223,,743,336,93
16:40:21.260,,756,340,62
16:40:21.296,,789,339,53
16:40:21.333,,806,299,77
16:40:21.369,,798,147,-43
16:40:21.406,,878,-234,-29
16:40:21.442,,988,454,-183
16:40:21.477,,963,977,-249
16:40:21.513,,946,932,60
16:40:21.549,,998,1053,-226
16:40:21.586,,873,978,-484
16:40:21.622,,1043,-228,122
16:40:21.659,,1101,-281,179
16:40:21.695,,856,1125,-928
16:40:21.730,,741,1458,-617
16:40:21.766,,225,300,317
16:40:21.803,,133,-336,540
16:40:21.838,,211,253,197
16:40:21.874,,396,704,-280
16:40:21.909,,572,527,-498
16:40:21.946,,722,568,303
16:40:21.982,,1066,113,756
16:40:22.019,,1157,204,486
16:40:22.055,,1302,511,298
16:40:22.091,,1251,733,159
16:40:22.128,,1025,581,3
16:40:22.164,,1167,610,-16
16:40:22.200,,1159,718,100
16:40:22.237,,903,502,108
16:40:22.273,,840,524,71
16:40:22.310,,858,507,36
16:40:22.346,,805,456,45
16:40:22.382,,786,397,35
16:40:22.419,,835,363,26
16:40:22.455,,885,372,66
16:40:22.492,,895,424,181
16:40:22.528,,942,443,264
16:40:22.565,,1060,390,261
16:40:22.601,,1116,287,193
16:40:22.637,,1141,170,181
16:40:22.674,,1060,159,227
16:40:22.710,,988,184,200
16:40:22.747,,984,256,144
16:40:22.783,,767,304,116
16:40:22.820,,602,357,121
16:40:22.856,,677,509,180
16:40:22.893,,803,556,163
16:40:22.929,,805,397,118
16:40:22.965,,762,254,164
16:40:23.002,,746,219,173
16:40:23.038,,784,273,166
16:40:23.075,,802,341,218
16:40:23.111,,781,403,319
16:40:23.148,,788,468,420
16:40:23.184,,899,522,465
16:40:23.221,,1022,490,424
16:40:23.257,,990,451,383
16:40:23.294,,1127,507,333
16:40:23.330,,1197,680,358
16:40:23.367,,1120,630,217
16:40:23.404,,1074,486,100
16:40:23.441,,1086,351,108
16:40:23.477,,974,285,114
16:40:23.514,,890,305,101
16:40:23.551,,838,357,62
16:40:23.588,,804,382,27
16:40:23.624,,759,370,14
16:40:23.661,,695,328,18
16:40:23.697,,685,307,35
16:40:23.734,,764,316,65
16:40:23.770,,901,350,106
16:40:23.807,,997,340,159
16:40:23.843,,1108,339,211
16:40:23.880,,1195,340,219
16:40:23.916,,954,304,246
16:40:23.952,,806,342,300
16:40:23.989,,919,430,287
16:40:24.025,,1040,390,214
16:40:24.061,,917,251,146
16:40:24.098,,759,244,155
16:40:24.134,,703,282,154
16:40:24.171,,709,372,119
16:40:24.207,,727,439,111
16:40:24.243,,675,439,144
16:40:24.280,,719,421,196
16:40:24.316,,838,456,251
16:40:24.353,,979,512,304
16:40:24.389,,1112,529,330
16:40:24.425,,1426,638,400
16:40:24.462,,1249,552,417
16:40:24.498,,1005,315,287
16:40:24.534,,966,294,248
16:40:24.571,,969,350,281
16:40:24.607,,894,383,260
16:40:24.644,,790,371,194
16:40:24.680,,730,312,130
16:40:24.717,,688,295,78
16:40:24.753,,683,301,47
16:40:24.790,,730,330,52
16:40:24.826,,839,339,66
16:40:24.862,,955,305,45
16:40:24.899,,1063,268,20
16:40:24.935,,1050,299,45
16:40:24.972,,1230,395,56
16:40:25.008,,1102,440,88
16:40:25.044,,815,445,181
16:40:25.081,,720,463,311
16:40:25.117,,836,409,339
16:40:25.154,,854,143,224
16:40:25.190,,784,4,210
16:40:25.227,,746,66,322
16:40:25.263,,756,177,338
16:40:25.299,,776,304,288
16:40:25.336,,829,406,316
16:40:25.372,,922,437,317
16:40:25.409,,1055,452,305
16:40:25.445,,1088,453,308
16:40:25.482,,960,402,271
16:40:25.518,,1121,526,307
16:40:25.554,,1167,673,371
16:40:25.591,,1062,587,210
16:40:25.627,,1076,560,114
16:40:25.663,,1068,429,88
16:40:25.700,,1012,315,99
16:40:25.736,,945,308,67
16:40:25.772,,912,358,38
16:40:25.809,,895,397,13
16:40:25.845,,871,389,-4
16:40:25.882,,835,327,-9
16:40:25.918,,811,298,6
16:40:25.955,,857,293,36
16:40:25.991,,863,290,65
16:40:26.028,,837,261,86
16:40:26.064,,985,340,115
16:40:26.101,,986,275,99
16:40:26.137,,932,303,111
16:40:26.173,,907,330,137
16:40:26.209,,1091,404,381
16:40:26.245,,1040,201,375
16:40:26.281,,951,357,292
16:40:26.317,,808,412,271
16:40:26.354,,754,465,211
16:40:26.390,,762,466,257
16:40:26.426,,772,452,327
16:40:26.463,,718,315,371
16:40:26.499,,822,304,322
16:40:26.535,,978,294,128
16:40:26.572,,1066,315,55
16:40:26.608,,1021,306,82
16:40:26.644,,1157,431,163
16:40:26.681,,1271,557,377
16:40:26.717,,1130,451,404
16:40:26.753,,997,372,279
16:40:26.790,,1064,415,232
16:40:26.826,,1056,389,218
16:40:26.862,,911,333,176
16:40:26.899,,803,296,143
16:40:26.935,,741,288,114
16:40:26.972,,717,298,78
16:40:27.008,,727,311,54
16:40:27.044,,746,293,36
16:40:27.081,,842,297,34
16:40:27.117,,978,299,35
16:40:27.154,,1044,305,43
16:40:27.190,,1038,365,91
16:40:27.227,,1195,413,84
16:40:27.263,,1106,375,102
16:40:27.299,,830,348,175
16:40:27.336,,900,438,296
16:40:27.372,,989,446,293
16:40:27.408,,867,237,169
16:40:27.445,,715,141,148
16:40:27.481,,681,199,242
16:40:27.517,,707,317,266
16:40:27.553,,768,535,233
16:40:27.590,,801,881,276
16:40:27.626,,797,1066,358
16:40:27.663,,710,1233,420
16:40:27.699,,601,1306,397
16:40:27.735,,564,1259,398
16:40:27.771,,450,1292,380
16:40:27.807,,435,1629,383
16:40:27.842,,438,1341,324
16:40:27.877,,260,1266,265
16:40:27.912,,136,1162,172
16:40:27.946,,26,953,123
16:40:27.980,,-47,628,74
16:40:28.014,,-143,467,34
16:40:28.048,,-217,335,64
16:40:28.082,,-311,315,40
16:40:28.116,,-453,244,107
16:40:28.150,,-570,207,244
16:40:28.184,,-695,269,332
16:40:28.218,,-818,261,423
16:40:28.251,,-979,424,435
16:40:28.285,,-1159,431,423
16:40:28.319,,-1103,374,617
16:40:28.353,,-993,494,520
16:40:28.387,,-791,581,442
16:40:28.421,,-585,466,415
16:40:28.455,,-518,298,412
16:40:28.489,,-559,296,417
16:40:28.523,,-652,271,429
16:40:28.557,,-759,212,345
16:40:28.591,,-818,280,366
16:40:28.625,,-842,237,461
16:40:28.659,,-864,213,458
16:40:28.693,,-897,378,516
16:40:28.727,,-925,431,578
16:40:28.762,,-948,381,564
16:40:28.796,,-1023,333,537
16:40:28.830,,-1186,449,472
16:40:28.864,,-1156,446,396
16:40:28.898,,-995,425,403
16:40:28.932,,-929,339,277
16:40:28.966,,-898,364,156
16:40:29.000,,-775,330,149
16:40:29.034,,-712,319,160
16:40:29.068,,-711,285,177
16:40:29.102,,-756,278,202
16:40:29.136,,-799,335,250
16:40:29.169,,-825,377,345
16:40:29.203,,-898,322,400
16:40:29.237,,-979,341,409
16:40:29.271,,-1038,398,436
16:40:29.305,,-1076,425,482
16:40:29.339,,-1057,440,542
16:40:29.373,,-1068,392,554
16:40:29.407,,-1006,426,599
16:40:29.442,,-783,495,580
16:40:29.476,,-626,508,533
16:40:29.510,,-547,499,533
16:40:29.544,,-521,463,524
16:40:29.579,,-563,368,503
16:40:29.613,,-643,283,475
16:40:29.647,,-681,204,464
16:40:29.682,,-724,215,478
16:40:29.716,,-735,240,493
16:40:29.750,,-748,233,503
16:40:29.785,,-796,232,503
16:40:29.819,,-899,252,518
16:40:29.853,,-987,324,560
16:40:29.888,,-1107,370,538
16:40:29.922,,-1189,490,510
16:40:29.956,,-1077,497,425
16:40:29.990,,-903,569,443
16:40:30.024,,-842,414,354
16:40:30.059,,-839,437,235
16:40:30.093,,-758,439,202
16:40:30.127,,-721,417,220
16:40:30.161,,-759,344,243
16:40:30.195,,-794,299,279
16:40:30.229,,-812,331,313
16:40:30.263,,-833,365,346
16:40:30.297,,-836,373,373
16:40:30.331,,-852,351,422
16:40:30.365,,-931,326,490
16:40:30.399,,-1009,437,587
16:40:30.434,,-1022,504,651
16:40:30.468,,-1029,449,602
16:40:30.502,,-950,387,551
16:40:30.537,,-867,418,549
16:40:30.571,,-697,482,530
16:40:30.606,,-567,439,517
16:40:30.640,,-561,469,525
16:40:30.675,,-532,479,545
16:40:30.709,,-557,439,580
16:40:30.744,,-625,321,578
16:40:30.779,,-657,254,572
16:40:30.813,,-689,243,553
16:40:30.848,,-722,234,521
16:40:30.882,,-743,253,533
16:40:30.917,,-776,237,540
16:40:30.952,,-813,241,559
16:40:30.987,,-897,261,569
16:40:31.021,,-973,274,591
16:40:31.056,,-1016,244,592
16:40:31.090,,-1136,351,567
16:40:31.125,,-1102,430,475
16:40:31.159,,-906,580,469
16:40:31.194,,-846,466,355
16:40:31.228,,-852,496,281
16:40:31.263,,-776,447,248
16:40:31.297,,-736,399,265
16:40:31.331,,-742,309,283
16:40:31.366,,-742,263,289
16:40:31.400,,-769,297,307
16:40:31.434,,-772,311,351
16:40:31.468,,-809,364,403
16:40:31.502,,-875,325,418
16:40:31.537,,-955,336,407
16:40:31.571,,-940,359,443
16:40:31.605,,-881,417,515
16:40:31.639,,-817,517,594
16:40:31.673,,-671,429,609
16:40:31.708,,-481,227,460
16:40:31.742,,-137,120,327
16:40:31.777,,167,245,277
16:40:31.812,,436,383,305
16:40:31.847,,678,556,317
16:40:31.883,,809,811,363
16:40:31.920,,872,633,282
16:40:31.956,,1162,575,162
16:40:31.993,,1421,496,101
16:40:32.029,,1613,558,73
16:40:32.066,,1566,826,125
16:40:32.102,,1368,863,141
16:40:32.138,,1228,740,145
16:40:32.175,,1178,583,218
16:40:32.211,,1145,534,235
16:40:32.248,,1220,584,256
16:40:32.284,,1069,632,291
16:40:32.320,,953,644,303
16:40:32.357,,867,553,288
16:40:32.393,,931,484,234
16:40:32.430,,1075,440,226
16:40:32.466,,973,339,167
16:40:32.503,,816,314,110
16:40:32.539,,736,374,85
16:40:32.575,,760,467,38
16:40:32.612,,803,448,-33
16:40:32.648,,842,419,-84
16:40:32.685,,911,401,-55
16:40:32.721,,1007,384,-22
16:40:32.758,,973,365,-13
16:40:32.794,,897,307,27
16:40:32.831,,1075,375,84
16:40:32.867,,1159,416,160
16:40:32.903,,1108,408,267
16:40:32.940,,954,409,440
16:40:32.976,,804,325,463
16:40:33.013,,781,230,377
16:40:33.049,,830,199,318
16:40:33.085,,833,227,264
16:40:33.122,,817,276,280
16:40:33.158,,789,320,291
16:40:33.194,,754,339,237
16:40:33.231,,707,351,188
16:40:33.267,,699,418,184
16:40:33.304,,705,459,213
16:40:33.340,,728,435,219
16:40:33.377,,817,427,223
16:40:33.413,,932,399,253
16:40:33.450,,1035,408,261
16:40:33.486,,1102,462,284
16:40:33.522,,1217,533,316
16:40:33.559,,1206,578,396
16:40:33.595,,1144,541,355
16:40:33.632,,948,325,260
16:40:33.668,,961,261,261
16:40:33.705,,966,342,283
16:40:33.741,,824,372,196
16:40:33.778,,686,410,109
16:40:33.814,,686,605,40
16:40:33.851,,891,895,-42
16:40:33.887,,1072,1126,133
16:40:33.924,,1039,1843,386
16:40:33.960,,1029,1738,340
16:40:33.995,,853,1614,412
16:40:34.030,,632,1212,351
16:40:34.064,,470,837,334
16:40:34.098,,220,289,230
16:40:34.132,,13,77,125
16:40:34.166,,-43,-61,76
16:40:34.200,,-65,-174,65
16:40:34.234,,-2,-178,103
16:40:34.269,,113,-44,158
16:40:34.303,,287,50,180
16:40:34.338,,534,153,251
16:40:34.373,,832,319,182
16:40:34.410,,1282,1170,294
16:40:34.446,,1332,788,282
16:40:34.483,,1610,894,312
16:40:34.519,,1669,746,219
16:40:34.556,,1766,665,184
16:40:34.592,,1781,911,279
16:40:34.629,,1485,999,203
16:40:34.665,,1250,799,149
16:40:34.701,,1117,721,189
16:40:34.738,,1081,573,163
16:40:34.774,,1062,593,163
16:40:34.811,,904,627,213
16:40:34.847,,850,615,309
16:40:34.884,,826,587,278
16:40:34.920,,1037,551,242
16:40:34.957,,1182,439,192
16:40:34.993,,1042,434,97
16:40:35.030,,895,401,77
16:40:35.066,,838,560,81
16:40:35.103,,798,588,21
16:40:35.139,,737,475,-56
16:40:35.176,,738,545,-59
16:40:35.213,,774,575,-2
16:40:35.249,,804,509,57
16:40:35.286,,882,471,86
16:40:35.322,,934,395,116
16:40:35.359,,977,339,121
16:40:35.396,,988,333,166
16:40:35.432,,997,336,254
16:40:35.469,,951,350,328
16:40:35.505,,967,381,364
16:40:35.541,,1043,385,353
16:40:35.577,,984,308,291
16:40:35.613,,867,227,253
16:40:35.650,,800,248,250
16:40:35.686,,778,282,223
16:40:35.723,,762,357,186
16:40:35.759,,755,437,186
16:40:35.796,,725,475,205
16:40:35.833,,716,504,227
16:40:35.869,,787,493,226
16:40:35.906,,938,472,239
16:40:35.942,,1048,442,256
16:40:35.979,,1181,445,348
16:40:36.015,,1244,518,346
16:40:36.052,,983,385,275
16:40:36.089,,925,342,206
16:40:36.125,,1009,389,191
16:40:36.162,,912,414,119
16:40:36.199,,782,446,-17
16:40:36.236,,738,528,-141
16:40:36.273,,712,497,-263
16:40:36.309,,683,444,-256
16:40:36.346,,638,468,-210
16:40:36.383,,664,559,-137
16:40:36.420,,775,666,-119
16:40:36.457,,851,687,-79
16:40:36.494,,933,581,-31
16:40:36.531,,966,516,51
16:40:36.568,,980,494,115
16:40:36.605,,1020,649,297
16:40:36.641,,1105,533,505
16:40:36.678,,938,430,-14
16:40:36.715,,937,439,102
16:40:36.752,,961,666,291
16:40:36.789,,708,951,63
16:40:36.826,,442,510,-289
16:40:36.863,,382,161,-424
16:40:36.900,,458,317,-89
16:40:36.937,,458,508,29
16:40:36.973,,557,561,5
16:40:37.010,,661,778,221
16:40:37.047,,606,825,312
16:40:37.084,,626,812,321
16:40:37.121,,650,972,301
16:40:37.158,,674,1037,267
16:40:37.195,,727,1139,258
16:40:37.232,,712,1200,241
16:40:37.269,,648,1055,214
16:40:37.305,,498,700,212
16:40:37.342,,429,717,244
16:40:37.379,,420,736,279
16:40:37.416,,411,712,256
16:40:37.453,,374,733,198
16:40:37.490,,315,707,163
16:40:37.527,,268,702,150
16:40:37.564,,248,774,145
16:40:37.600,,235,879,195
16:40:37.637,,206,858,278
16:40:37.674,,210,867,350
16:40:37.711,,261,878,369
16:40:37.748,,377,841,375
16:40:37.785,,496,762,415
16:40:37.822,,591,724,380
16:40:37.859,,618,647,318
16:40:37.895,,633,536,309
16:40:37.932,,718,506,323
16:40:37.969,,816,425,314
16:40:38.006,,956,378,279
16:40:38.043,,1134,335,227
16:40:38.080,,1087,303,174
16:40:38.117,,955,294,159
16:40:38.154,,852,333,150
16:40:38.191,,786,380,130
16:40:38.228,,736,445,117
16:40:38.264,,715,481,127
16:40:38.301,,724,493,164
16:40:38.338,,799,479,218
16:40:38.375,,909,451,271
16:40:38.412,,987,396,271
16:40:38.449,,1053,408,271
16:40:38.486,,1292,570,330
16:40:38.523,,1332,718,364
16:40:38.560,,1314,802,366
16:40:38.597,,1165,791,346
16:40:38.633,,1166,964,332
16:40:38.670,,1119,1154,283
16:40:38.707,,971,1051,235
16:40:38.744,,729,1115,165
16:40:38.781,,504,1009,66
16:40:38.818,,307,933,30
16:40:38.855,,88,660,-76
16:40:38.892,,-52,573,-126
16:40:38.928,,-203,447,-73
16:40:38.965,,-335,313,66
16:40:39.002,,-451,366,195
16:40:39.039,,-581,296,396
16:40:39.076,,-679,360,468
16:40:39.113,,-745,322,548
16:40:39.150,,-861,309,555
16:40:39.186,,-979,453,554
16:40:39.223,,-861,504,473
16:40:39.260,,-657,511,378
16:40:39.297,,-541,459,360
16:40:39.334,,-613,667,386
16:40:39.371,,-715,614,384
16:40:39.408,,-761,458,446
16:40:39.444,,-768,182,521
16:40:39.481,,-795,161,466
16:40:39.518,,-757,67,481
16:40:39.555,,-716,39,427
16:40:39.592,,-727,11,496
16:40:39.629,,-810,162,415
16:40:39.666,,-887,90,407
16:40:39.702,,-914,-5,429
16:40:39.739,,-967,63,475
16:40:39.776,,-1114,176,429
16:40:39.813,,-1148,286,325
16:40:39.850,,-1002,371,247
16:40:39.887,,-800,225,282
16:40:39.923,,-745,502,246
16:40:39.960,,-609,369,112
16:40:39.997,,-341,548,148
16:40:40.034,,-139,455,163
16:40:40.071,,-12,704,241
16:40:40.108,,43,902,255
16:40:40.145,,71,1153,403
16:40:40.182,,159,795,521
16:40:40.219,,214,821,760
16:40:40.255,,362,594,855
16:40:40.292,,584,571,880
16:40:40.329,,762,491,809
16:40:40.366,,935,365,675
16:40:40.403,,1164,312,536
16:40:40.440,,1314,277,421
16:40:40.477,,1205,340,351
16:40:40.514,,1149,462,303
16:40:40.551,,1178,506,240
16:40:40.588,,1093,400,107
16:40:40.624,,905,440,92
16:40:40.661,,768,446,135
16:40:40.698,,697,469,106
16:40:40.735,,659,446,110
16:40:40.772,,635,427,130
16:40:40.809,,640,444,199
16:40:40.846,,667,446,246
16:40:40.883,,750,495,315
16:40:40.920,,882,529,363
16:40:40.957,,986,508,400
16:40:40.993,,998,518,426
16:40:41.030,,1131,605,479
16:40:41.067,,1083,542,479
16:40:41.104,,956,505,430
16:40:41.141,,819,463,343
16:40:41.178,,879,454,265
16:40:41.215,,927,433,170
16:40:41.252,,838,397,80
16:40:41.289,,794,408,34
16:40:41.326,,784,386,-3
16:40:41.362,,815,399,-17
16:40:41.399,,851,373,-12
16:40:41.436,,872,374,26
16:40:41.473,,894,365,77
16:40:41.510,,976,362,131
16:40:41.547,,1018,335,162
16:40:41.584,,1032,324,197
16:40:41.621,,1005,330,275
16:40:41.658,,1175,363,301
16:40:41.695,,1069,288,317
16:40:41.732,,847,264,372
16:40:41.769,,750,332,402
16:40:41.805,,877,365,368
16:40:41.842,,955,281,304
16:40:41.879,,853,275,236
16:40:41.916,,767,292,226
16:40:41.953,,718,340,209
16:40:41.990,,686,363,185
16:40:42.027,,650,377,186
16:40:42.064,,640,401,214
16:40:42.101,,657,423,235
16:40:42.138,,688,426,261
16:40:42.174,,768,441,290
16:40:42.211,,939,487,306
16:40:42.248,,995,460,300
16:40:42.285,,892,472,293
16:40:42.322,,1322,706,331
16:40:42.359,,1300,614,276
16:40:42.396,,983,475,204
16:40:42.433,,895,463,233
16:40:42.470,,812,411,139
16:40:42.507,,797,389,115
16:40:42.544,,776,381,36
16:40:42.580,,799,381,-10
16:40:42.617,,856,359,-31
16:40:42.654,,879,333,-9
16:40:42.691,,897,325,55
16:40:42.728,,936,335,91
16:40:42.765,,999,330,142
16:40:42.802,,1053,343,176
16:40:42.839,,1010,325,261
16:40:42.876,,1060,314,306
16:40:42.913,,1066,278,282
16:40:42.950,,935,313,318
16:40:42.987,,874,342,388
16:40:43.023,,921,351,311
16:40:43.060,,994,323,257
16:40:43.097,,888,283,200
16:40:43.134,,769,278,190
16:40:43.171,,708,311,181
16:40:43.208,,688,335,160
16:40:43.245,,666,301,172
16:40:43.282,,656,347,228
16:40:43.319,,639,323,260
16:40:43.356,,664,401,291
16:40:43.392,,736,436,324
16:40:43.429,,853,451,337
16:40:43.466,,970,605,337
16:40:43.503,,1034,460,357
16:40:43.540,,1267,547,418
16:40:43.577,,1212,588,384
16:40:43.614,,989,482,252
16:40:43.651,,749,492,172
16:40:43.688,,881,504,161
16:40:43.725,,956,428,105
16:40:43.762,,926,293,63
16:40:43.799,,925,288,46
16:40:43.835,,930,305,23
16:40:43.872,,913,289,5
16:40:43.909,,922,327,-24
16:40:43.946,,929,380,-14
16:40:43.983,,924,408,71
16:40:44.020,,875,341,175
16:40:44.057,,902,337,207
16:40:44.094,,948,348,232
16:40:44.131,,1006,259,277
16:40:44.168,,1091,255,286
16:40:44.204,,1044,258,373
16:40:44.241,,940,320,392
16:40:44.278,,818,316,355
16:40:44.315,,854,298,324
16:40:44.352,,950,290,300
16:40:44.389,,934,288,228
16:40:44.426,,875,261,174
16:40:44.463,,807,277,187
16:40:44.500,,738,324,174
16:40:44.537,,671,342,163
16:40:44.574,,630,361,215
16:40:44.610,,614,365,249
16:40:44.647,,643,401,270
16:40:44.684,,729,384,331
16:40:44.721,,796,362,372
16:40:44.758,,878,365,379
16:40:44.795,,965,325,373
16:40:44.832,,1150,363,311
16:40:44.869,,1354,437,328
16:40:44.906,,1285,412,376
16:40:44.943,,1035,329,312
16:40:44.980,,924,368,205
16:40:45.016,,993,414,184
16:40:45.053,,964,397,129
16:40:45.090,,889,335,59
16:40:45.127,,815,292,33
16:40:45.164,,777,305,27
16:40:45.201,,775,298,12
16:40:45.238,,771,325,9
16:40:45.275,,797,346,0
16:40:45.312,,816,345,7
16:40:45.349,,838,328,71
16:40:45.385,,826,325,164
16:40:45.422,,872,320,182
16:40:45.459,,975,259,164
16:40:45.496,,1118,235,257
16:40:45.533,,1355,314,253
16:40:45.570,,1273,390,304
16:40:45.607,,1165,424,376
16:40:45.644,,936,383,266
16:40:45.681,,997,446,224
16:40:45.718,,979,288,174
16:40:45.754,,847,236,133
16:40:45.791,,760,271,84
16:40:45.828,,726,185,38
16:40:45.865,,616,-1,107
16:40:45.902,,635,171,135
16:40:45.939,,643,197,91
16:40:45.976,,688,377,209
16:40:46.013,,709,331,299
16:40:46.050,,742,378,266
16:40:46.087,,824,485,293
16:40:46.123,,902,451,323
16:40:46.160,,981,461,309
16:40:46.197,,1066,485,283
16:40:46.234,,1239,550,299
16:40:46.271,,1175,518,289
16:40:46.308,,1039,478,202
16:40:46.345,,904,409,181
16:40:46.382,,958,423,175
16:40:46.419,,915,440,97
16:40:46.456,,845,371,41
16:40:46.492,,808,364,-5
16:40:46.529,,777,359,-3
16:40:46.566,,753,334,19
16:40:46.603,,739,315,39
16:40:46.640,,745,340,57
16:40:46.677,,768,346,85
16:40:46.714,,838,337,95
16:40:46.751,,1038,325,94
16:40:46.788,,1171,308,111
16:40:46.824,,1179,224,156
16:40:46.861,,1260,294,193
16:40:46.898,,1184,298,221
16:40:46.935,,1038,343,268
16:40:46.972,,889,410,299
16:40:47.009,,847,283,260
16:40:47.046,,873,214,229
16:40:47.083,,849,148,191
16:40:47.119,,777,133,145
16:40:47.156,,748,173,142
16:40:47.193,,724,230,134
16:40:47.230,,722,244,144
16:40:47.267,,739,292,169
16:40:47.304,,776,330,192
16:40:47.341,,870,429,241
16:40:47.378,,982,486,235
16:40:47.415,,1038,509,234
16:40:47.451,,1034,554,279
16:40:47.488,,1122,613,284
16:40:47.525,,1160,649,323
16:40:47.562,,1022,565,329
16:40:47.599,,824,500,316
16:40:47.636,,893,472,271
16:40:47.673,,963,465,176
16:40:47.710,,923,449,100
16:40:47.747,,827,379,-13
16:40:47.783,,810,366,15
16:40:47.820,,822,330,-45
16:40:47.857,,879,311,-54
16:40:47.894,,927,317,-18
16:40:47.931,,949,396,-11
16:40:47.968,,1013,184,66
16:40:48.005,,1090,183,118
16:40:48.042,,1187,203,120
16:40:48.078,,1318,230,202
16:40:48.115,,1154,226,274
16:40:48.152,,954,279,395
16:40:48.189,,780,263,408
16:40:48.226,,841,111,384
16:40:48.263,,925,88,343
16:40:48.300,,872,31,234
16:40:48.336,,807,285,139
16:40:48.373,,747,314,207
16:40:48.410,,712,201,157
16:40:48.447,,691,289,129
16:40:48.484,,681,350,195
16:40:48.521,,675,329,239
16:40:48.558,,739,422,271
16:40:48.594,,911,464,308
16:40:48.631,,1062,469,313
16:40:48.668,,1178,495,323
16:40:48.705,,1283,556,350
16:40:48.742,,1178,522,360
16:40:48.779,,1029,476,339
16:40:48.816,,827,452,346
16:40:48.853,,855,445,314
16:40:48.889,,893,427,242
16:40:48.926,,841,366,140
16:40:48.963,,784,331,84
16:40:49.000,,768,353,58
16:40:49.037,,769,361,26
16:40:49.074,,784,340,3
16:40:49.111,,833,347,25
16:40:49.147,,898,397,13
16:40:49.184,,946,340,90
16:40:49.221,,968,321,116
16:40:49.258,,1033,362,134
16:40:49.295,,1121,251,269
16:40:49.332,,1084,246,257
16:40:49.369,,1122,290,260
16:40:49.405,,1130,258,320
16:40:49.442,,858,175,278
16:40:49.479,,759,291,319
16:40:49.516,,903,335,313
16:40:49.553,,1027,227,242
16:40:49.590,,889,160,199
16:40:49.626,,750,236,185
16:40:49.663,,698,278,226
16:40:49.700,,653,224,220
16:40:49.737,,651,192,256
16:40:49.774,,638,200,273
16:40:49.810,,665,299,301
16:40:49.847,,721,308,309
16:40:49.884,,857,334,319
16:40:49.921,,977,379,333
16:40:49.958,,1038,374,326
16:40:49.994,,1295,487,354
16:40:50.031,,1289,581,394
16:40:50.068,,1182,515,287
16:40:50.105,,885,437,179
16:40:50.141,,870,450,153
16:40:50.178,,937,486,137
16:40:50.214,,874,312,101
16:40:50.251,,860,240,97
16:40:50.287,,873,311,110
16:40:50.324,,860,299,91
16:40:50.360,,862,315,70
16:40:50.397,,846,304,80
16:40:50.433,,828,339,114
16:40:50.470,,835,341,177
16:40:50.506,,908,352,155
16:40:50.543,,1002,301,206
16:40:50.579,,1023,203,281
16:40:50.616,,948,158,306
16:40:50.652,,1053,210,325
16:40:50.688,,1065,251,265
16:40:50.725,,822,254,199
16:40:50.761,,852,402,269
16:40:50.798,,986,460,297
16:40:50.834,,975,320,221
16:40:50.871,,828,219,181
16:40:50.907,,731,266,197
16:40:50.944,,703,337,190
16:40:50.980,,702,349,200
16:40:51.016,,686,335,227
16:40:51.053,,735,366,257
16:40:51.089,,820,385,315
16:40:51.126,,898,413,347
16:40:51.162,,962,444,374
16:40:51.199,,941,428,366
16:40:51.235,,1066,470,352
16:40:51.271,,1210,564,427
16:40:51.308,,1169,487,359
16:40:51.344,,977,343,256
16:40:51.381,,961,395,256
16:40:51.417,,987,396,194
16:40:51.454,,891,319,146
16:40:51.490,,838,375,80
16:40:51.527,,844,339,9
16:40:51.563,,866,328,-2
16:40:51.600,,855,329,8
16:40:51.636,,820,275,53
16:40:51.673,,838,382,128
16:40:51.710,,879,365,186
16:40:51.746,,884,309,206
16:40:51.783,,912,255,223
16:40:51.819,,921,241,299
16:40:51.855,,1134,230,205
16:40:51.892,,1151,236,277
16:40:51.929,,854,228,250
16:40:51.966,,841,338,300
16:40:52.002,,947,501,325
16:40:52.039,,896,290,220
16:40:52.076,,757,230,198
16:40:52.113,,696,270,223
16:40:52.149,,702,316,228
16:40:52.185,,731,362,215
16:40:52.222,,753,331,230
16:40:52.258,,820,345,243
16:40:52.295,,942,426,287
16:40:52.331,,1020,370,282
16:40:52.368,,1041,427,291
16:40:52.404,,927,436,332
16:40:52.441,,1038,485,368
16:40:52.477,,1168,603,467
16:40:52.513,,1024,460,313
16:40:52.550,,1022,503,186
16:40:52.586,,1105,439,252
16:40:52.623,,1024,360,204
16:40:52.659,,883,317,114
16:40:52.696,,812,301,81
16:40:52.732,,811,294,82
16:40:52.769,,802,257,63
16:40:52.805,,791,225,95
16:40:52.841,,811,225,79
16:40:52.878,,892,302,116
16:40:52.914,,913,224,140
16:40:52.951,,904,258,203
16:40:52.987,,1166,307,183
16:40:53.024,,1173,360,212
16:40:53.060,,866,225,301
16:40:53.097,,772,325,338
16:40:53.133,,867,339,395
16:40:53.170,,899,224,358
16:40:53.206,,822,197,304
16:40:53.243,,770,246,265
16:40:53.279,,745,353,260
16:40:53.315,,749,336,243
16:40:53.352,,748,322,291
16:40:53.388,,769,384,306
16:40:53.425,,893,526,390
16:40:53.461,,1032,559,428
16:40:53.497,,1063,513,460
16:40:53.534,,1082,480,428
16:40:53.570,,1352,621,536
16:40:53.606,,1220,567,411
16:40:53.643,,1159,531,399
16:40:53.679,,1301,606,504
16:40:53.716,,1242,520,468
16:40:53.752,,1069,502,308
16:40:53.789,,980,419,181
16:40:53.825,,899,426,123
16:40:53.861,,853,398,36
16:40:53.898,,849,444,10
16:40:53.934,,726,319,-14
16:40:53.969,,607,405,-123
16:40:54.004,,494,361,-46
16:40:54.039,,428,315,126
16:40:54.074,,438,380,183
16:40:54.110,,689,575,254
16:40:54.145,,772,531,289
16:40:54.181,,752,586,408
16:40:54.217,,998,569,434
16:40:54.253,,1290,564,331
16:40:54.289,,1285,406,361
16:40:54.326,,1150,396,311
16:40:54.362,,1159,365,280
16:40:54.398,,1146,449,207
16:40:54.434,,1020,546,205
16:40:54.470,,865,602,291
16:40:54.507,,790,752,338
16:40:54.543,,838,776,429
16:40:54.579,,911,734,427
16:40:54.615,,974,674,396
16:40:54.651,,1312,700,408
16:40:54.687,,1289,566,290
16:40:54.724,,1173,501,217
16:40:54.760,,1140,487,166
16:40:54.796,,1263,537,109
16:40:54.833,,1280,461,29
16:40:54.869,,1277,389,-32
16:40:54.905,,1213,283,-49
16:40:54.942,,1131,185,-47
16:40:54.978,,1049,172,-57
16:40:55.015,,912,185,-47
16:40:55.051,,804,195,-15
16:40:55.088,,699,134,2
16:40:55.124,,685,302,22
16:40:55.160,,653,310,85
16:40:55.195,,809,401,178
16:40:55.232,,869,396,264
16:40:55.268,,828,559,414
16:40:55.304,,880,548,458
16:40:55.341,,1220,544,437
16:40:55.377,,1442,538,362
16:40:55.414,,1240,446,258
16:40:55.450,,981,459,146
16:40:55.486,,884,406,133
16:40:55.522,,849,429,81
16:40:55.558,,778,447,65
16:40:55.595,,657,464,60
16:40:55.631,,632,535,135
16:40:55.667,,765,656,185
16:40:55.703,,962,667,239
16:40:55.739,,976,568,249
16:40:55.775,,912,581,292
16:40:55.812,,1222,780,319
16:40:55.848,,1258,624,266
16:40:55.884,,995,433,154
16:40:55.920,,1067,502,159
16:40:55.957,,1167,529,87
16:40:55.993,,1161,418,25
16:40:56.030,,1094,290,-27
16:40:56.066,,1073,242,-58
16:40:56.103,,1037,250,-56
16:40:56.139,,979,232,-31
16:40:56.176,,895,234,3
16:40:56.212,,831,259,26
16:40:56.249,,816,437,85
16:40:56.285,,758,255,183
16:40:56.322,,709,391,243
16:40:56.358,,905,214,320
16:40:56.395,,1059,147,407
16:40:56.431,,1024,103,442
16:40:56.468,,1226,349,459
16:40:56.504,,1416,425,409
16:40:56.541,,1243,336,197
16:40:56.577,,917,366,52
16:40:56.613,,788,399,-16
16:40:56.650,,761,496,-66
16:40:56.686,,711,484,-35
16:40:56.722,,627,382,26
16:40:56.759,,697,412,94
16:40:56.795,,843,514,183
16:40:56.832,,961,595,222
16:40:56.868,,928,627,338
16:40:56.904,,989,669,406
16:40:56.941,,1353,838,515
16:40:56.977,,1182,496,393
16:40:57.014,,1143,405,364
16:40:57.050,,1286,458,346
16:40:57.087,,1293,423,282
16:40:57.124,,1117,307,199
16:40:57.161,,881,249,143
16:40:57.198,,730,253,122
16:40:57.234,,701,268,96
16:40:57.271,,699,250,55
16:40:57.308,,732,228,55
16:40:57.345,,770,229,83
16:40:57.381,,853,279,106
16:40:57.418,,882,343,139
16:40:57.455,,898,316,191
16:40:57.492,,1121,441,220
16:40:57.529,,1077,402,310
16:40:57.565,,1127,328,417
16:40:57.602,,1302,432,488
16:40:57.639,,1192,289,347
16:40:57.676,,894,204,233
16:40:57.713,,788,277,245
16:40:57.749,,780,342,238
16:40:57.786,,763,389,226
16:40:57.823,,723,435,272
16:40:57.860,,713,466,331
16:40:57.896,,779,492,376
16:40:57.933,,887,442,394
16:40:57.969,,1027,374,406
16:40:58.005,,1063,274,436
16:40:58.042,,1246,314,449
16:40:58.079,,1344,282,461
16:40:58.115,,1237,203,353
16:40:58.152,,1092,224,277
16:40:58.188,,1095,261,163
16:40:58.225,,995,222,121
16:40:58.261,,825,256,100
16:40:58.297,,638,265,88
16:40:58.334,,491,256,81
16:40:58.370,,425,254,81
16:40:58.407,,479,354,69
16:40:58.443,,613,418,61
16:40:58.480,,747,465,67
16:40:58.516,,840,456,91
16:40:58.553,,874,415,158
16:40:58.590,,911,356,205
16:40:58.626,,972,363,240
16:40:58.663,,1004,389,273
16:40:58.700,,1092,397,263
16:40:58.736,,1152,411,275
16:40:58.773,,941,314,290
16:40:58.809,,770,346,353
16:40:58.846,,867,385,337
16:40:58.882,,1025,271,304
16:40:58.919,,925,147,258
16:40:58.955,,782,183,245
16:40:58.991,,724,208,230
16:40:59.028,,716,268,195
16:40:59.064,,713,280,214
16:40:59.101,,710,291,245
16:40:59.137,,729,315,265
16:40:59.174,,789,345,265
16:40:59.210,,873,350,283
16:40:59.247,,979,348,292
16:40:59.284,,1038,340,291
16:40:59.320,,1209,445,294
16:40:59.357,,1226,468,331
16:40:59.393,,1080,402,304
16:40:59.430,,834,303,223
16:40:59.467,,858,445,257
16:40:59.503,,884,344,277
16:40:59.540,,776,353,159
16:40:59.577,,753,384,107
16:40:59.613,,790,396,108
16:40:59.650,,848,373,75
16:40:59.687,,909,350,66
16:40:59.724,,933,346,81
16:40:59.761,,893,311,93
16:40:59.797,,890,337,107
16:40:59.834,,917,357,152
16:40:59.870,,958,395,204
16:40:59.907,,1081,410,246
16:40:59.943,,1171,382,296
16:40:59.980,,950,230,320
16:41:00.016,,811,348,398
16:41:00.053,,768,358,372
16:41:00.090,,898,340,328
16:41:00.127,,963,289,269
16:41:00.163,,866,261,208
16:41:00.200,,763,308,169
16:41:00.237,,708,330,158
16:41:00.274,,699,343,145
16:41:00.310,,678,333,152
16:41:00.347,,661,334,177
16:41:00.384,,686,358,210
16:41:00.421,,739,398,258
16:41:00.458,,831,416,285
16:41:00.494,,949,425,320
16:41:00.531,,1031,437,336
16:41:00.568,,1172,485,348
16:41:00.605,,1284,574,401
16:41:00.641,,1212,512,367
16:41:00.678,,1011,441,310
16:41:00.715,,833,397,238
16:41:00.752,,879,454,219
16:41:00.788,,839,416,137
16:41:00.825,,766,337,62
16:41:00.862,,762,340,49
16:41:00.899,,779,349,25
16:41:00.935,,839,350,13
16:41:00.972,,893,341,1
16:41:01.009,,915,337,17
16:41:01.046,,942,307,49
16:41:01.082,,1053,302,67
16:41:01.119,,1127,295,102
16:41:01.156,,1170,303,133
16:41:01.193,,1185,332,176
16:41:01.229,,911,260,260
16:41:01.266,,742,253,331
16:41:01.303,,787,280,345
16:41:01.340,,914,222,301
16:41:01.377,,871,177,245
16:41:01.413,,772,212,235
16:41:01.450,,718,231,219
16:41:01.487,,712,270,187
16:41:01.524,,709,292,190
16:41:01.561,,704,310,203
16:41:01.598,,784,348,225
16:41:01.634,,910,376,234
16:41:01.671,,1027,413,255
16:41:01.708,,1070,458,289
16:41:01.745,,1005,435,301
16:41:01.782,,1194,597,350
16:41:01.819,,1240,595,384
16:41:01.855,,1035,447,290
16:41:01.892,,901,451,231
16:41:01.929,,923,444,254
16:41:01.966,,947,405,157
16:41:02.003,,911,311,96
16:41:02.040,,853,284,78
16:41:02.076,,820,292,32
16:41:02.113,,837,325,9
16:41:02.150,,846,333,1
16:41:02.187,,829,311,19
16:41:02.224,,861,317,54
16:41:02.261,,938,308,70
16:41:02.297,,1014,334,130
16:41:02.334,,1056,323,195
16:41:02.371,,1208,364,221
16:41:02.408,,1042,249,298
16:41:02.445,,810,267,370
16:41:02.482,,865,392,380
16:41:02.519,,961,334,314
16:41:02.555,,882,255,257
16:41:02.592,,745,274,217
16:41:02.629,,702,219,178
16:41:02.666,,704,422,164
16:41:02.703,,703,420,155
16:41:02.740,,656,423,192
16:41:02.777,,668,355,247
16:41:02.813,,789,431,298
16:41:02.850,,979,499,323
16:41:02.887,,1137,550,383
16:41:02.924,,1195,527,369
16:41:02.961,,1263,625,418
16:41:02.998,,1030,469,380
16:41:03.035,,872,405,268
16:41:03.071,,932,439,245
16:41:03.108,,956,414,189
16:41:03.145,,856,389,112
16:41:03.182,,793,383,49
16:41:03.219,,796,330,19
16:41:03.256,,852,318,13
16:41:03.293,,875,313,16
16:41:03.330,,887,309,37
16:41:03.367,,919,302,67
16:41:03.403,,993,301,88
16:41:03.440,,1076,307,124
16:41:03.477,,1058,308,200
16:41:03.514,,1134,338,254
16:41:03.551,,985,248,313
16:41:03.588,,765,235,349
16:41:03.625,,746,305,406
16:41:03.662,,886,355,383
16:41:03.699,,904,315,312
16:41:03.735,,767,287,232
16:41:03.772,,695,329,198
16:41:03.809,,686,348,158
16:41:03.846,,724,414,145
16:41:03.883,,700,395,173
16:41:03.920,,713,409,208
16:41:03.957,,798,419,250
16:41:03.994,,917,459,290
16:41:04.031,,1049,478,336
16:41:04.067,,1102,463,323
16:41:04.104,,1296,569,356
16:41:04.141,,1182,508,375
16:41:04.178,,982,471,341
16:41:04.215,,867,455,294
16:41:04.252,,903,464,249
16:41:04.289,,941,407,190
16:41:04.326,,866,343,110
16:41:04.363,,826,318,67
16:41:04.400,,803,306,39
16:41:04.436,,808,320,34
16:41:04.473,,811,301,21
16:41:04.510,,827,300,30
16:41:04.547,,877,284,50
16:41:04.584,,964,297,67
16:41:04.621,,1006,288,103
16:41:04.658,,1185,360,144
16:41:04.695,,1159,300,203
16:41:04.732,,1056,306,301
16:41:04.769,,881,300,349
16:41:04.805,,803,309,389
16:41:04.842,,861,330,400
16:41:04.879,,843,253,348
16:41:04.916,,759,244,301
16:41:04.953,,708,252,269
16:41:04.990,,717,265,244
16:41:05.027,,728,311,240
16:41:05.064,,691,339,249
16:41:05.101,,676,372,283
16:41:05.138,,741,401,299
16:41:05.175,,895,425,317
16:41:05.211,,1016,429,322
16:41:05.248,,1093,484,326
16:41:05.285,,1318,590,377
16:41:05.322,,1217,510,357
16:41:05.359,,954,411,299
16:41:05.396,,839,435,261
16:41:05.433,,900,446,234
16:41:05.470,,885,388,167
16:41:05.507,,820,354,101
16:41:05.544,,799,327,64
16:41:05.581,,798,350,37
16:41:05.617,,835,336,44
16:41:05.654,,863,319,61
16:41:05.691,,881,344,79
16:41:05.728,,919,329,127
16:41:05.765,,991,318,142
16:41:05.802,,1083,297,182
16:41:05.839,,1081,279,227
16:41:05.876,,1204,316,242
16:41:05.913,,1077,242,269
16:41:05.950,,857,272,312
16:41:05.987,,748,302,323
16:41:06.024,,826,331,314
16:41:06.060,,868,290,264
16:41:06.097,,757,269,215
16:41:06.134,,689,284,185
16:41:06.171,,676,325,163
16:41:06.208,,697,350,155
16:41:06.245,,692,380,171
16:41:06.282,,679,373,214
16:41:06.319,,726,405,254
16:41:06.356,,847,437,289
16:41:06.393,,990,467,327
16:41:06.430,,1082,477,334
16:41:06.467,,1193,518,330
16:41:06.503,,1329,597,381
16:41:06.540,,1165,537,365
16:41:06.577,,919,456,308
16:41:06.614,,883,468,261
16:41:06.651,,964,421,233
16:41:06.688,,965,371,174
16:41:06.725,,863,331,98
16:41:06.762,,806,325,55
16:41:06.799,,790,301,27
16:41:06.836,,802,304,36
16:41:06.873,,788,292,41
16:41:06.910,,799,284,48
16:41:06.947,,850,304,78
16:41:06.983,,954,297,91
16:41:07.020,,1044,286,139
16:41:07.057,,1246,338,183
16:41:07.094,,1204,297,251
16:41:07.131,,983,297,353
16:41:07.168,,778,321,401
16:41:07.205,,752,361,361
16:41:07.242,,845,362,362
16:41:07.279,,829,304,320
16:41:07.316,,728,290,245
16:41:07.353,,694,310,217
16:41:07.389,,699,331,210
16:41:07.426,,697,365,223
16:41:07.463,,653,380,246
16:41:07.500,,661,392,285
16:41:07.537,,774,424,327
16:41:07.574,,982,465,349
16:41:07.611,,1082,453,351
16:41:07.648,,1288,529,336
16:41:07.685,,1286,512,351
16:41:07.722,,1094,471,296
16:41:07.759,,884,431,258
16:41:07.796,,888,453,213
16:41:07.833,,902,390,171
16:41:07.869,,804,314,117
16:41:07.906,,754,326,72
16:41:07.943,,749,326,46
16:41:07.980,,774,316,46
16:41:08.017,,803,308,56
16:41:08.054,,858,325,70
16:41:08.091,,902,314,103
16:41:08.128,,970,307,138
16:41:08.165,,1060,320,164
16:41:08.202,,1061,330,210
16:41:08.239,,1208,336,222
16:41:08.276,,1113,277,216
16:41:08.312,,807,278,250
16:41:08.349,,756,353,289
16:41:08.386,,879,347,261
16:41:08.423,,921,267,210
16:41:08.460,,787,259,181
16:41:08.497,,704,285,172
16:41:08.534,,677,324,169
16:41:08.571,,673,355,174
16:41:08.608,,672,341,207
16:41:08.645,,667,354,252
16:41:08.682,,753,409,292
16:41:08.719,,903,447,314
16:41:08.756,,1055,442,333
16:41:08.792,,1088,450,330
16:41:08.829,,1087,473,326
16:41:08.866,,1187,557,362
16:41:08.903,,1112,519,328
16:41:08.940,,904,418,241
16:41:08.977,,887,449,207
16:41:09.014,,951,433,164
16:41:09.051,,937,398,120
16:41:09.088,,849,349,62
16:41:09.125,,810,316,22
16:41:09.162,,831,320,15
16:41:09.199,,858,317,26
16:41:09.236,,843,299,42
16:41:09.272,,840,301,69
16:41:09.309,,893,329,107
16:41:09.346,,963,308,132
16:41:09.383,,1068,290,241
16:41:09.420,,1220,278,249
16:41:09.457,,1093,224,282
16:41:09.494,,848,244,305
16:41:09.531,,760,327,331
16:41:09.568,,842,335,295
16:41:09.605,,885,280,235
16:41:09.642,,783,266,196
16:41:09.679,,716,290,175
16:41:09.716,,705,335,177
16:41:09.753,,706,366,175
16:41:09.790,,704,351,208
16:41:09.826,,707,360,254
16:41:09.863,,752,381,294
16:41:09.900,,859,414,316
16:41:09.937,,989,415,328
16:41:09.974,,1057,420,334
16:41:10.011,,1040,436,328
16:41:10.048,,1179,530,356
16:41:10.085,,1150,513,364
16:41:10.122,,947,400,265
16:41:10.159,,805,400,169
16:41:10.196,,967,461,177
16:41:10.233,,1028,383,123
16:41:10.270,,948,301,50
16:41:10.307,,886,276,43
16:41:10.344,,866,289,50
16:41:10.380,,871,311,52
16:41:10.417,,852,292,49
16:41:10.454,,828,297,73
16:41:10.491,,817,303,102
16:41:10.528,,885,287,112
16:41:10.565,,1018,344,139
16:41:10.602,,1078,280,204
16:41:10.639,,1217,312,209
16:41:10.676,,1064,305,216
16:41:10.713,,887,342,240
16:41:10.750,,740,388,253
16:41:10.787,,813,410,245
16:41:10.824,,931,348,221
16:41:10.861,,875,217,157
16:41:10.898,,788,220,114
16:41:10.935,,731,284,100
16:41:10.971,,708,380,105
16:41:11.008,,687,394,167
16:41:11.045,,682,346,220
16:41:11.082,,754,365,234
16:41:11.119,,884,410,276
16:41:11.156,,1021,426,285
16:41:11.193,,1098,442,299
16:41:11.230,,1041,404,301
16:41:11.267,,1136,513,310
16:41:11.304,,1134,541,308
16:41:11.341,,981,430,200
16:41:11.378,,879,416,127
16:41:11.415,,957,515,129
16:41:11.452,,995,385,69
16:41:11.489,,956,238,77
16:41:11.526,,915,185,89
16:41:11.563,,891,231,79
16:41:11.600,,866,288,43
16:41:11.637,,817,318,22
16:41:11.673,,762,328,52
16:41:11.710,,787,345,100
16:41:11.747,,853,336,139
16:41:11.784,,965,325,171
16:41:11.821,,1004,332,220
16:41:11.858,,1106,356,214
16:41:11.895,,1117,438,171
16:41:11.932,,840,299,233
16:41:11.969,,776,333,308
16:41:12.006,,950,337,262
16:41:12.043,,1031,182,212
16:41:12.080,,854,176,180
16:41:12.117,,753,183,199
16:41:12.154,,745,209,245
16:41:12.191,,741,218,271
16:41:12.227,,734,249,294
16:41:12.264,,721,266,315
16:41:12.301,,748,227,324
16:41:12.338,,845,214,333
16:41:12.375,,1015,197,337
16:41:12.412,,1146,235,339
16:41:12.449,,1187,298,306
16:41:12.486,,1403,372,306
16:41:12.523,,1417,528,332
16:41:12.560,,1182,381,257
16:41:12.597,,883,199,259
16:41:12.634,,723,271,267
16:41:12.671,,739,307,273
16:41:12.708,,756,202,248
16:41:12.745,,814,179,238
16:41:12.782,,874,185,229
16:41:12.818,,914,242,159
16:41:12.855,,907,287,114
16:41:12.892,,891,294,72
16:41:12.929,,875,346,92
16:41:12.966,,944,376,156
16:41:13.003,,985,333,215
16:41:13.040,,977,411,304
16:41:13.077,,1077,272,241
16:41:13.114,,1048,168,280
16:41:13.151,,699,164,302
16:41:13.188,,665,168,274
16:41:13.225,,899,227,316
16:41:13.262,,975,150,321
16:41:13.299,,821,207,235
16:41:13.336,,725,302,206
16:41:13.372,,720,373,226
16:41:13.409,,759,371,256
16:41:13.446,,741,304,313
16:41:13.483,,723,317,419
16:41:13.520,,835,348,505
16:41:13.557,,997,339,522
16:41:13.594,,1159,405,494
16:41:13.631,,1123,352,404
16:41:13.668,,1272,404,411
16:41:13.705,,1193,397,409
16:41:13.742,,1033,327,320
16:41:13.779,,931,368,258
16:41:13.816,,1002,332,239
16:41:13.852,,1075,413,219
16:41:13.889,,1049,381,180
16:41:13.926,,985,444,156
16:41:13.963,,883,570,134
16:41:14.000,,817,580,200
16:41:14.037,,697,697,318
16:41:14.074,,628,841,428
16:41:14.111,,599,986,558
16:41:14.148,,575,993,596
16:41:14.185,,501,977,595
16:41:14.221,,345,926,650
16:41:14.258,,147,798,591
16:41:14.295,,-94,683,572
16:41:14.332,,-297,598,558
16:41:14.369,,-339,493,461
16:41:14.406,,-347,458,409
16:41:14.443,,-334,532,387
16:41:14.479,,-376,438,419
16:41:14.516,,-468,384,444
16:41:14.553,,-545,300,420
16:41:14.590,,-589,215,437
16:41:14.627,,-652,187,454
16:41:14.664,,-706,149,438
16:41:14.701,,-769,194,425
16:41:14.737,,-855,44,408
16:41:14.774,,-961,139,468
16:41:14.811,,-1061,69,446
16:41:14.848,,-1130,138,434
16:41:14.885,,-1227,190,424
16:41:14.922,,-1210,291,323
16:41:14.958,,-1036,389,314
16:41:14.995,,-932,221,262
16:41:15.032,,-938,297,148
16:41:15.069,,-870,374,141
16:41:15.105,,-820,231,212
16:41:15.142,,-831,136,248
16:41:15.179,,-860,114,242
16:41:15.216,,-872,103,216
16:41:15.252,,-877,133,295
16:41:15.289,,-908,169,325
16:41:15.326,,-977,180,349
16:41:15.363,,-1013,251,368
16:41:15.399,,-1042,200,414
16:41:15.436,,-1088,223,499
16:41:15.473,,-1186,184,525
16:41:15.510,,-1144,190,593
16:41:15.546,,-1021,231,514
16:41:15.583,,-810,209,367
16:41:15.620,,-651,281,364
16:41:15.657,,-584,243,405
16:41:15.693,,-581,68,506
16:41:15.728,,-782,25,268
16:41:15.764,,-833,-44,331
16:41:15.799,,-850,-25,507
16:41:15.834,,-827,20,493
16:41:15.870,,-767,1,486
16:41:15.905,,-766,-35,476
16:41:15.941,,-875,13,466
16:41:15.976,,-981,39,500
16:41:16.012,,-1077,-68,585
16:41:16.048,,-1214,-108,531
16:41:16.084,,-1306,-57,444
16:41:16.120,,-1303,-33,317
16:41:16.156,,-1090,228,364
16:41:16.192,,-905,60,209
16:41:16.227,,-854,160,133
16:41:16.263,,-739,180,171
16:41:16.298,,-670,140,164
16:41:16.332,,-668,159,166
16:41:16.366,,-702,184,219
16:41:16.400,,-793,171,234
16:41:16.433,,-819,258,352
16:41:16.467,,-842,291,423
16:41:16.501,,-764,336,355
16:41:16.535,,-600,543,240
16:41:16.569,,-512,575,208
16:41:16.604,,-297,428,126
16:41:16.639,,-31,610,281
16:41:16.674,,234,944,352
16:41:16.710,,440,731,347
16:41:16.747,,704,810,264
16:41:16.784,,914,860,305
16:41:16.821,,1221,670,332
16:41:16.858,,1414,599,231
16:41:16.895,,1431,527,116
16:41:16.931,,1345,543,60
16:41:16.968,,1191,643,62
16:41:17.005,,1013,703,57
16:41:17.042,,836,622,26
16:41:17.079,,801,547,43
16:41:17.116,,913,486,63
16:41:17.153,,1020,451,84
16:41:17.189,,1056,478,137
16:41:17.226,,935,490,176
16:41:17.263,,1032,617,230
16:41:17.300,,1025,684,300
16:41:17.337,,969,545,223
16:41:17.374,,899,461,114
16:41:17.410,,982,554,146
16:41:17.447,,1014,460,116
16:41:17.483,,981,370,42
16:41:17.519,,955,280,37
16:41:17.556,,965,261,48
16:41:17.592,,968,296,34
16:41:17.629,,942,298,11
16:41:17.665,,929,291,5
16:41:17.702,,923,297,21
16:41:17.739,,926,305,20
16:41:17.775,,871,296,54
16:41:17.812,,926,311,89
16:41:17.849,,984,406,145
16:41:17.886,,890,377,159
16:41:17.923,,842,423,268
16:41:17.960,,912,508,347
16:41:17.997,,968,453,257
16:41:18.033,,877,300,154
16:41:18.070,,778,231,162
16:41:18.107,,747,273,176
16:41:18.144,,744,350,159
16:41:18.181,,731,440,190
16:41:18.218,,688,450,212
16:41:18.255,,798,459,222
16:41:18.291,,993,478,271
16:41:18.328,,1192,483,304
16:41:18.365,,1157,408,287
16:41:18.402,,1268,487,305
16:41:18.439,,1181,536,358
16:41:18.476,,1062,448,265
16:41:18.513,,850,374,173
16:41:18.550,,862,423,142
16:41:18.586,,876,445,151
16:41:18.623,,829,392,73
16:41:18.660,,789,301,17
16:41:18.697,,785,284,9
16:41:18.734,,781,300,24
16:41:18.771,,765,350,53
16:41:18.808,,740,370,111
16:41:18.845,,805,359,125
16:41:18.881,,891,350,139
16:41:18.918,,1003,311,156
16:41:18.955,,1070,289,189
16:41:18.992,,1208,305,175
16:41:19.028,,1135,379,172
16:41:19.065,,897,365,199
16:41:19.101,,729,428,247
16:41:19.138,,827,526,257
16:41:19.175,,904,411,226
16:41:19.211,,821,220,158
16:41:19.248,,711,168,140
16:41:19.285,,693,246,160
16:41:19.321,,708,339,137
16:41:19.358,,712,425,162
16:41:19.394,,716,402,221
16:41:19.431,,801,389,233
16:41:19.467,,941,410,272
16:41:19.504,,1059,441,303
16:41:19.541,,1062,445,308
16:41:19.578,,1199,469,287
16:41:19.614,,1205,556,329
16:41:19.651,,1053,505,268
16:41:19.688,,824,411,169
16:41:19.725,,896,466,133
16:41:19.761,,931,474,153
16:41:19.798,,876,410,89
16:41:19.835,,834,317,47
16:41:19.871,,820,287,40
16:41:19.908,,820,286,25
16:41:19.945,,833,311,18
16:41:19.982,,818,328,46
16:41:20.018,,838,330,58
16:41:20.055,,918,323,59
16:41:20.092,,1058,304,56
16:41:20.129,,1112,303,106
16:41:20.166,,1210,351,135
16:41:20.202,,1038,343,197
16:41:20.239,,907,386,306
16:41:20.276,,822,385,321
16:41:20.313,,868,355,298
16:41:20.350,,866,257,250
16:41:20.386,,721,184,199
16:41:20.423,,675,235,190
16:41:20.460,,687,292,174
16:41:20.497,,690,361,198
16:41:20.533,,689,382,216
16:41:20.570,,750,410,252
16:41:20.607,,902,465,296
16:41:20.644,,1058,507,339
16:41:20.681,,1135,494,346
16:41:20.717,,1435,572,333
16:41:20.754,,1281,605,349
16:41:20.790,,976,428,205
16:41:20.827,,967,339,124
16:41:20.864,,1006,319,101
16:41:20.900,,941,282,85
16:41:20.937,,846,334,89
16:41:20.974,,741,369,63
16:41:21.010,,689,470,-38
16:41:21.047,,686,494,-109
16:41:21.084,,710,558,-136
16:41:21.121,,753,633,-110
16:41:21.158,,851,741,-37
16:41:21.194,,973,356,-335
16:41:21.231,,1104,443,-165
16:41:21.267,,1130,329,63
16:41:21.304,,1132,331,246
16:41:21.341,,959,758,333
16:41:21.378,,844,609,661
16:41:21.415,,679,365,560
16:41:21.452,,774,457,317
16:41:21.488,,852,616,326
16:41:21.525,,514,894,316
16:41:21.562,,278,657,6
16:41:21.599,,273,521,-223
16:41:21.636,,398,376,-82
16:41:21.672,,547,448,153
16:41:21.709,,715,280,400
16:41:21.746,,810,422,558
16:41:21.783,,917,792,482
16:41:21.820,,918,981,418
16:41:21.857,,792,874,390
16:41:21.893,,723,854,311
16:41:21.930,,669,987,283
16:41:21.967,,605,831,247
16:41:22.004,,584,685,173
16:41:22.040,,571,605,142
16:41:22.077,,567,572,153
16:41:22.114,,544,494,135
16:41:22.151,,519,396,109
16:41:22.188,,569,385,109
16:41:22.225,,689,393,124
16:41:22.262,,827,437,139
16:41:22.298,,974,418,142
16:41:22.335,,1152,361,134
16:41:22.372,,1266,330,102
16:41:22.409,,1160,380,135
16:41:22.446,,1261,433,159
16:41:22.483,,1203,474,98
16:41:22.520,,795,344,91
16:41:22.557,,798,379,229
16:41:22.594,,890,325,200
16:41:22.631,,774,128,83
16:41:22.668,,618,106,142
16:41:22.704,,588,199,187
16:41:22.741,,630,260,185
16:41:22.778,,731,302,218
16:41:22.815,,812,304,274
16:41:22.852,,931,318,329
16:41:22.889,,1119,352,385
16:41:22.926,,1247,357,394
16:41:22.963,,1128,270,367
16:41:23.000,,1015,251,310
16:41:23.037,,1095,437,312
16:41:23.074,,948,535,280
16:41:23.110,,992,537,169
16:41:23.147,,1111,560,133
16:41:23.184,,1089,428,75
16:41:23.221,,928,278,42
16:41:23.258,,802,213,53
16:41:23.295,,784,234,37
16:41:23.332,,815,288,8
16:41:23.369,,842,334,2
16:41:23.406,,901,335,11
16:41:23.443,,1006,310,34
16:41:23.480,,1100,294,62
16:41:23.517,,1123,291,97
16:41:23.554,,1170,352,144
16:41:23.590,,884,401,306
16:41:23.627,,723,371,400
16:41:23.664,,869,357,323
16:41:23.701,,972,308,251
16:41:23.738,,857,182,251
16:41:23.775,,711,228,283
16:41:23.812,,651,263,213
16:41:23.849,,660,292,167
16:41:23.886,,668,359,204
16:41:23.923,,700,385,247
16:41:23.960,,785,439,279
16:41:23.997,,898,545,315
16:41:24.033,,1104,564,302
16:41:24.070,,1107,538,261
16:41:24.107,,1030,513,209
16:41:24.144,,1080,599,240
16:41:24.181,,1050,549,192
16:41:24.218,,1139,347,64
16:41:24.255,,1162,226,-3
16:41:24.292,,949,243,-83
16:41:24.329,,676,441,-112
16:41:24.366,,599,525,-86
16:41:24.403,,641,454,-101
16:41:24.440,,689,361,-116
16:41:24.477,,719,363,-118
16:41:24.514,,777,377,-134
16:41:24.551,,886,316,-158
16:41:24.588,,1019,328,-144
16:41:24.625,,1089,361,-151
16:41:24.661,,1145,426,-165
16:41:24.698,,1140,442,-209
16:41:24.735,,956,480,-196
16:41:24.772,,879,524,-155
16:41:24.809,,905,496,-138
16:41:24.846,,868,402,-109
16:41:24.883,,715,352,-67
16:41:24.920,,632,339,-70
16:41:24.957,,631,353,-100
16:41:24.994,,649,372,-129
16:41:25.031,,661,393,-103
16:41:25.068,,668,444,-45
16:41:25.105,,740,539,0
16:41:25.142,,863,588,9
16:41:25.179,,1047,605,26
16:41:25.216,,1058,657,10
16:41:25.252,,949,689,-30
16:41:25.289,,1100,735,-21
16:41:25.326,,1108,681,26
16:41:25.363,,952,479,53
16:41:25.400,,910,290,8
16:41:25.437,,983,271,38
16:41:25.474,,912,181,91
16:41:25.511,,775,211,73
16:41:25.548,,739,284,53
16:41:25.585,,748,365,34
16:41:25.622,,780,390,13
16:41:25.659,,822,390,24
16:41:25.696,,893,380,66
16:41:25.733,,1030,329,80
16:41:25.770,,1151,294,97
16:41:25.806,,1088,309,188
16:41:25.843,,1132,321,203
16:41:25.880,,1080,367,186
16:41:25.917,,807,322,215
16:41:25.954,,800,357,286
16:41:25.991,,898,350,237
16:41:26.028,,804,249,143
16:41:26.065,,648,207,136
16:41:26.102,,608,257,159
16:41:26.139,,637,303,131
16:41:26.176,,646,342,121
16:41:26.213,,696,403,186
16:41:26.250,,799,447,221
16:41:26.287,,936,472,254
16:41:26.324,,1109,503,306
16:41:26.360,,1109,470,328
16:41:26.397,,977,371,276
16:41:26.434,,1150,502,309
16:41:26.471,,1103,621,354
16:41:26.508,,1049,507,184
16:41:26.545,,1104,480,101
16:41:26.582,,1111,368,99
16:41:26.619,,962,251,113
16:41:26.656,,860,260,105
16:41:26.693,,819,310,62
16:41:26.730,,820,347,8
16:41:26.767,,786,345,-21
16:41:26.804,,725,307,-25
16:41:26.841,,733,291,-11
16:41:26.878,,819,297,-1
16:41:26.915,,970,338,15
16:41:26.952,,1013,333,82
16:41:26.988,,1179,364,93
16:41:27.025,,1174,417,142
16:41:27.062,,933,422,245
16:41:27.099,,910,440,305
16:41:27.136,,974,462,263
16:41:27.173,,922,291,169
16:41:27.210,,746,131,135
16:41:27.247,,680,148,157
16:41:27.284,,688,240,168
16:41:27.321,,741,461,159
16:41:27.358,,717,468,178
16:41:27.395,,705,396,209
16:41:27.432,,787,403,250
16:41:27.469,,946,425,277
16:41:27.506,,1071,439,273
16:41:27.543,,1007,401,249
16:41:27.579,,1178,504,259
16:41:27.616,,1194,621,299
16:41:27.653,,989,515,177
16:41:27.690,,917,408,71
16:41:27.727,,981,423,106
16:41:27.764,,920,324,96
16:41:27.801,,850,291,60
16:41:27.838,,815,298,41
16:41:27.875,,790,322,12
16:41:27.912,,779,328,-24
16:41:27.949,,814,407,-54
16:41:27.986,,842,597,-56
16:41:28.023,,857,678,-77
16:41:28.060,,909,637,-78
16:41:28.097,,936,545,-101
16:41:28.134,,867,646,-76
16:41:28.171,,919,523,-45
16:41:28.207,,864,591,179
16:41:28.244,,692,455,284
16:41:28.281,,709,451,285
16:41:28.318,,785,527,324
16:41:28.355,,814,450,345
16:41:28.392,,717,312,307
16:41:28.429,,621,328,262
16:41:28.466,,608,474,240
16:41:28.503,,604,355,181
16:41:28.540,,613,369,142
16:41:28.577,,642,576,121
16:41:28.614,,670,721,107
16:41:28.651,,794,705,200
16:41:28.688,,973,1227,427
16:41:28.725,,992,962,367
16:41:28.762,,1022,589,323
16:41:28.799,,1063,551,95
16:41:28.836,,1068,596,10
16:41:28.872,,978,265,-120
16:41:28.909,,939,275,-55
16:41:28.946,,897,94,52
16:41:28.983,,871,58,121
16:41:29.020,,876,174,119
16:41:29.057,,832,427,54
16:41:29.094,,738,575,77
16:41:29.131,,626,579,135
16:41:29.168,,555,514,219
16:41:29.205,,553,296,227
16:41:29.242,,637,157,219
16:41:29.279,,861,135,215
16:41:29.316,,1185,180,110
16:41:29.353,,1782,446,-145
16:41:29.390,,1582,753,-119
16:41:29.427,,1010,653,83
16:41:29.464,,972,629,184
16:41:29.501,,866,417,10
16:41:29.537,,780,310,-105
16:41:29.574,,711,301,-111
16:41:29.611,,646,256,-50
16:41:29.648,,621,268,2
16:41:29.685,,628,332,36
16:41:29.722,,671,399,108
16:41:29.759,,773,422,182
16:41:29.796,,935,517,248
16:41:29.833,,1114,571,318
16:41:29.870,,1159,518,346
16:41:29.907,,1226,414,321
16:41:29.944,,1260,555,398
16:41:29.981,,1076,413,368
16:41:30.018,,876,290,259
16:41:30.055,,872,417,263
16:41:30.092,,903,421,249
16:41:30.129,,827,349,162
16:41:30.166,,776,319,91
16:41:30.202,,798,328,66
16:41:30.239,,848,346,28
16:41:30.276,,873,344,13
16:41:30.313,,848,307,7
16:41:30.350,,908,301,4
16:41:30.387,,990,322,-7
16:41:30.424,,1083,374,2
16:41:30.461,,1072,407,91
16:41:30.498,,1144,389,131
16:41:30.535,,1030,405,227
16:41:30.572,,845,413,368
16:41:30.609,,684,330,386
16:41:30.646,,755,372,389
16:41:30.683,,844,327,399
16:41:30.720,,798,207,349
16:41:30.757,,726,180,296
16:41:30.794,,688,246,268
16:41:30.831,,702,325,241
16:41:30.867,,691,400,243
16:41:30.904,,661,421,255
16:41:30.941,,728,419,232
16:41:30.978,,854,415,240
16:41:31.015,,1026,386,249
16:41:31.052,,1052,381,258
16:41:31.089,,1104,413,246
16:41:31.126,,1267,579,319
16:41:31.163,,1190,646,349
16:41:31.200,,922,455,232
16:41:31.237,,884,381,134
16:41:31.274,,936,369,143
16:41:31.311,,852,344,157
16:41:31.348,,777,316,123
16:41:31.385,,756,312,79
16:41:31.422,,797,331,36
16:41:31.459,,827,327,16
16:41:31.496,,868,308,0
16:41:31.533,,910,303,10
16:41:31.569,,939,309,15
16:41:31.606,,1040,339,28
16:41:31.643,,1094,361,81
16:41:31.680,,1040,307,194
16:41:31.717,,1117,351,222
16:41:31.754,,810,327,287
16:41:31.791,,734,360,385
16:41:31.828,,881,444,378
16:41:31.865,,961,332,253
16:41:31.902,,848,216,210
16:41:31.939,,710,246,239
16:41:31.976,,684,280,216
16:41:32.013,,678,337,188
16:41:32.050,,684,383,189
16:41:32.087,,684,413,211
16:41:32.124,,713,417,266
16:41:32.161,,821,408,311
16:41:32.198,,966,363,305
16:41:32.235,,993,325,305
16:41:32.271,,1042,362,312
16:41:32.308,,1174,506,323
16:41:32.345,,1093,534,289
16:41:32.382,,871,447,219
16:41:32.419,,866,436,146
16:41:32.456,,994,497,161
16:41:32.493,,910,429,124
16:41:32.530,,791,317,73
16:41:32.567,,761,316,75
16:41:32.604,,771,330,81
16:41:32.641,,803,346,75
16:41:32.678,,839,324,78
16:41:32.715,,892,312,84
16:41:32.752,,973,303,89
16:41:32.789,,1073,310,97
16:41:32.826,,1059,328,139
16:41:32.863,,1132,339,139
16:41:32.900,,1137,360,154
16:41:32.937,,880,314,198
16:41:32.974,,682,345,241
16:41:33.011,,793,414,275
16:41:33.047,,901,381,272
16:41:33.084,,795,251,208
16:41:33.121,,707,203,200
16:41:33.158,,701,267,218
16:41:33.195,,720,322,216
16:41:33.232,,705,342,225
16:41:33.269,,696,347,250
16:41:33.306,,766,368,284
16:41:33.343,,918,412,315
16:41:33.380,,1014,423,325
16:41:33.417,,986,376,306
16:41:33.454,,1205,468,297
16:41:33.491,,1249,621,375
16:41:33.528,,1008,523,249
16:41:33.565,,817,430,159
16:41:33.602,,888,442,177
16:41:33.639,,930,439,152
16:41:33.676,,881,382,95
16:41:33.713,,838,326,69
16:41:33.750,,817,321,53
16:41:33.786,,826,325,40
16:41:33.823,,841,335,81
16:41:33.860,,855,372,174
16:41:33.897,,917,373,228
16:41:33.934,,985,322,195
16:41:33.971,,1027,277,202
16:41:34.008,,1020,254,248
16:41:34.045,,1096,273,205
16:41:34.082,,1056,287,185
16:41:34.119,,847,320,216
16:41:34.156,,753,369,221
16:41:34.193,,879,410,178
16:41:34.230,,975,342,160
16:41:34.267,,846,240,161
16:41:34.303,,716,244,164
16:41:34.340,,682,298,166
16:41:34.377,,704,323,160
16:41:34.414,,727,331,179
16:41:34.451,,711,332,253
16:41:34.488,,720,374,323
16:41:34.525,,803,455,405
16:41:34.562,,976,507,484
16:41:34.599,,1081,443,454
16:41:34.636,,1207,416,401
16:41:34.673,,1274,487,374
16:41:34.710,,1136,523,321
16:41:34.747,,875,459,197
16:41:34.784,,901,496,129
16:41:34.821,,939,502,109
16:41:34.858,,878,407,60
16:41:34.895,,824,348,21
16:41:34.932,,811,320,0
16:41:34.968,,814,306,-24
16:41:35.005,,818,315,16
16:41:35.042,,800,333,106
16:41:35.079,,818,326,144
16:41:35.116,,899,349,174
16:41:35.153,,1006,361,203
16:41:35.190,,1045,331,242
16:41:35.227,,1154,290,224
16:41:35.264,,1217,326,232
16:41:35.301,,950,324,307
16:41:35.338,,786,339,328
16:41:35.375,,877,380,259
16:41:35.412,,954,292,201
16:41:35.449,,839,200,182
16:41:35.486,,704,207,164
16:41:35.522,,652,266,135
16:41:35.559,,658,354,152
16:41:35.596,,660,411,176
16:41:35.633,,663,408,189
16:41:35.670,,721,424,238
16:41:35.707,,871,459,293
16:41:35.744,,1030,468,305
16:41:35.781,,1113,446,292
16:41:35.818,,1233,449,289
16:41:35.855,,1237,512,336
16:41:35.892,,1091,494,251
16:41:35.929,,878,450,178
16:41:35.966,,884,471,162
16:41:36.003,,871,511,167
16:41:36.040,,833,453,116
16:41:36.077,,813,358,70
16:41:36.113,,797,288,63
16:41:36.150,,796,268,59
16:41:36.187,,819,300,61
16:41:36.224,,826,337,86
16:41:36.261,,860,334,117
16:41:36.298,,916,309,123
16:41:36.335,,1027,288,141
16:41:36.372,,1041,272,178
16:41:36.409,,1097,293,203
16:41:36.446,,1212,347,196
16:41:36.483,,1029,322,198
16:41:36.520,,837,329,242
16:41:36.557,,786,364,242
16:41:36.593,,860,349,237
16:41:36.630,,863,273,205
16:41:36.667,,749,204,162
16:41:36.704,,700,232,159
16:41:36.741,,706,268,151
16:41:36.778,,690,305,129
16:41:36.815,,670,346,152
16:41:36.852,,706,400,199
16:41:36.889,,798,428,228
16:41:36.926,,911,439,262
16:41:36.963,,1044,454,303
16:41:37.000,,1103,444,317
16:41:37.037,,1214,454,294
16:41:37.073,,1299,619,382
16:41:37.110,,1019,561,321
16:41:37.147,,872,443,195
16:41:37.184,,965,495,216
16:41:37.221,,1017,428,201
16:41:37.258,,904,338,121
16:41:37.295,,829,274,88
16:41:37.332,,834,287,79
16:41:37.369,,858,323,48
16:41:37.406,,852,313,38
16:41:37.443,,857,282,36
16:41:37.480,,899,300,46
16:41:37.517,,975,301,61
16:41:37.554,,987,312,100
16:41:37.590,,1040,320,140
16:41:37.627,,1197,371,144
16:41:37.664,,1025,337,191
16:41:37.701,,854,345,289
16:41:37.738,,865,344,269
16:41:37.775,,953,316,210
16:41:37.812,,908,211,168
16:41:37.849,,778,188,159
16:41:37.886,,717,237,159
16:41:37.923,,713,318,126
16:41:37.960,,730,401,121
16:41:37.997,,704,448,157
16:41:38.034,,725,428,183
16:41:38.070,,885,422,212
16:41:38.107,,1032,394,224
16:41:38.144,,1125,409,259
16:41:38.181,,1041,429,288
16:41:38.218,,1138,535,338
16:41:38.255,,1169,656,439
16:41:38.292,,958,512,325
16:41:38.329,,846,396,225
16:41:38.366,,885,382,212
16:41:38.403,,904,380,194
16:41:38.440,,858,373,166
16:41:38.477,,806,288,117
16:41:38.514,,825,290,58
16:41:38.551,,871,314,32
16:41:38.588,,918,324,40
16:41:38.624,,968,317,53
16:41:38.661,,1044,317,63
16:41:38.698,,1128,329,92
16:41:38.735,,1078,348,161
16:41:38.772,,954,330,208
16:41:38.809,,1060,339,231
16:41:38.846,,837,299,258
16:41:38.883,,672,233,341
16:41:38.920,,806,314,376
16:41:38.957,,956,298,260
16:41:38.994,,859,217,195
16:41:39.031,,721,230,207
16:41:39.068,,715,284,188
16:41:39.105,,744,355,157
16:41:39.142,,772,448,151
16:41:39.178,,745,455,179
16:41:39.215,,798,417,195
16:41:39.252,,966,408,219
16:41:39.289,,1077,435,260
16:41:39.326,,991,480,309
16:41:39.363,,859,474,285
16:41:39.400,,1034,589,307
16:41:39.437,,1100,687,356
16:41:39.474,,1119,590,176
16:41:39.511,,1140,529,113
16:41:39.548,,1049,372,137
16:41:39.585,,923,248,131
16:41:39.622,,878,236,106
16:41:39.659,,903,296,85
16:41:39.696,,937,349,54
16:41:39.733,,972,339,26
16:41:39.770,,986,296,16
16:41:39.807,,986,251,25
16:41:39.843,,1023,275,39
16:41:39.880,,965,320,90
16:41:39.917,,954,316,110
16:41:39.954,,995,386,142
16:41:39.991,,711,314,193
16:41:40.028,,691,332,238
16:41:40.065,,844,431,268
16:41:40.102,,933,379,220
16:41:40.139,,852,229,173
16:41:40.176,,784,205,176
16:41:40.213,,792,262,202
16:41:40.250,,815,365,195
16:41:40.287,,796,414,188
16:41:40.324,,788,433,202
16:41:40.361,,838,428,239
16:41:40.398,,962,415,240
16:41:40.435,,1126,451,262
16:41:40.472,,1108,424,252
16:41:40.509,,1193,518,296
16:41:40.546,,1165,593,362
16:41:40.582,,1074,468,248
16:41:40.619,,1016,344,146
16:41:40.656,,1003,354,141
16:41:40.693,,950,371,135
16:41:40.730,,841,323,79
16:41:40.767,,785,293,37
16:41:40.804,,788,317,15
16:41:40.841,,817,336,-11
16:41:40.878,,829,303,-37
16:41:40.915,,859,278,-44
16:41:40.952,,917,286,-15
16:41:40.989,,999,307,-1
16:41:41.026,,997,327,58
16:41:41.063,,909,306,135
16:41:41.100,,1065,351,165
16:41:41.137,,1042,415,205
16:41:41.174,,810,362,258
16:41:41.211,,860,494,411
16:41:41.248,,890,523,394
16:41:41.285,,787,325,261
16:41:41.321,,740,170,215
16:41:41.358,,719,59,284
16:41:41.395,,718,408,254
16:41:41.432,,730,539,252
16:41:41.469,,667,478,249
16:41:41.506,,695,423,239
16:41:41.543,,867,164,312
16:41:41.580,,1104,298,326
16:41:41.617,,1188,475,250
16:41:41.654,,1359,776,143
16:41:41.691,,1306,694,126
16:41:41.728,,1164,414,193
16:41:41.765,,980,222,132
16:41:41.802,,984,233,71
16:41:41.839,,882,284,18
16:41:41.876,,740,351,23
16:41:41.913,,713,389,45
16:41:41.949,,719,382,24
16:41:41.986,,711,361,51
16:41:42.023,,659,353,116
16:41:42.060,,652,371,198
16:41:42.097,,702,349,234
16:41:42.134,,805,296,183
16:41:42.171,,999,292,191
16:41:42.208,,1134,336,233
16:41:42.245,,1320,359,192
16:41:42.282,,1347,389,171
16:41:42.318,,1086,389,140
16:41:42.355,,885,456,167
16:41:42.392,,952,534,141
16:41:42.429,,955,400,37
16:41:42.466,,812,245,-6
16:41:42.503,,703,252,40
16:41:42.540,,656,324,53
16:41:42.577,,638,392,41
16:41:42.614,,641,402,87
16:41:42.651,,626,425,171
16:41:42.688,,655,451,269
16:41:42.725,,836,519,372
16:41:42.762,,1064,512,399
16:41:42.798,,1123,437,391
16:41:42.835,,1099,381,361
16:41:42.872,,1233,513,389
16:41:42.909,,1001,389,243
16:41:42.946,,988,368,155
16:41:42.983,,1036,387,156
16:41:43.020,,916,360,134
16:41:43.057,,789,300,72
16:41:43.094,,745,294,30
16:41:43.130,,758,322,16
16:41:43.167,,765,322,11
16:41:43.204,,776,331,33
16:41:43.241,,825,355,92
16:41:43.278,,938,325,101
16:41:43.315,,1125,312,113
16:41:43.351,,1109,261,168
16:41:43.388,,1038,227,205
16:41:43.425,,1183,348,204
16:41:43.462,,924,315,181
16:41:43.499,,816,328,220
16:41:43.535,,909,471,296
16:41:43.572,,929,400,232
16:41:43.609,,769,189,139
16:41:43.646,,665,200,143
16:41:43.683,,666,265,175
16:41:43.720,,699,363,151
16:41:43.756,,693,396,154
16:41:43.793,,671,398,194
16:41:43.830,,767,410,253
16:41:43.867,,980,463,298
16:41:43.904,,1118,462,316
16:41:43.941,,1102,393,289
16:41:43.977,,1316,470,319
16:41:44.014,,1291,526,360
16:41:44.051,,1128,443,258
16:41:44.087,,915,363,201
16:41:44.124,,919,396,207
16:41:44.160,,897,399,187
16:41:44.197,,802,332,99
16:41:44.233,,757,296,49
16:41:44.270,,736,313,32
16:41:44.307,,764,322,4
16:41:44.343,,779,310,-22
16:41:44.380,,743,288,-17
16:41:44.416,,719,276,10
16:41:44.453,,730,313,59
16:41:44.489,,687,290,106
16:41:44.526,,631,265,152
16:41:44.563,,673,265,171
16:41:44.599,,614,199,182
16:41:44.636,,559,106,209
16:41:44.672,,877,80,134
16:41:44.709,,1500,272,-42
16:41:44.746,,1998,582,-37
16:41:44.782,,1560,575,302
16:41:44.819,,920,616,589
16:41:44.855,,758,352,447
16:41:44.892,,705,398,154
16:41:44.929,,748,203,179
16:41:44.965,,727,284,277
16:41:45.002,,723,461,411
16:41:45.038,,755,537,509
16:41:45.074,,814,608,545
16:41:45.111,,1152,762,567
16:41:45.147,,1787,483,482
16:41:45.184,,1985,370,115
16:41:45.220,,1769,463,42
16:41:45.257,,1412,238,121
16:41:45.293,,1097,316,122
16:41:45.330,,1001,450,74
16:41:45.366,,995,412,-20
16:41:45.403,,978,373,-150
16:41:45.439,,1036,308,-191
16:41:45.475,,973,170,-162
16:41:45.512,,797,66,-121
16:41:45.548,,628,111,-53
16:41:45.583,,493,241,29
16:41:45.619,,615,397,137
16:41:45.655,,581,413,285
16:41:45.691,,660,417,413
16:41:45.728,,1025,402,484
16:41:45.764,,1432,345,406
16:41:45.800,,1452,207,339
16:41:45.837,,1178,268,386
16:41:45.873,,1078,255,272
16:41:45.910,,1145,350,246
16:41:45.946,,1180,565,219
16:41:45.983,,1049,650,255
16:41:46.019,,926,717,319
16:41:46.055,,945,811,311
16:41:46.092,,929,686,255
16:41:46.128,,1182,728,235
16:41:46.164,,1196,669,253
16:41:46.201,,1205,452,146
16:41:46.237,,1334,420,124
16:41:46.274,,1321,387,92
16:41:46.310,,1219,356,95
16:41:46.346,,1140,369,93
16:41:46.383,,1065,354,37
16:41:46.419,,987,321,-14
16:41:46.456,,907,282,-18
16:41:46.492,,802,260,1
16:41:46.528,,723,239,14
16:41:46.564,,697,224,17
16:41:46.600,,648,209,33
16:41:46.636,,651,263,97
16:41:46.673,,911,402,173
16:41:46.709,,937,391,201
16:41:46.746,,1049,356,283
16:41:46.782,,1391,533,369
16:41:46.818,,1390,515,279
16:41:46.854,,1026,308,200
16:41:46.891,,825,246,175
16:41:46.927,,833,257,148
16:41:46.963,,875,377,169
16:41:47.000,,868,449,235
16:41:47.036,,828,528,214
16:41:47.072,,882,530,260
16:41:47.109,,976,621,328
16:41:47.145,,960,601,345
16:41:47.181,,1171,581,302
16:41:47.218,,1235,632,369
16:41:47.254,,1148,443,209
16:41:47.290,,1232,397,145
16:41:47.327,,1168,372,173
16:41:47.363,,1007,331,134
16:41:47.399,,896,322,94
16:41:47.436,,823,299,52
16:41:47.472,,799,286,24
16:41:47.509,,816,289,19
16:41:47.545,,850,288,25
16:41:47.581,,903,269,35
16:41:47.618,,955,272,59
16:41:47.654,,908,260,122
16:41:47.691,,882,306,185
16:41:47.727,,1060,415,244
16:41:47.763,,906,321,242
16:41:47.800,,940,268,261
16:41:47.836,,1050,399,308
16:41:47.872,,1009,402,267
16:41:47.909,,839,339,227
16:41:47.945,,748,320,196
16:41:47.981,,781,336,212
16:41:48.017,,857,369,238
16:41:48.054,,867,382,226
16:41:48.090,,882,435,253
16:41:48.126,,939,566,331
16:41:48.163,,1018,648,354
16:41:48.199,,925,549,293
16:41:48.235,,1199,570,250
16:41:48.272,,1267,649,348
16:41:48.308,,1225,491,206
16:41:48.344,,1213,474,237
16:41:48.381,,1107,384,200
16:41:48.417,,933,318,138
16:41:48.453,,829,290,113
16:41:48.490,,785,287,84
16:41:48.526,,792,285,50
16:41:48.563,,848,273,19
16:41:48.599,,866,259,7
16:41:48.636,,869,254,10
16:41:48.672,,858,273,47
16:41:48.708,,802,348,140
16:41:48.745,,1082,429,179
16:41:48.781,,1065,398,221
16:41:48.818,,1038,310,300
16:41:48.854,,1078,348,395
16:41:48.890,,1056,354,321
16:41:48.926,,840,255,242
16:41:48.963,,644,253,211
16:41:48.999,,627,271,167
16:41:49.035,,729,340,168
16:41:49.072,,840,412,188
16:41:49.108,,855,472,199
16:41:49.144,,952,556,277
16:41:49.181,,1065,670,370
16:41:49.217,,1021,621,394
16:41:49.253,,1050,499,252
16:41:49.290,,1303,688,354
16:41:49.326,,1116,577,245
16:41:49.362,,1168,576,186
16:41:49.399,,1221,511,210
16:41:49.435,,1108,387,185
16:41:49.471,,964,304,138
16:41:49.508,,903,294,117
16:41:49.544,,895,315,87
16:41:49.580,,899,308,58
16:41:49.617,,894,281,33
16:41:49.653,,888,275,16
16:41:49.690,,817,247,18
16:41:49.726,,710,245,71
16:41:49.763,,803,305,115
16:41:49.799,,1014,447,160
16:41:49.836,,938,372,259
16:41:49.872,,1135,440,432
16:41:49.908,,1232,404,407
16:41:49.945,,985,200,255
16:41:49.981,,714,134,241
16:41:50.017,,658,235,210
16:41:50.053,,718,349,175
16:41:50.090,,793,449,200
16:41:50.126,,861,502,259
16:41:50.163,,901,495,268
16:41:50.199,,988,536,324
16:41:50.235,,1052,638,373
16:41:50.272,,1031,577,297
16:41:50.308,,1438,708,323
16:41:50.345,,1270,617,297
16:41:50.381,,1205,412,209
16:41:50.418,,1168,421,254
16:41:50.454,,1001,371,200
16:41:50.490,,855,346,148
16:41:50.527,,804,354,117
16:41:50.563,,844,372,139
16:41:50.600,,932,345,124
16:41:50.636,,933,276,84
16:41:50.673,,896,219,86
16:41:50.709,,901,237,119
16:41:50.746,,863,265,111
16:41:50.782,,756,239,94
16:41:50.819,,1003,318,76
16:41:50.855,,933,320,83
16:41:50.892,,958,366,147
16:41:50.928,,1104,504,284
16:41:50.964,,1090,550,342
16:41:51.001,,822,323,265
16:41:51.037,,638,222,181
16:41:51.073,,636,221,222
16:41:51.110,,733,295,300
16:41:51.146,,797,362,313
16:41:51.182,,851,452,375
16:41:51.219,,976,552,519
16:41:51.255,,1156,594,552
16:41:51.292,,1143,530,456
16:41:51.328,,1327,544,419
16:41:51.365,,1207,543,443
16:41:51.401,,1107,424,252
16:41:51.437,,1303,504,230
16:41:51.474,,1266,565,197
16:41:51.510,,1004,360,105
16:41:51.547,,808,250,71
16:41:51.583,,734,241,43
16:41:51.620,,733,257,-2
16:41:51.656,,750,264,-23
16:41:51.692,,809,311,-3
16:41:51.729,,958,345,58
16:41:51.765,,1109,385,108
16:41:51.802,,1115,408,193
16:41:51.838,,1118,372,232
16:41:51.874,,1025,330,254
16:41:51.910,,923,275,273
16:41:51.946,,1124,320,285
16:41:51.982,,1228,287,213
16:41:52.018,,1067,179,128
16:41:52.054,,779,172,170
16:41:52.091,,613,263,206
16:41:52.127,,513,382,176
16:41:52.163,,496,438,159
16:41:52.200,,553,400,185
16:41:52.236,,639,412,231
16:41:52.272,,713,359,300
16:41:52.309,,884,369,326
16:41:52.345,,1129,423,336
16:41:52.381,,1242,437,331
16:41:52.418,,1075,410,288
16:41:52.454,,1155,450,262
16:41:52.491,,1119,591,327
16:41:52.527,,954,529,203
16:41:52.563,,1024,583,146
16:41:52.600,,1020,515,144
16:41:52.636,,886,320,69
16:41:52.672,,760,206,56
16:41:52.708,,729,200,82
16:41:52.744,,755,257,65
16:41:52.781,,833,327,29
16:41:52.817,,953,337,43
16:41:52.854,,1052,293,59
16:41:52.890,,1110,244,51
16:41:52.927,,1046,277,86
16:41:52.963,,1029,327,105
16:41:52.999,,1059,466,135
16:41:53.036,,802,402,226
16:41:53.072,,891,418,322
16:41:53.108,,1050,418,319
16:41:53.144,,931,228,174
16:41:53.180,,688,65,157
16:41:53.216,,594,160,198
16:41:53.253,,595,276,156
16:41:53.290,,626,425,182
16:41:53.327,,671,475,208
16:41:53.363,,827,464,218
16:41:53.400,,1052,464,247
16:41:53.437,,1247,448,275
16:41:53.474,,1243,444,317
16:41:53.510,,1308,470,358
16:41:53.547,,1286,488,375
16:41:53.584,,1077,334,237
16:41:53.621,,1036,263,39
16:41:53.658,,1070,307,9
16:41:53.695,,952,413,19
16:41:53.732,,790,379,-151
16:41:53.768,,651,445,-282
16:41:53.805,,615,527,-283
16:41:53.842,,567,485,-292
16:41:53.879,,532,372,-206
16:41:53.916,,583,428,-68
16:41:53.953,,712,724,40
16:41:53.990,,942,497,102
16:41:54.026,,978,616,168
16:41:54.063,,975,814,218
16:41:54.100,,890,927,62
16:41:54.137,,824,1003,-252
16:41:54.174,,933,607,-322
16:41:54.210,,1088,775,-184
16:41:54.247,,897,751,-173
16:41:54.284,,522,336,-318
16:41:54.321,,333,249,-274
16:41:54.358,,576,-43,31
16:41:54.395,,91,1056,-516
16:41:54.431,,368,-18,76
16:41:54.468,,365,249,233
16:41:54.505,,607,650,256
16:41:54.542,,713,1009,240
16:41:54.579,,756,1015,260
16:41:54.615,,736,1168,375
16:41:54.652,,649,1160,441
16:41:54.689,,574,1185,480
16:41:54.726,,581,1044,444
16:41:54.763,,515,782,364
16:41:54.800,,468,730,299
16:41:54.836,,461,742,307
16:41:54.873,,418,558,303
16:41:54.910,,349,441,250
16:41:54.947,,281,343,189
16:41:54.984,,259,312,148
16:41:55.021,,322,376,125
16:41:55.057,,484,460,126
16:41:55.094,,766,657,75
16:41:55.131,,1207,611,-24
16:41:55.168,,1500,490,34
16:41:55.205,,1548,412,139
16:41:55.242,,1569,351,137
16:41:55.278,,1302,412,137
16:41:55.315,,966,468,204
16:41:55.352,,799,427,150
16:41:55.389,,852,327,92
16:41:55.426,,793,142,67
16:41:55.463,,652,73,34
16:41:55.500,,597,75,36
16:41:55.536,,621,230,48
16:41:55.573,,666,301,99
16:41:55.610,,718,351,151
16:41:55.647,,775,384,241
16:41:55.684,,899,396,364
16:41:55.721,,1091,332,316
16:41:55.757,,1201,307,261
16:41:55.794,,1217,327,293
16:41:55.831,,1254,476,320
16:41:55.867,,1165,552,300
16:41:55.904,,1067,489,203
16:41:55.941,,876,421,130
16:41:55.978,,973,413,94
16:41:56.014,,1037,399,73
16:41:56.051,,977,309,36
16:41:56.088,,880,231,13
16:41:56.124,,801,245,3
16:41:56.161,,758,276,-7
16:41:56.198,,739,313,4
16:41:56.235,,763,335,35
16:41:56.272,,779,322,54
16:41:56.309,,901,314,66
16:41:56.345,,1062,293,73
16:41:56.382,,1153,319,125
16:41:56.419,,1219,338,161
16:41:56.456,,1173,361,141
16:41:56.493,,991,380,192
16:41:56.530,,892,359,221
16:41:56.567,,929,313,186
16:41:56.604,,933,239,134
16:41:56.641,,777,158,150
16:41:56.677,,669,180,166
16:41:56.714,,634,220,144
16:41:56.751,,650,283,140
16:41:56.788,,686,338,178
16:41:56.825,,715,329,192
16:41:56.862,,773,371,218
16:41:56.899,,899,424,245
16:41:56.936,,1148,451,248
16:41:56.973,,1248,389,239
16:41:57.010,,1272,389,238
16:41:57.047,,1205,505,288
16:41:57.083,,1186,545,236
16:41:57.120,,980,463,129
16:41:57.157,,944,414,72
16:41:57.194,,982,362,77
16:41:57.231,,931,340,61
16:41:57.268,,813,270,37
16:41:57.305,,713,265,15
16:41:57.342,,674,289,6
16:41:57.379,,689,307,1
16:41:57.416,,748,321,1
16:41:57.453,,869,311,-5
16:41:57.490,,1019,291,18
16:41:57.527,,1199,282,49
16:41:57.563,,1251,271,88
16:41:57.600,,1255,340,111
16:41:57.637,,1145,441,165
16:41:57.674,,956,465,226
16:41:57.711,,869,421,230
16:41:57.748,,896,371,211
16:41:57.785,,802,221,158
16:41:57.822,,628,147,198
16:41:57.859,,565,180,230
16:41:57.896,,581,257,249
16:41:57.933,,612,279,263
16:41:57.970,,618,270,298
16:41:58.006,,620,290,327
16:41:58.043,,745,347,340
16:41:58.080,,935,398,321
16:41:58.117,,1078,397,315
16:41:58.154,,1103,388,292
16:41:58.191,,1204,461,264
16:41:58.228,,1182,531,271
16:41:58.265,,1129,530,237
16:41:58.302,,857,416,168
16:41:58.339,,999,380,137
16:41:58.376,,1059,379,122
16:41:58.413,,1011,307,86
16:41:58.450,,867,261,88
16:41:58.487,,714,286,78
16:41:58.523,,620,329,64
16:41:58.560,,597,367,57
16:41:58.597,,632,381,42
16:41:58.634,,746,448,42
16:41:58.671,,905,887,-4
16:41:58.708,,1090,1033,4
16:41:58.745,,1219,1086,404
16:41:58.782,,1130,981,554
16:41:58.819,,1023,643,572
16:41:58.856,,964,462,580
16:41:58.892,,884,276,505
16:41:58.929,,798,321,394
16:41:58.966,,653,309,375
16:41:59.003,,463,199,364
16:41:59.040,,347,172,388
16:41:59.077,,307,122,437
16:41:59.114,,296,166,532
16:41:59.151,,310,272,709
16:41:59.187,,251,241,801
16:41:59.224,,179,215,842
16:41:59.261,,147,238,961
16:41:59.298,,152,247,1028
16:41:59.335,,167,334,1070
16:41:59.372,,111,458,1077
16:41:59.409,,128,744,1175
16:41:59.446,,185,941,1156
16:41:59.483,,131,709,875
16:41:59.520,,54,723,875
16:41:59.556,,38,538,816
16:41:59.593,,20,381,697
16:41:59.630,,27,473,790
16:41:59.667,,-35,374,681
16:41:59.704,,-66,329,619
16:41:59.741,,-53,389,741
16:41:59.778,,-50,352,832
16:41:59.815,,-51,314,1025
16:41:59.852,,-80,303,1099
16:41:59.889,,-64,414,1188
16:41:59.925,,-66,423,1157
16:41:59.962,,-20,444,1242
16:41:59.999,,36,406,1228
16:42:00.036,,116,243,1056
16:42:00.073,,69,225,803
16:42:00.110,,23,219,597
16:42:00.147,,142,252,714
16:42:00.184,,167,157,774
16:42:00.221,,102,98,715
16:42:00.257,,110,62,914
16:42:00.294,,63,-30,925
16:42:00.331,,103,-20,1086
16:42:00.368,,83,-165,1105
16:42:00.405,,120,-84,1177
16:42:00.442,,103,15,1158
16:42:00.479,,40,-8,1143
16:42:00.516,,-29,41,1220
16:42:00.553,,-85,5,1210
16:42:00.590,,-75,91,1292
16:42:00.626,,-39,79,1190
16:42:00.663,,-118,85,1055
16:42:00.700,,-163,63,953
16:42:00.737,,-109,120,935
16:42:00.774,,-102,59,857
16:42:00.811,,-116,-13,765
16:42:00.848,,-154,-43,709
16:42:00.885,,-162,-100,711
16:42:00.922,,-158,-140,781
16:42:00.959,,-133,-192,889
16:42:00.995,,-134,-230,963
16:42:01.032,,-120,-291,1062
16:42:01.069,,-147,-269,1121
16:42:01.106,,-77,-296,1143
16:42:01.143,,-23,-225,1196
16:42:01.180,,-9,-127,1286
16:42:01.217,,97,-116,1260
16:42:01.254,,176,-55,1143
16:42:01.290,,182,-18,1037
16:42:01.327,,242,25,962
16:42:01.364,,262,-47,894
16:42:01.401,,206,-135,824
16:42:01.438,,150,-161,784
16:42:01.475,,131,-188,816
16:42:01.512,,82,-226,805
16:42:01.549,,52,-266,854
16:42:01.585,,55,-289,911
16:42:01.622,,69,-353,940
16:42:01.659,,61,-390,915
16:42:01.696,,72,-313,955
16:42:01.733,,-63,-201,966
16:42:01.770,,-120,13,1081
16:42:01.807,,-111,63,1181
16:42:01.844,,-42,245,1195
16:42:01.881,,-75,267,1067
16:42:01.917,,-93,363,1053
16:42:01.954,,-66,306,1007
16:42:01.991,,-85,171,860
16:42:02.028,,-136,163,829
16:42:02.065,,-162,158,886
16:42:02.102,,-146,135,954
16:42:02.139,,-81,122,1027
16:42:02.176,,10,159,1111
16:42:02.212,,55,96,1150
16:42:02.249,,69,90,1067
16:42:02.286,,94,221,1057
16:42:02.323,,113,285,1062
16:42:02.360,,94,314,966
16:42:02.397,,167,289,652
16:42:02.434,,320,200,332
16:42:02.471,,549,290,296
16:42:02.508,,734,463,375
16:42:02.544,,974,428,367
16:42:02.581,,1105,466,360
16:42:02.618,,1150,396,314
16:42:02.655,,1185,318,254
16:42:02.692,,1226,284,184
16:42:02.729,,1189,365,166
16:42:02.766,,1065,402,198
16:42:02.803,,926,383,150
16:42:02.840,,981,457,161
16:42:02.877,,1047,565,170
16:42:02.914,,1099,641,170
16:42:02.950,,1057,567,249
16:42:02.987,,1169,612,227
16:42:03.024,,1089,564,246
16:42:03.061,,907,563,306
16:42:03.098,,687,514,281
16:42:03.135,,798,531,156
16:42:03.172,,952,480,121
16:42:03.209,,933,379,162
16:42:03.246,,862,317,155
16:42:03.283,,823,322,122
16:42:03.320,,853,357,91
16:42:03.357,,887,368,75
16:42:03.394,,880,332,78
16:42:03.430,,854,306,102
16:42:03.467,,852,309,131
16:42:03.504,,874,312,128
16:42:03.541,,914,322,143
16:42:03.578,,970,335,164
16:42:03.615,,1058,341,158
16:42:03.652,,1321,387,139
16:42:03.689,,1181,394,213
16:42:03.726,,981,444,289
16:42:03.763,,839,400,214
16:42:03.800,,891,293,119
16:42:03.837,,904,238,92
16:42:03.874,,816,237,97
16:42:03.910,,715,305,136
16:42:03.947,,618,371,196
16:42:03.984,,595,381,182
16:42:04.021,,612,467,183
16:42:04.058,,645,592,141
16:42:04.095,,734,648,144
16:42:04.132,,863,635,147
16:42:04.169,,888,560,115
16:42:04.206,,941,529,49
16:42:04.243,,1213,605,64
16:42:04.280,,1305,674,105
16:42:04.317,,1079,388,98
16:42:04.354,,850,399,39
16:42:04.391,,923,556,19
16:42:04.427,,867,477,-8
16:42:04.464,,786,330,-25
16:42:04.501,,725,296,1
16:42:04.538,,696,322,3
16:42:04.575,,684,362,15
16:42:04.612,,703,420,42
16:42:04.649,,726,443,88
16:42:04.686,,804,470,188
16:42:04.723,,935,417,205
16:42:04.760,,1059,398,207
16:42:04.797,,1106,375,258
16:42:04.833,,1143,389,227
16:42:04.870,,1265,384,196
16:42:04.907,,1109,383,196
16:42:04.944,,952,398,182
16:42:04.981,,977,397,141
16:42:05.018,,1051,347,72
16:42:05.055,,953,257,9
16:42:05.092,,783,245,7
16:42:05.129,,700,289,17
16:42:05.166,,617,362,-12
16:42:05.203,,578,409,25
16:42:05.240,,621,387,114
16:42:05.277,,709,423,207
16:42:05.313,,839,465,285
16:42:05.350,,1017,438,301
16:42:05.387,,1155,360,297
16:42:05.424,,1141,348,329
16:42:05.461,,1202,432,362
16:42:05.498,,1185,507,369
16:42:05.535,,1061,457,300
16:42:05.572,,850,317,190
16:42:05.609,,834,303,141
16:42:05.646,,856,337,142
16:42:05.683,,856,368,113
16:42:05.720,,820,337,65
16:42:05.757,,825,334,35
16:42:05.793,,821,336,21
16:42:05.830,,803,311,-7
16:42:05.867,,772,301,-9
16:42:05.904,,768,337,52
16:42:05.941,,799,371,125
16:42:05.978,,898,356,143
16:42:06.015,,1009,316,131
16:42:06.052,,1130,299,126
16:42:06.089,,1194,297,145
16:42:06.126,,1205,292,83
16:42:06.163,,1099,302,77
16:42:06.200,,939,197,118
16:42:06.236,,967,241,38
16:42:06.273,,1088,74,-146
16:42:06.310,,982,-18,-104
16:42:06.347,,823,19,-53
16:42:06.384,,767,102,-97
16:42:06.421,,730,161,-110
16:42:06.458,,740,231,-94
16:42:06.495,,773,257,-84
16:42:06.532,,835,279,-92
16:42:06.569,,1019,313,-50
16:42:06.606,,1164,351,-39
16:42:06.643,,1269,342,17
16:42:06.680,,1302,201,8
16:42:06.717,,1275,340,-45
16:42:06.753,,1140,-22,-112
16:42:06.790,,1007,-612,-326
16:42:06.827,,894,-373,-533
16:42:06.864,,950,-332,-413
16:42:06.901,,727,-223,-181
16:42:06.938,,622,196,-106
16:42:06.975,,655,151,-184
16:42:07.012,,673,133,-247
16:42:07.049,,730,40,-234
16:42:07.086,,827,23,-283
16:42:07.123,,1050,103,-273
16:42:07.160,,1192,116,-276
16:42:07.197,,1299,86,-388
16:42:07.234,,1304,-81,-418
16:42:07.271,,1389,-151,-402
16:42:07.307,,1065,105,-226
16:42:07.344,,660,145,-116
16:42:07.381,,805,-16,-367
16:42:07.418,,1020,-627,-465
16:42:07.455,,907,-567,-348
16:42:07.492,,777,-193,-255
16:42:07.529,,709,88,-232
16:42:07.566,,693,90,-172
16:42:07.603,,667,163,-76
16:42:07.640,,694,159,-11
16:42:07.677,,800,203,22
16:42:07.714,,982,334,86
16:42:07.751,,1134,302,123
16:42:07.787,,1205,379,110
16:42:07.824,,1074,469,89
16:42:07.861,,1148,593,109
16:42:07.898,,1210,599,44
16:42:07.935,,1117,427,-218
16:42:07.972,,1013,626,-360
16:42:08.009,,1104,645,-338
16:42:08.046,,1049,791,-391
16:42:08.083,,936,703,-431
16:42:08.120,,746,712,-385
16:42:08.157,,551,757,-194
16:42:08.194,,546,937,-120
16:42:08.230,,626,1006,-116
16:42:08.267,,679,1069,-25
16:42:08.304,,636,935,173
16:42:08.341,,567,904,325
16:42:08.378,,526,926,439
16:42:08.415,,426,732,569
16:42:08.452,,233,205,577
16:42:08.489,,53,-83,681
16:42:08.525,,67,47,863
16:42:08.562,,77,-218,777
16:42:08.599,,125,-43,788
16:42:08.636,,177,-173,832
16:42:08.673,,164,-168,857
16:42:08.710,,87,-223,828
16:42:08.747,,61,-176,862
16:42:08.784,,51,-206,848
16:42:08.820,,28,-222,851
16:42:08.857,,-22,-253,884
16:42:08.894,,-26,-297,935
16:42:08.931,,4,-376,996
16:42:08.968,,40,-415,1046
16:42:09.005,,47,-421,1100
16:42:09.042,,-16,-427,1120
16:42:09.079,,-73,-334,1136
16:42:09.115,,-92,-183,1219
16:42:09.152,,-43,-137,1166
16:42:09.189,,-108,-71,997
16:42:09.226,,-150,0,958
16:42:09.263,,-115,-25,902
16:42:09.300,,-93,-58,753
16:42:09.337,,-118,53,678
16:42:09.373,,-160,17,686
16:42:09.410,,-194,-45,720
16:42:09.447,,-135,-52,856
16:42:09.484,,-51,-88,996
16:42:09.521,,18,-199,1115
16:42:09.558,,91,-219,1159
16:42:09.595,,131,-226,1163
16:42:09.631,,171,-233,1145
16:42:09.668,,255,-243,1073
16:42:09.705,,264,-33,867
16:42:09.742,,345,117,710
16:42:09.779,,455,474,672
16:42:09.816,,592,525,752
16:42:09.853,,720,383,723
16:42:09.889,,869,176,461
16:42:09.926,,995,174,234
16:42:09.963,,1091,275,162
16:42:10.000,,1150,429,175
16:42:10.037,,1143,501,158
16:42:10.074,,1068,481,106
16:42:10.111,,972,474,119
16:42:10.148,,893,471,229
16:42:10.185,,879,491,285
16:42:10.221,,1012,583,265
16:42:10.258,,1195,561,311
16:42:10.295,,1182,508,303
16:42:10.332,,1230,550,286
16:42:10.369,,1115,516,381
16:42:10.406,,945,455,340
16:42:10.443,,911,395,215
16:42:10.480,,1065,393,136
16:42:10.517,,993,338,133
16:42:10.554,,872,365,144
16:42:10.591,,790,358,118
16:42:10.628,,775,366,56
16:42:10.664,,819,384,10
16:42:10.701,,863,375,24
16:42:10.738,,903,371,66
16:42:10.775,,911,322,99
16:42:10.812,,1034,284,105
16:42:10.849,,1103,266,148
16:42:10.886,,1098,246,186
16:42:10.923,,1158,258,165
16:42:10.960,,1041,301,162
16:42:10.997,,979,367,222
16:42:11.033,,866,393,234
16:42:11.070,,910,386,218
16:42:11.107,,980,326,184
16:42:11.144,,884,213,142
16:42:11.181,,752,174,142
16:42:11.218,,697,228,140
16:42:11.255,,690,301,115
16:42:11.292,,692,385,144
16:42:11.329,,678,378,187
16:42:11.366,,715,386,220
16:42:11.403,,799,402,286
16:42:11.440,,945,401,307
16:42:11.476,,1123,377,300
16:42:11.513,,1189,364,307
16:42:11.550,,1245,476,397
16:42:11.587,,1246,521,427
16:42:11.624,,1057,405,320
16:42:11.661,,883,284,187
16:42:11.698,,910,286,109
16:42:11.735,,957,350,111
16:42:11.772,,790,358,124
16:42:11.809,,708,351,87
16:42:11.846,,734,362,23
16:42:11.883,,793,378,-17
16:42:11.920,,845,317,-19
16:42:11.956,,946,269,-23
16:42:11.993,,1041,233,-24
16:42:12.030,,1037,282,57
16:42:12.067,,1119,371,128
16:42:12.104,,1132,417,166
16:42:12.141,,1082,380,154
16:42:12.178,,979,378,225
16:42:12.215,,890,379,304
16:42:12.252,,836,261,273
16:42:12.289,,952,181,183
16:42:12.326,,984,165,146
16:42:12.362,,880,155,173
16:42:12.399,,759,210,171
16:42:12.436,,670,271,158
16:42:12.473,,624,329,143
16:42:12.510,,621,393,138
16:42:12.547,,678,418,147
16:42:12.584,,732,391,210
16:42:12.621,,814,357,288
16:42:12.658,,943,300,286
16:42:12.695,,1112,382,232
16:42:12.732,,1167,377,258
16:42:12.769,,1201,441,338
16:42:12.805,,1162,553,400
16:42:12.842,,1118,563,348
16:42:12.879,,882,510,196
16:42:12.916,,1018,694,91
16:42:12.953,,1172,695,168
16:42:12.990,,1050,760,235
16:42:13.027,,863,712,265
16:42:13.064,,712,722,226
16:42:13.101,,700,870,195
16:42:13.137,,721,1086,385
16:42:13.174,,798,1282,665
16:42:13.211,,842,1691,823
16:42:13.248,,995,1609,823
16:42:13.285,,843,1167,660
16:42:13.322,,592,395,459
16:42:13.359,,445,-82,304
16:42:13.395,,313,-151,446
16:42:13.432,,281,250,646
16:42:13.469,,179,163,730
16:42:13.506,,-22,282,845
16:42:13.543,,-108,167,955
16:42:13.580,,-144,-126,803
16:42:13.617,,-92,-289,614
16:42:13.654,,-34,-386,601
16:42:13.691,,36,-321,651
16:42:13.727,,92,-381,680
16:42:13.764,,95,-469,651
16:42:13.801,,43,-545,697
16:42:13.838,,-39,-581,832
16:42:13.875,,-114,-612,976
16:42:13.912,,-141,-647,1053
16:42:13.949,,-152,-687,1071
16:42:13.986,,-200,-724,991
16:42:14.023,,-436,-385,1033
16:42:14.059,,-620,-324,1092
16:42:14.096,,-703,-297,1031
16:42:14.133,,-729,-237,949
16:42:14.170,,-557,-198,891
16:42:14.207,,-408,-270,790
16:42:14.244,,-327,-323,659
16:42:14.281,,-298,-235,535
16:42:14.318,,-256,-277,425
16:42:14.355,,-274,-305,496
16:42:14.391,,-385,-345,666
16:42:14.428,,-490,-437,876
16:42:14.465,,-560,-529,1048
16:42:14.502,,-545,-494,1133
16:42:14.539,,-370,-497,1141
16:42:14.576,,-128,-584,1080
16:42:14.613,,-301,-441,1023
16:42:14.650,,-461,57,1172
16:42:14.686,,-493,232,1203
16:42:14.723,,-443,-66,1181
16:42:14.760,,-408,-69,1088
16:42:14.797,,-362,-91,1022
16:42:14.834,,-228,-298,877
16:42:14.871,,-117,-308,785
16:42:14.908,,-37,-362,669
16:42:14.945,,-14,-412,606
16:42:14.982,,-47,-417,654
16:42:15.018,,-114,-508,722
16:42:15.055,,-237,-624,841
16:42:15.092,,-329,-649,953
16:42:15.129,,-362,-671,1007
16:42:15.166,,-420,-672,958
16:42:15.203,,-538,-615,924
16:42:15.240,,-586,-416,1045
16:42:15.277,,-544,-352,1022
16:42:15.313,,-536,-300,907
16:42:15.350,,-630,-93,842
16:42:15.387,,-548,-168,714
16:42:15.424,,-378,-385,655
16:42:15.461,,-303,-375,625
16:42:15.498,,-248,-430,567
16:42:15.535,,-244,-527,562
16:42:15.572,,-328,-543,599
16:42:15.609,,-548,-599,840
16:42:15.645,,-829,-734,952
16:42:15.682,,-717,-703,935
16:42:15.719,,-302,-696,902
16:42:15.756,,47,-662,898
16:42:15.793,,148,-604,892
16:42:15.830,,42,-669,825
16:42:15.867,,-127,-422,942
16:42:15.904,,-87,-340,944
16:42:15.940,,-2,-190,944
16:42:15.977,,103,-52,1061
16:42:16.014,,117,-153,1025
16:42:16.051,,82,-197,937
16:42:16.088,,38,-176,927
16:42:16.125,,-36,-231,879
16:42:16.162,,-61,-216,864
16:42:16.198,,-60,-192,922
16:42:16.235,,30,-270,881
16:42:16.272,,-66,-246,773
16:42:16.309,,-241,-109,872
16:42:16.346,,-352,-207,897
16:42:16.383,,-444,-193,865
16:42:16.420,,-381,442,419
16:42:16.456,,-450,1308,617
16:42:16.493,,-612,1381,869
16:42:16.530,,-677,1483,1179
16:42:16.567,,-677,1111,960
16:42:16.604,,-20,441,716
16:42:16.641,,44,444,712
16:42:16.678,,-142,348,493
16:42:16.714,,-278,332,364
16:42:16.751,,-310,466,409
16:42:16.788,,-367,648,572
16:42:16.825,,-381,588,748
16:42:16.862,,-357,522,682
16:42:16.899,,-307,748,593
16:42:16.935,,-155,843,630
16:42:16.972,,-15,652,598
16:42:17.009,,217,565,484
16:42:17.046,,430,573,378
16:42:17.083,,662,803,363
16:42:17.120,,964,779,421
16:42:17.156,,1145,583,435
16:42:17.193,,1066,507,325
16:42:17.230,,904,334,263
16:42:17.267,,842,262,253
16:42:17.304,,823,283,240
16:42:17.341,,786,387,234
16:42:17.378,,763,543,244
16:42:17.415,,805,605,251
16:42:17.452,,925,630,283
16:42:17.488,,1113,584,305
16:42:17.525,,1210,443,238
16:42:17.562,,1284,349,250
16:42:17.599,,1271,447,364
16:42:17.636,,1106,472,355
16:42:17.673,,907,551,343
16:42:17.710,,861,500,259
16:42:17.747,,928,457,225
16:42:17.784,,921,375,212
16:42:17.821,,783,298,155
16:42:17.857,,704,323,124
16:42:17.894,,680,373,101
16:42:17.931,,727,392,87
16:42:17.968,,788,367,73
16:42:18.005,,880,333,58
16:42:18.042,,992,313,59
16:42:18.079,,1123,318,67
16:42:18.116,,1141,332,76
16:42:18.153,,1139,347,113
16:42:18.189,,1213,396,78
16:42:18.226,,876,369,136
16:42:18.263,,834,435,322
16:42:18.300,,911,418,365
16:42:18.337,,864,281,232
16:42:18.374,,672,114,177
16:42:18.411,,623,146,262
16:42:18.448,,604,265,308
16:42:18.484,,625,318,266
16:42:18.521,,659,373,267
16:42:18.558,,701,413,295
16:42:18.595,,830,447,319
16:42:18.632,,1028,450,322
16:42:18.669,,1191,423,323
16:42:18.706,,1153,413,354
16:42:18.743,,1181,424,359
16:42:18.780,,1322,544,401
16:42:18.817,,1311,491,337
16:42:18.853,,990,307,212
16:42:18.890,,974,287,150
16:42:18.927,,966,240,135
16:42:18.964,,866,236,121
16:42:19.001,,727,309,73
16:42:19.038,,655,390,14
16:42:19.075,,681,436,-50
16:42:19.112,,716,439,-90
16:42:19.148,,746,404,-79
16:42:19.185,,798,373,-25
16:42:19.222,,893,398,25
16:42:19.259,,1016,413,55
16:42:19.296,,1166,412,108
16:42:19.333,,1169,374,192
16:42:19.369,,1272,388,263
16:42:19.406,,1099,365,370
16:42:19.443,,898,300,453
16:42:19.480,,941,209,415
16:42:19.517,,1066,199,314
16:42:19.554,,1017,121,231
16:42:19.590,,835,157,249
16:42:19.627,,719,215,293
16:42:19.664,,649,253,229
16:42:19.701,,615,309,134
16:42:19.738,,595,379,122
16:42:19.775,,602,431,193
16:42:19.811,,665,478,204
16:42:19.848,,774,426,208
16:42:19.885,,947,429,245
16:42:19.922,,1056,374,238
16:42:19.959,,1091,387,245
16:42:19.996,,1302,506,285
16:42:20.033,,1263,566,314
16:42:20.069,,1017,440,248
16:42:20.106,,935,347,180
16:42:20.143,,1074,362,192
16:42:20.180,,1034,295,162
16:42:20.217,,877,277,94
16:42:20.254,,679,292,62
16:42:20.290,,648,387,51
16:42:20.327,,679,481,16
16:42:20.364,,711,444,-41
16:42:20.401,,762,427,-57
16:42:20.438,,846,498,77
16:42:20.474,,1003,567,200
16:42:20.511,,1120,471,190
16:42:20.548,,1127,336,187
16:42:20.584,,1090,265,259
16:42:20.621,,995,228,287
16:42:20.657,,1006,240,234
16:42:20.693,,853,263,170
16:42:20.730,,819,305,139
16:42:20.766,,989,427,207
16:42:20.802,,1063,388,178
16:42:20.837,,901,294,151
16:42:20.873,,688,272,214
16:42:20.909,,604,317,257
16:42:20.945,,557,309,260
16:42:20.981,,557,327,264
16:42:21.017,,610,334,289
16:42:21.053,,725,349,332
16:42:21.090,,905,374,380
16:42:21.126,,1106,397,411
16:42:21.162,,1232,453,418
16:42:21.199,,1253,446,399
16:42:21.235,,1353,444,359
16:42:21.272,,1203,387,300
16:42:21.308,,963,249,156
16:42:21.345,,1111,309,150
16:42:21.381,,1108,345,155
16:42:21.418,,886,342,126
16:42:21.454,,620,312,95
16:42:21.491,,479,347,57
16:42:21.527,,479,400,15
16:42:21.564,,520,434,12
16:42:21.600,,545,505,102
16:42:21.637,,682,599,201
16:42:21.673,,860,621,241
16:42:21.710,,1045,483,272
16:42:21.746,,1152,379,335
16:42:21.782,,1087,271,330
16:42:21.819,,1213,306,273
16:42:21.855,,993,351,307
16:42:21.891,,860,374,319
16:42:21.928,,948,427,272
16:42:21.964,,999,313,183
16:42:22.001,,832,179,151
16:42:22.037,,686,181,181
16:42:22.074,,623,234,157
16:42:22.111,,590,283,125
16:42:22.148,,588,338,147
16:42:22.184,,633,399,209
16:42:22.221,,708,399,279
16:42:22.258,,845,441,346
16:42:22.295,,1110,444,367
16:42:22.331,,1294,437,359
16:42:22.368,,1334,454,352
16:42:22.405,,1250,522,376
16:42:22.441,,1123,517,339
16:42:22.478,,844,429,250
16:42:22.514,,870,434,212
16:42:22.551,,975,405,202
16:42:22.588,,941,322,144
16:42:22.624,,819,267,97
16:42:22.661,,678,273,78
16:42:22.697,,638,352,82
16:42:22.734,,646,404,72
16:42:22.770,,718,407,59
16:42:22.807,,869,383,75
16:42:22.843,,1044,327,110
16:42:22.879,,1247,254,130
16:42:22.916,,1269,213,163
16:42:22.952,,1200,250,210
16:42:22.988,,1159,337,204
16:42:23.024,,1003,379,223
16:42:23.060,,960,364,247
16:42:23.096,,1011,299,226
16:42:23.132,,1007,167,153
16:42:23.168,,794,26,116
16:42:23.204,,647,75,162
16:42:23.240,,594,159,177
16:42:23.276,,599,235,162
16:42:23.313,,631,298,183
16:42:23.349,,662,328,235
16:42:23.386,,691,365,278
16:42:23.422,,795,400,336
16:42:23.459,,1028,425,359
16:42:23.495,,1245,394,336
16:42:23.532,,1221,393,336
16:42:23.569,,1250,462,334
16:42:23.605,,1175,530,347
16:42:23.642,,988,453,253
16:42:23.678,,948,403,183
16:42:23.715,,985,400,205
16:42:23.751,,878,363,182
16:42:23.788,,736,324,124
16:42:23.824,,650,319,97
16:42:23.861,,646,357,93
16:42:23.897,,721,380,97
16:42:23.934,,839,351,100
16:42:23.970,,985,294,118
16:42:24.007,,1159,237,129
16:42:24.044,,1280,217,141
16:42:24.080,,1108,245,178
16:42:24.117,,1137,294,176
16:42:24.154,,1127,423,172
16:42:24.191,,780,349,206
16:42:24.227,,800,362,288
16:42:24.264,,939,394,301
16:42:24.301,,832,177,170
16:42:24.337,,616,43,134
16:42:24.374,,557,158,200
16:42:24.411,,613,254,216
16:42:24.448,,685,367,212
16:42:24.484,,720,414,262
16:42:24.521,,789,428,330
16:42:24.558,,949,429,355
16:42:24.594,,1117,449,374
16:42:24.631,,1116,427,391
16:42:24.667,,1242,443,336
16:42:24.704,,1341,594,416
16:42:24.740,,1082,483,305
16:42:24.777,,866,404,205
16:42:24.813,,892,438,255
16:42:24.850,,894,441,218
16:42:24.886,,795,391,142
16:42:24.923,,736,324,91
16:42:24.959,,737,311,73
16:42:24.995,,776,318,47
16:42:25.032,,836,302,50
16:42:25.068,,907,285,83
16:42:25.104,,1016,276,101
16:42:25.141,,1100,265,116
16:42:25.177,,1082,291,164
16:42:25.214,,1019,334,213
16:42:25.250,,1182,412,248
16:42:25.286,,907,353,326
16:42:25.323,,727,289,399
16:42:25.359,,850,318,393
16:42:25.395,,923,266,273
16:42:25.432,,770,176,212
16:42:25.469,,659,240,264
16:42:25.505,,642,285,237
16:42:25.542,,689,336,218
16:42:25.578,,734,415,251
16:42:25.615,,738,431,272
16:42:25.651,,834,429,298
16:42:25.688,,1062,460,326
16:42:25.724,,1244,505,337
16:42:25.760,,1432,559,306
16:42:25.797,,1452,677,392
16:42:25.833,,1194,521,322
16:42:25.870,,936,275,236
16:42:25.906,,958,316,232
16:42:25.943,,942,330,215
16:42:25.979,,798,350,175
16:42:26.015,,680,317,128
16:42:26.052,,603,304,89
16:42:26.088,,591,309,40
16:42:26.124,,651,316,32
16:42:26.161,,785,355,92
16:42:26.197,,966,342,126
16:42:26.233,,1174,290,127
16:42:26.269,,1247,270,186
16:42:26.306,,1256,280,218
16:42:26.342,,1058,300,205
16:42:26.378,,957,400,262
16:42:26.415,,808,394,289
16:42:26.451,,831,370,304
16:42:26.487,,934,359,295
16:42:26.523,,902,258,238
16:42:26.559,,791,157,198
16:42:26.596,,693,200,203
16:42:26.632,,660,237,201
16:42:26.668,,643,319,184
16:42:26.704,,637,370,215
16:42:26.741,,673,391,252
16:42:26.777,,760,369,251
16:42:26.813,,916,345,253
16:42:26.849,,1032,332,259
16:42:26.886,,1055,370,285
16:42:26.922,,946,390,291
16:42:26.958,,1130,504,321
16:42:26.995,,1305,618,382
16:42:27.031,,1138,486,302
16:42:27.067,,917,287,182
16:42:27.104,,846,292,146
16:42:27.140,,846,322,155
16:42:27.176,,797,385,150
16:42:27.213,,743,371,102
16:42:27.249,,768,369,56
16:42:27.286,,848,379,27
16:42:27.323,,896,322,29
16:42:27.359,,866,242,32
16:42:27.396,,829,228,52
16:42:27.433,,811,272,62
16:42:27.470,,766,310,93
16:42:27.506,,1001,296,93
16:42:27.543,,1581,443,272
16:42:27.580,,1308,412,484
16:42:27.616,,1071,303,334
16:42:27.653,,590,86,114
16:42:27.690,,376,72,159
16:42:27.727,,358,209,202
16:42:27.763,,468,388,204
16:42:27.800,,710,514,161
16:42:27.836,,996,528,204
16:42:27.872,,1232,620,353
16:42:27.909,,1341,666,454
16:42:27.945,,1139,523,321
16:42:27.981,,1303,504,291
16:42:28.018,,1135,490,315
16:42:28.054,,1044,365,153
16:42:28.090,,1016,423,140
16:42:28.126,,990,387,131
16:42:28.163,,906,352,141
16:42:28.199,,837,342,101
16:42:28.235,,825,346,40
16:42:28.272,,852,358,7
16:42:28.308,,858,323,14
16:42:28.344,,895,279,17
16:42:28.381,,997,269,44
16:42:28.417,,1096,265,70
16:42:28.454,,1008,245,104
16:42:28.490,,1000,258,126
16:42:28.526,,986,338,146
16:42:28.563,,854,373,258
16:42:28.599,,883,406,386
16:42:28.635,,993,404,398
16:42:28.672,,918,268,266
16:42:28.707,,732,133,223
16:42:28.743,,663,187,249
16:42:28.779,,686,263,222
16:42:28.816,,731,382,233
16:42:28.852,,739,456,293
16:42:28.888,,788,480,319
16:42:28.925,,931,500,387
16:42:28.961,,1073,484,413
16:42:28.998,,1119,443,385
16:42:29.034,,1322,485,355
16:42:29.070,,1260,567,388
16:42:29.107,,1060,492,281
16:42:29.143,,942,361,185
16:42:29.179,,1040,380,175
16:42:29.216,,1048,367,137
16:42:29.252,,940,338,120
16:42:29.289,,849,282,87
16:42:29.325,,776,272,51
16:42:29.362,,723,277,40
16:42:29.398,,659,282,66
16:42:29.435,,644,298,84
16:42:29.471,,684,299,80
16:42:29.507,,853,327,79
16:42:29.544,,1077,346,127
16:42:29.580,,1275,350,162
16:42:29.617,,1283,354,201
16:42:29.652,,1161,393,314
16:42:29.688,,992,391,342
16:42:29.725,,907,309,258
16:42:29.761,,886,258,206
16:42:29.797,,777,204,184
16:42:29.834,,693,219,166
16:42:29.870,,692,285,162
16:42:29.906,,799,359,178
16:42:29.943,,878,345,193
16:42:29.979,,791,311,188
16:42:30.016,,777,338,241
16:42:30.052,,865,401,300
16:42:30.089,,985,413,305
16:42:30.125,,958,372,270
16:42:30.162,,917,327,245
16:42:30.198,,1067,469,265
16:42:30.235,,1124,659,312
16:42:30.271,,1125,728,233
16:42:30.308,,1072,713,144
16:42:30.344,,997,404,114
16:42:30.381,,890,164,117
16:42:30.417,,853,108,112
16:42:30.454,,868,188,131
16:42:30.490,,884,356,137
16:42:30.526,,894,423,111
16:42:30.563,,918,350,66
16:42:30.600,,1033,270,42
16:42:30.636,,1130,263,66
16:42:30.673,,1044,307,143
16:42:30.710,,1058,338,158
16:42:30.746,,1055,360,124
16:42:30.783,,842,315,187
16:42:30.820,,892,313,265
16:42:30.856,,992,317,249
16:42:30.893,,859,217,149
16:42:30.930,,660,122,135
16:42:30.966,,589,208,178
16:42:31.003,,608,288,192
16:42:31.040,,646,357,199
16:42:31.076,,657,390,241
16:42:31.113,,713,404,295
16:42:31.150,,888,451,360
16:42:31.186,,1141,505,397
16:42:31.223,,1232,506,411
16:42:31.260,,1304,471,357
16:42:31.297,,1258,524,383
16:42:31.333,,1132,525,301
16:42:31.370,,1001,463,181
16:42:31.407,,988,431,176
16:42:31.444,,992,369,154
16:42:31.480,,878,317,123
16:42:31.517,,810,274,93
16:42:31.554,,786,285,60
16:42:31.591,,784,305,28
16:42:31.627,,796,311,16
16:42:31.664,,867,306,24
16:42:31.701,,953,276,36
16:42:31.738,,1113,267,56
16:42:31.775,,1099,265,103
16:42:31.812,,1199,328,134
16:42:31.848,,1081,375,185
16:42:31.885,,878,375,279
16:42:31.922,,870,383,323
16:42:31.959,,953,349,284
16:42:31.996,,865,227,192
16:42:32.032,,704,186,187
16:42:32.069,,655,242,200
16:42:32.106,,687,313,183
16:42:32.143,,739,363,211
16:42:32.180,,734,389,224
16:42:32.217,,751,378,277
16:42:32.254,,856,414,336
16:42:32.290,,1036,454,351
16:42:32.327,,1076,455,347
16:42:32.364,,1167,465,318
16:42:32.401,,1264,584,346
16:42:32.438,,1114,592,309
16:42:32.475,,1009,464,151
16:42:32.511,,1009,424,119
16:42:32.548,,990,318,123
16:42:32.585,,890,285,101
16:42:32.622,,838,276,73
16:42:32.659,,814,300,49
16:42:32.696,,786,320,28
16:42:32.732,,769,307,30
16:42:32.769,,815,290,36
16:42:32.806,,898,277,57
16:42:32.843,,1039,291,88
16:42:32.880,,1029,290,143
16:42:32.916,,1062,307,171
16:42:32.953,,1189,370,182
16:42:32.990,,982,369,231
16:42:33.027,,891,382,327
16:42:33.064,,955,401,334
16:42:33.100,,951,311,230
16:42:33.137,,772,144,151
16:42:33.174,,688,148,161
16:42:33.211,,679,225,159
16:42:33.248,,709,343,140
16:42:33.284,,711,412,156
16:42:33.321,,719,409,180
16:42:33.358,,834,411,212
16:42:33.395,,1026,419,243
16:42:33.432,,1187,450,278
16:42:33.468,,1049,416,307
16:42:33.505,,1024,433,313
16:42:33.542,,1095,623,430
16:42:33.579,,1025,587,346
16:42:33.615,,955,461,215
16:42:33.652,,972,444,187
16:42:33.689,,932,328,185
16:42:33.725,,849,230,129
16:42:33.761,,836,231,132
16:42:33.798,,876,271,97
16:42:33.834,,933,313,60
16:42:33.871,,947,304,50
16:42:33.907,,938,287,50
16:42:33.944,,961,291,72
16:42:33.980,,1015,326,92
16:42:34.017,,964,336,172
16:42:34.054,,1022,294,182
16:42:34.091,,1110,370,206
16:42:34.127,,879,318,300
16:42:34.164,,913,316,390
16:42:34.201,,1060,345,346
16:42:34.238,,944,214,187
16:42:34.274,,731,161,190
16:42:34.311,,703,244,197
16:42:34.348,,726,317,152
16:42:34.385,,731,420,168
16:42:34.421,,697,498,236
16:42:34.458,,694,513,308
16:42:34.495,,809,501,354
16:42:34.532,,967,452,412
16:42:34.569,,1107,392,471
16:42:34.605,,1287,404,491
16:42:34.642,,1462,495,516
16:42:34.679,,1320,442,454
16:42:34.716,,1075,301,304
16:42:34.752,,1129,245,155
16:42:34.789,,1197,280,88
16:42:34.826,,1087,367,84
16:42:34.863,,862,353,72
16:42:34.899,,591,314,31
16:42:34.936,,450,307,0
16:42:34.972,,421,323,0
16:42:35.009,,444,327,-2
16:42:35.045,,536,342,21
16:42:35.082,,689,383,50
16:42:35.118,,962,483,31
16:42:35.155,,1148,700,92
16:42:35.191,,1082,759,117
16:42:35.228,,1090,568,56
16:42:35.264,,921,506,38
16:42:35.300,,746,515,49
16:42:35.337,,730,698,83
16:42:35.374,,798,680,2
16:42:35.410,,901,840,165
16:42:35.447,,877,489,869
16:42:35.484,,607,252,710
16:42:35.521,,528,355,111
16:42:35.558,,501,542,-230
16:42:35.595,,470,458,-201
16:42:35.631,,580,503,50
16:42:35.668,,792,653,299
16:42:35.705,,931,794,459
16:42:35.742,,911,981,418
16:42:35.779,,790,948,356
16:42:35.816,,938,866,273
16:42:35.853,,970,1211,-32
16:42:35.889,,706,743,-296
16:42:35.926,,531,318,-322
16:42:35.963,,546,759,-256
16:42:36.000,,546,749,-7
16:42:36.037,,469,771,219
16:42:36.074,,438,243,291
16:42:36.111,,487,244,480
16:42:36.147,,541,464,382
16:42:36.184,,560,596,312
16:42:36.221,,623,672,278
16:42:36.258,,723,681,246
16:42:36.295,,834,560,224
16:42:36.332,,888,467,252
16:42:36.369,,995,494,219
16:42:36.406,,1269,605,155
16:42:36.442,,1073,664,182
16:42:36.479,,1032,558,238
16:42:36.516,,1175,439,166
16:42:36.553,,1022,300,16
16:42:36.590,,731,221,19
16:42:36.627,,638,263,23
16:42:36.664,,607,295,-10
16:42:36.701,,609,361,8
16:42:36.738,,609,379,101
16:42:36.774,,639,375,177
16:42:36.811,,743,405,241
16:42:36.848,,906,454,316
16:42:36.885,,1011,515,398
16:42:36.922,,1042,473,399
16:42:36.959,,1296,599,444
16:42:36.996,,1251,624,438
16:42:37.033,,986,465,283
16:42:37.070,,930,440,179
16:42:37.107,,924,401,201
16:42:37.144,,869,356,173
16:42:37.180,,826,328,145
16:42:37.217,,811,320,131
16:42:37.254,,794,322,103
16:42:37.291,,788,321,76
16:42:37.328,,820,305,59
16:42:37.365,,927,300,64
16:42:37.402,,1173,284,77
16:42:37.439,,1367,196,63
16:42:37.476,,1272,219,90
16:42:37.513,,1208,345,153
16:42:37.550,,960,445,217
16:42:37.586,,706,459,313
16:42:37.623,,762,398,330
16:42:37.660,,793,261,227
16:42:37.697,,735,143,141
16:42:37.734,,632,147,155
16:42:37.771,,609,231,197
16:42:37.808,,675,326,193
16:42:37.845,,750,394,207
16:42:37.882,,751,416,238
16:42:37.919,,795,408,271
16:42:37.955,,915,397,321
16:42:37.992,,1025,391,359
16:42:38.029,,1039,360,355
16:42:38.066,,1188,420,334
16:42:38.103,,1208,529,404
16:42:38.140,,993,472,321
16:42:38.177,,915,424,214
16:42:38.214,,1067,460,207
16:42:38.251,,1061,383,201
16:42:38.288,,904,267,123
16:42:38.325,,827,248,106
16:42:38.362,,820,270,93
16:42:38.398,,817,306,104
16:42:38.435,,791,302,115
16:42:38.472,,808,292,136
16:42:38.509,,871,283,176
16:42:38.546,,933,277,174
16:42:38.583,,933,278,221
16:42:38.620,,964,308,247
16:42:38.657,,1112,363,235
16:42:38.694,,997,356,218
16:42:38.731,,820,362,264
16:42:38.767,,1009,393,249
16:42:38.804,,904,248,176
16:42:38.841,,744,163,141
16:42:38.878,,705,223,169
16:42:38.915,,706,313,157
16:42:38.952,,715,383,170
16:42:38.989,,684,391,211
16:42:39.026,,721,383,252
16:42:39.063,,880,420,308
16:42:39.100,,1063,442,330
16:42:39.137,,1140,457,356
16:42:39.174,,1297,503,384
16:42:39.210,,1273,565,442
16:42:39.247,,1038,444,317
16:42:39.284,,828,352,213
16:42:39.321,,923,427,217
16:42:39.358,,1002,446,204
16:42:39.395,,936,350,125
16:42:39.432,,881,256,85
16:42:39.469,,871,254,71
16:42:39.506,,870,284,48
16:42:39.543,,852,294,25
16:42:39.580,,846,281,12
16:42:39.617,,851,286,17
16:42:39.654,,905,288,23
16:42:39.690,,981,313,71
