Sensors' Acquisition [Hz]: Acc@26.0 
hh:mm:ss.ms, Annotation , AccX [mg], AccY, AccZ
15:10:55.389,,1210,163,153
15:10:55.426,,1319,192,288
15:10:55.449,>Walk,,,
15:10:55.463,,1371,315,398
15:10:55.500,,1289,264,480
15:10:55.537,,1126,344,404
15:10:55.573,,1031,253,381
15:10:55.610,,891,59,511
15:10:55.647,,892,7,565
15:10:55.684,,804,60,585
15:10:55.721,,724,213,580
15:10:55.758,,883,410,601
15:10:55.794,,968,476,560
15:10:55.831,,1216,503,521
15:10:55.868,,1883,453,457
15:10:55.905,,1919,166,203
15:10:55.942,,1550,184,247
15:10:55.978,,1309,140,209
15:10:56.015,,1138,188,136
15:10:56.052,,977,195,67
15:10:56.089,,749,7,61
15:10:56.125,,630,-43,101
15:10:56.162,,655,-55,51
15:10:56.199,,663,-37,-20
15:10:56.236,,750,22,-1
15:10:56.272,,731,48,74
15:10:56.309,,871,124,151
15:10:56.346,,1203,140,253
15:10:56.383,,1351,128,345
15:10:56.419,,1841,196,288
15:10:56.456,,1553,258,354
15:10:56.493,,1178,301,460
15:10:56.530,,1038,88,473
15:10:56.567,,1041,-7,488
15:10:56.603,,939,36,548
15:10:56.640,,845,140,529
15:10:56.677,,837,313,510
15:10:56.714,,949,502,434
15:10:56.751,,1171,711,416
15:10:56.787,,1719,706,444
15:10:56.824,,1804,257,284
15:10:56.861,,1930,19,126
15:10:56.898,,1623,17,68
15:10:56.935,,1287,88,116
15:10:56.971,,1080,120,92
15:10:57.008,,843,132,62
15:10:57.045,,738,124,86
15:10:57.082,,768,8,25
15:10:57.118,,610,-76,-34
15:10:57.155,,597,-9,-1
15:10:57.191,,677,13,86
15:10:57.228,,650,82,174
15:10:57.264,,1022,119,172
15:10:57.301,,1408,52,214
15:10:57.338,,1743,116,174
15:10:57.375,,1820,253,176
15:10:57.411,,1539,415,338
15:10:57.448,,1251,436,359
15:10:57.485,,1053,300,337
15:10:57.522,,1072,113,436
15:10:57.559,,1082,113,527
15:10:57.595,,950,305,511
15:10:57.632,,963,525,467
15:10:57.669,,1176,707,516
15:10:57.706,,1826,812,508
15:10:57.743,,1855,304,166
15:10:57.779,,1966,48,-77
15:10:57.816,,1667,-93,-69
15:10:57.853,,1224,2,88
15:10:57.890,,1030,184,119
15:10:57.927,,834,250,53
15:10:57.963,,797,186,-4
15:10:58.000,,749,82,-61
15:10:58.036,,710,12,-55
15:10:58.070,,849,-31,-50
15:10:58.103,,899,-40,-35
15:10:58.138,,1185,52,-16
15:10:58.174,,1212,93,165
15:10:58.211,,1528,274,267
15:10:58.248,,1454,268,322
15:10:58.284,,1077,220,261
15:10:58.321,,905,257,305
15:10:58.358,,1030,298,463
15:10:58.395,,1110,457,760
15:10:58.432,,970,415,746
15:10:58.468,,865,175,589
15:10:58.505,,952,175,507
15:10:58.542,,1233,432,404
15:10:58.579,,1917,715,389
15:10:58.616,,1934,543,188
15:10:58.652,,1875,149,86
15:10:58.689,,1234,119,80
15:10:58.726,,1143,259,68
15:10:58.763,,1008,338,103
15:10:58.799,,876,221,75
15:10:58.836,,662,-92,3
15:10:58.873,,575,-109,19
15:10:58.910,,781,-37,-15
15:10:58.946,,803,-50,-35
15:10:58.983,,801,29,38
15:10:59.019,,729,138,146
15:10:59.056,,1164,271,140
15:10:59.092,,1402,349,55
15:10:59.129,,1685,622,-73
15:10:59.166,,1430,1097,25
15:10:59.203,,864,1101,102
15:10:59.239,,514,1306,446
15:10:59.276,,217,722,534
15:10:59.313,,245,341,527
15:10:59.350,,461,412,457
15:10:59.387,,613,756,426
15:10:59.423,,784,754,443
15:10:59.460,,1286,625,352
15:10:59.497,,1934,913,193
15:10:59.534,,1975,1014,88
15:10:59.571,,1844,587,-151
15:10:59.608,,1216,289,-48
15:10:59.644,,1002,376,42
15:10:59.681,,760,293,107
15:10:59.718,,570,226,31
15:10:59.754,,491,124,-8
15:10:59.791,,618,67,-26
15:10:59.828,,637,11,-52
15:10:59.864,,727,41,-72
15:10:59.901,,898,170,-18
15:10:59.937,,1138,256,55
15:10:59.974,,1074,305,224
15:11:00.011,,1496,425,225
15:11:00.048,,1564,464,265
15:11:00.084,,1195,535,361
15:11:00.121,,983,332,292
15:11:00.158,,1063,-19,445
15:11:00.195,,962,48,654
15:11:00.232,,712,231,798
15:11:00.268,,790,282,707
15:11:00.305,,997,430,626
15:11:00.342,,1162,553,571
15:11:00.379,,1860,540,389
15:11:00.416,,1942,305,-38
15:11:00.453,,1960,346,-72
15:11:00.489,,1612,236,-4
15:11:00.526,,1265,221,-69
15:11:00.563,,1063,315,-104
15:11:00.600,,825,327,-28
15:11:00.636,,739,136,-3
15:11:00.672,,633,-31,-1
15:11:00.708,,554,-95,-33
15:11:00.745,,503,-76,-40
15:11:00.781,,493,0,30
15:11:00.817,,819,166,120
15:11:00.853,,1324,326,294
15:11:00.890,,1633,373,356
15:11:00.927,,1881,424,155
15:11:00.963,,1511,506,185
15:11:01.000,,1178,363,172
15:11:01.037,,1081,53,116
15:11:01.074,,1029,15,164
15:11:01.111,,949,202,208
15:11:01.147,,838,394,167
15:11:01.184,,899,659,155
15:11:01.221,,1018,862,229
15:11:01.258,,1523,1220,516
15:11:01.295,,1600,958,369
15:11:01.331,,1871,288,132
15:11:01.368,,1906,-38,-42
15:11:01.405,,1601,-88,-71
15:11:01.442,,1359,-84,20
15:11:01.479,,948,26,190
15:11:01.516,,840,172,202
15:11:01.552,,733,51,29
15:11:01.589,,624,-55,-59
15:11:01.625,,655,-50,-90
15:11:01.662,,548,-5,-44
15:11:01.698,,535,177,125
15:11:01.735,,1069,373,188
15:11:01.771,,1474,386,282
15:11:01.808,,1880,325,219
15:11:01.845,,1593,417,188
15:11:01.882,,1161,484,363
15:11:01.919,,1097,341,434
15:11:01.956,,940,99,327
15:11:01.992,,808,311,487
15:11:02.029,,732,578,610
15:11:02.066,,946,817,562
15:11:02.103,,1208,1052,559
15:11:02.140,,1833,976,436
15:11:02.176,,1973,262,73
15:11:02.213,,1979,212,103
15:11:02.250,,1853,148,95
15:11:02.287,,1503,179,50
15:11:02.324,,1123,179,15
15:11:02.360,,770,99,45
15:11:02.397,,677,20,59
15:11:02.434,,560,-97,-6
15:11:02.470,,367,-106,14
15:11:02.507,,359,-24,56
15:11:02.543,,399,70,74
15:11:02.580,,561,260,138
15:11:02.617,,1080,545,214
15:11:02.653,,1776,764,321
15:11:02.690,,1681,1107,239
15:11:02.727,,1176,905,461
15:11:02.764,,759,727,665
15:11:02.801,,571,669,665
15:11:02.837,,539,674,665
15:11:02.874,,395,857,486
15:11:02.911,,353,567,407
15:11:02.948,,341,630,391
15:11:02.985,,512,711,389
15:11:03.021,,993,981,528
15:11:03.058,,1958,1154,175
15:11:03.095,,1884,632,-79
15:11:03.132,,1732,657,9
15:11:03.169,,1254,508,141
15:11:03.205,,974,338,114
15:11:03.242,,650,206,69
15:11:03.279,,430,-2,36
15:11:03.316,,283,-129,38
15:11:03.353,,215,-83,62
15:11:03.389,,239,-45,53
15:11:03.426,,289,47,48
15:11:03.463,,455,106,46
15:11:03.500,,722,172,64
15:11:03.537,,1578,227,-89
15:11:03.573,,1998,798,66
15:11:03.610,,1997,1163,496
15:11:03.647,,1256,844,400
15:11:03.684,,743,473,160
15:11:03.721,,720,8,190
15:11:03.758,,601,-204,256
15:11:03.794,,469,54,295
15:11:03.831,,420,393,355
15:11:03.868,,449,628,387
15:11:03.905,,688,684,343
15:11:03.942,,1367,876,333
15:11:03.978,,1967,1021,202
15:11:04.015,,1690,486,44
15:11:04.052,,1847,112,-88
15:11:04.089,,1515,58,-113
15:11:04.125,,1254,87,9
15:11:04.162,,940,34,143
15:11:04.199,,661,118,192
15:11:04.236,,591,102,117
15:11:04.273,,528,-66,18
15:11:04.310,,409,-76,-27
15:11:04.346,,462,-2,-11
15:11:04.383,,482,126,104
15:11:04.420,,699,246,212
15:11:04.457,,1214,382,226
15:11:04.494,,1863,426,144
15:11:04.530,,1933,535,203
15:11:04.567,,1411,647,480
15:11:04.604,,1012,364,387
15:11:04.641,,818,-68,276
15:11:04.678,,708,21,373
15:11:04.714,,731,200,442
15:11:04.751,,812,481,326
15:11:04.788,,1008,767,304
15:11:04.825,,1042,888,374
15:11:04.861,,1573,957,449
15:11:04.898,,1982,614,7
15:11:04.935,,1967,199,-220
15:11:04.972,,1502,68,-25
15:11:05.008,,1113,19,126
15:11:05.045,,918,173,96
15:11:05.082,,763,231,36
15:11:05.119,,681,179,14
15:11:05.156,,573,35,5
15:11:05.192,,470,-38,-53
15:11:05.229,,452,9,-67
15:11:05.266,,547,124,27
15:11:05.303,,794,180,115
15:11:05.340,,1387,371,166
15:11:05.376,,1828,388,144
15:11:05.413,,1888,695,43
15:11:05.450,,1165,418,132
15:11:05.487,,930,312,214
15:11:05.523,,849,323,242
15:11:05.560,,821,330,259
15:11:05.597,,842,367,262
15:11:05.634,,1010,500,376
15:11:05.670,,1232,629,497
15:11:05.707,,1803,725,549
15:11:05.744,,1495,324,121
15:11:05.781,,1732,114,-21
15:11:05.817,,1466,113,40
15:11:05.854,,1206,115,29
15:11:05.891,,885,183,39
15:11:05.928,,828,172,69
15:11:05.964,,696,46,5
15:11:06.001,,456,-41,2
15:11:06.038,,454,-1,-14
15:11:06.075,,466,76,14
15:11:06.111,,523,210,103
15:11:06.148,,704,305,198
15:11:06.185,,1106,299,209
15:11:06.222,,1717,369,182
15:11:06.259,,1953,426,143
15:11:06.295,,1357,386,230
15:11:06.332,,859,233,226
15:11:06.369,,729,68,207
15:11:06.406,,678,188,310
15:11:06.442,,790,251,413
15:11:06.479,,846,303,403
15:11:06.516,,913,421,309
15:11:06.553,,1081,536,350
15:11:06.589,,1516,698,558
15:11:06.626,,1776,506,309
15:11:06.663,,1812,294,43
15:11:06.700,,1797,146,-18
15:11:06.736,,1352,30,-16
15:11:06.773,,1130,99,32
15:11:06.810,,821,176,104
15:11:06.847,,701,230,122
15:11:06.884,,739,121,29
15:11:06.920,,573,-39,-76
15:11:06.957,,405,-17,-60
15:11:06.994,,458,45,10
15:11:07.031,,497,122,113
15:11:07.068,,699,228,169
15:11:07.104,,1064,413,103
15:11:07.141,,1601,828,-10
15:11:07.178,,1850,1395,-171
15:11:07.215,,1027,1094,-21
15:11:07.251,,732,376,166
15:11:07.288,,685,138,287
15:11:07.325,,648,320,274
15:11:07.362,,641,477,363
15:11:07.398,,710,541,310
15:11:07.435,,917,560,261
15:11:07.472,,1078,486,239
15:11:07.509,,1645,584,255
15:11:07.546,,1641,518,255
15:11:07.582,,1245,361,204
15:11:07.619,,1370,271,23
15:11:07.656,,1110,282,1
15:11:07.693,,966,247,46
15:11:07.730,,739,169,122
15:11:07.766,,599,156,116
15:11:07.803,,500,144,58
15:11:07.840,,442,116,15
15:11:07.877,,430,92,19
15:11:07.914,,528,111,26
15:11:07.951,,608,126,60
15:11:07.987,,719,126,87
15:11:08.024,,1516,216,18
15:11:08.061,,1599,283,211
15:11:08.098,,1981,547,279
15:11:08.135,,1784,483,207
15:11:08.171,,1062,426,197
15:11:08.208,,931,132,206
15:11:08.245,,972,-18,387
15:11:08.282,,880,94,552
15:11:08.319,,759,170,620
15:11:08.356,,697,252,467
15:11:08.392,,940,366,297
15:11:08.429,,920,516,302
15:11:08.466,,1333,706,392
15:11:08.503,,1986,695,157
15:11:08.540,,1993,288,-152
15:11:08.577,,1680,76,-124
15:11:08.613,,1348,0,-71
15:11:08.650,,1048,180,34
15:11:08.687,,835,269,84
15:11:08.724,,802,89,54
15:11:08.761,,712,-105,-61
15:11:08.798,,481,-143,-85
15:11:08.835,,405,-31,-31
15:11:08.872,,431,165,85
15:11:08.908,,743,251,138
15:11:08.945,,1095,246,171
15:11:08.982,,1576,356,204
15:11:09.019,,1995,495,122
15:11:09.056,,1563,469,178
15:11:09.093,,1023,198,200
15:11:09.130,,874,0,286
15:11:09.166,,991,138,326
15:11:09.203,,890,364,395
15:11:09.240,,905,552,365
15:11:09.277,,1057,675,325
15:11:09.314,,1043,677,368
15:11:09.350,,1112,672,425
15:11:09.387,,1410,584,384
15:11:09.424,,1563,448,92
15:11:09.461,,1935,225,-135
15:11:09.498,,1584,105,13
15:11:09.535,,1250,73,106
15:11:09.571,,953,168,96
15:11:09.608,,707,192,59
15:11:09.645,,564,153,34
15:11:09.682,,439,77,51
15:11:09.719,,437,83,90
15:11:09.756,,553,155,92
15:11:09.793,,730,205,95
15:11:09.829,,942,183,129
15:11:09.866,,1274,213,160
15:11:09.903,,1408,251,261
15:11:09.940,,1905,279,117
15:11:09.977,,1588,469,228
15:11:10.014,,961,169,219
15:11:10.051,,821,26,251
15:11:10.087,,738,330,351
15:11:10.124,,732,511,406
15:11:10.161,,847,441,346
15:11:10.198,,1005,353,233
15:11:10.235,,1068,354,267
15:11:10.272,,1111,478,339
15:11:10.308,,1354,632,359
15:11:10.345,,1249,554,217
15:11:10.382,,1603,395,22
15:11:10.419,,1424,160,12
15:11:10.456,,1160,59,30
15:11:10.493,,973,61,33
15:11:10.529,,727,141,145
15:11:10.566,,786,229,182
15:11:10.603,,713,121,46
15:11:10.640,,653,66,4
15:11:10.677,,710,96,81
15:11:10.714,,777,155,166
15:11:10.751,,963,190,177
15:11:10.787,,1212,215,188
15:11:10.824,,1469,230,210
15:11:10.861,,1783,289,98
15:11:10.898,,1204,276,170
15:11:10.935,,750,243,219
15:11:10.972,,602,122,224
15:11:11.009,,653,218,263
15:11:11.045,,747,286,337
15:11:11.082,,892,315,365
15:11:11.119,,1092,291,354
15:11:11.156,,1300,321,260
15:11:11.193,,1341,517,302
15:11:11.229,,1221,620,408
15:11:11.266,,1105,625,378
15:11:11.303,,1654,500,97
15:11:11.340,,1638,198,-7
15:11:11.377,,1249,40,43
15:11:11.414,,1030,32,55
15:11:11.451,,766,147,101
15:11:11.487,,666,267,119
15:11:11.524,,709,194,40
15:11:11.561,,607,58,-9
15:11:11.598,,600,54,2
15:11:11.635,,675,114,63
15:11:11.672,,832,172,130
15:11:11.709,,1199,285,146
15:11:11.745,,1322,346,240
15:11:11.782,,1718,395,221
15:11:11.819,,1698,342,134
15:11:11.856,,1020,198,175
15:11:11.893,,695,-16,220
15:11:11.930,,650,45,295
15:11:11.967,,774,259,361
15:11:12.003,,893,349,351
15:11:12.040,,895,387,324
15:11:12.077,,1081,363,276
15:11:12.114,,1198,467,320
15:11:12.151,,1349,663,492
15:11:12.187,,1373,604,410
15:11:12.224,,1610,359,51
15:11:12.261,,1552,199,12
15:11:12.298,,1323,8,2
15:11:12.335,,1064,6,4
15:11:12.372,,858,85,73
15:11:12.409,,698,220,153
15:11:12.445,,672,223,85
15:11:12.482,,625,131,1
15:11:12.519,,677,107,5
15:11:12.556,,762,138,44
15:11:12.593,,824,161,122
15:11:12.630,,1071,197,143
15:11:12.667,,1155,238,223
15:11:12.703,,1488,283,174
15:11:12.740,,1570,308,116
15:11:12.777,,1082,254,182
15:11:12.814,,866,97,220
15:11:12.851,,758,85,283
15:11:12.888,,816,237,364
15:11:12.924,,884,294,408
15:11:12.961,,939,338,402
15:11:12.998,,1091,362,418
15:11:13.035,,1252,390,366
15:11:13.072,,1333,504,443
15:11:13.109,,1395,476,455
15:11:13.145,,1761,306,71
15:11:13.182,,1589,152,-43
15:11:13.219,,1202,81,-2
15:11:13.256,,992,86,55
15:11:13.293,,799,195,144
15:11:13.330,,744,225,117
15:11:13.366,,703,160,15
15:11:13.403,,677,84,-45
15:11:13.440,,632,86,-27
15:11:13.477,,621,174,61
15:11:13.514,,681,305,166
15:11:13.551,,851,436,235
15:11:13.588,,987,390,293
15:11:13.624,,1282,307,279
15:11:13.661,,1711,270,187
15:11:13.698,,1261,203,216
15:11:13.735,,922,180,287
15:11:13.772,,811,162,318
15:11:13.809,,748,244,340
15:11:13.845,,765,296,381
15:11:13.882,,863,297,386
15:11:13.919,,968,301,331
15:11:13.956,,1199,341,296
15:11:13.993,,1324,361,325
15:11:14.030,,1132,412,339
15:11:14.066,,1455,552,469
15:11:14.103,,1564,513,348
15:11:14.140,,1707,250,-30
15:11:14.177,,1630,11,-104
15:11:14.214,,1330,-135,-69
15:11:14.251,,971,-34,-38
15:11:14.288,,707,190,59
15:11:14.324,,563,269,97
15:11:14.361,,541,215,21
15:11:14.398,,513,104,-44
15:11:14.435,,447,92,-8
15:11:14.472,,547,157,46
15:11:14.509,,685,215,93
15:11:14.545,,909,275,152
15:11:14.582,,1157,307,220
15:11:14.619,,1454,372,305
15:11:14.656,,1822,332,245
15:11:14.693,,1484,86,232
15:11:14.730,,963,-130,375
15:11:14.766,,831,-249,485
15:11:14.803,,757,-41,516
15:11:14.840,,763,278,573
15:11:14.877,,850,464,573
15:11:14.914,,925,473,439
15:11:14.951,,1143,450,391
15:11:14.988,,1258,384,414
15:11:15.024,,1330,353,347
15:11:15.061,,1371,367,166
15:11:15.098,,1731,349,-88
15:11:15.135,,1503,239,-83
15:11:15.172,,1158,183,8
15:11:15.208,,864,191,97
15:11:15.245,,701,242,131
15:11:15.282,,656,233,113
15:11:15.319,,657,139,68
15:11:15.356,,677,58,38
15:11:15.393,,696,47,71
15:11:15.430,,832,95,114
15:11:15.467,,916,110,154
15:11:15.503,,1197,201,212
15:11:15.540,,1295,295,383
15:11:15.577,,1574,334,360
15:11:15.614,,1540,204,142
15:11:15.651,,1052,45,120
15:11:15.688,,785,-23,231
15:11:15.724,,682,100,353
15:11:15.761,,760,315,397
15:11:15.798,,807,427,376
15:11:15.835,,824,429,338
15:11:15.872,,947,384,305
15:11:15.909,,1138,416,324
15:11:15.945,,1347,499,355
15:11:15.982,,1441,565,481
15:11:16.019,,1657,408,138
15:11:16.056,,1744,224,-35
15:11:16.093,,1394,140,62
15:11:16.130,,1209,78,110
15:11:16.166,,944,127,140
15:11:16.203,,725,159,106
15:11:16.240,,574,115,75
15:11:16.277,,480,41,72
15:11:16.314,,545,45,80
15:11:16.351,,652,56,78
15:11:16.387,,764,103,96
15:11:16.424,,921,142,162
15:11:16.461,,1244,201,205
15:11:16.498,,1461,238,223
15:11:16.535,,1746,261,188
15:11:16.572,,1814,244,55
15:11:16.608,,1232,270,77
15:11:16.645,,906,181,184
15:11:16.682,,712,327,427
15:11:16.719,,846,458,385
15:11:16.756,,912,440,261
15:11:16.792,,976,532,278
15:11:16.829,,966,587,323
15:11:16.866,,1122,632,349
15:11:16.902,,1409,719,292
15:11:16.939,,1887,615,-7
15:11:16.976,,1744,284,-38
15:11:17.013,,1392,85,-4
15:11:17.049,,1263,44,-4
15:11:17.086,,1014,154,92
15:11:17.123,,925,248,109
15:11:17.160,,867,169,55
15:11:17.197,,768,26,-4
15:11:17.234,,687,-12,-15
15:11:17.270,,731,45,24
15:11:17.307,,768,121,81
15:11:17.344,,915,168,120
15:11:17.381,,1031,220,203
15:11:17.418,,1489,320,255
15:11:17.455,,1772,390,194
15:11:17.491,,1341,362,174
15:11:17.528,,1039,88,163
15:11:17.565,,942,81,228
15:11:17.602,,946,257,325
15:11:17.639,,1009,302,301
15:11:17.675,,928,443,282
15:11:17.712,,979,606,297
15:11:17.749,,1012,681,338
15:11:17.786,,1120,719,477
15:11:17.822,,1385,722,463
15:11:17.859,,1921,319,-61
15:11:17.896,,1725,61,-163
15:11:17.933,,1474,-44,-59
15:11:17.970,,1352,-63,-42
15:11:18.006,,993,165,45
15:11:18.043,,978,332,59
15:11:18.080,,903,259,-22
15:11:18.117,,767,121,-82
15:11:18.154,,644,71,-58
15:11:18.191,,596,94,33
15:11:18.227,,765,148,86
15:11:18.264,,888,151,118
15:11:18.301,,1152,185,151
15:11:18.338,,1605,255,108
15:11:18.375,,1475,308,187
15:11:18.411,,1017,290,326
15:11:18.448,,775,68,370
15:11:18.485,,847,53,403
15:11:18.522,,1034,112,436
15:11:18.559,,1124,184,465
15:11:18.596,,1152,245,397
15:11:18.632,,1253,342,330
15:11:18.669,,1189,480,362
15:11:18.706,,1049,562,468
15:11:18.743,,1251,600,362
15:11:18.780,,1774,388,38
15:11:18.816,,1444,174,8
15:11:18.853,,1244,61,7
15:11:18.890,,1036,46,30
15:11:18.927,,906,171,77
15:11:18.964,,871,264,72
15:11:19.000,,805,214,33
15:11:19.037,,822,126,-23
15:11:19.074,,755,101,-3
15:11:19.111,,740,111,52
15:11:19.148,,742,154,124
15:11:19.185,,911,217,171
15:11:19.221,,1089,204,237
15:11:19.258,,1441,210,181
15:11:19.295,,1478,188,162
15:11:19.332,,1102,169,185
15:11:19.369,,893,57,186
15:11:19.406,,769,191,290
15:11:19.442,,839,364,448
15:11:19.479,,954,325,460
15:11:19.516,,1071,289,394
15:11:19.553,,1230,259,374
15:11:19.590,,1191,330,348
15:11:19.626,,1235,441,422
15:11:19.663,,1225,508,404
15:11:19.700,,1652,409,90
15:11:19.737,,1514,236,27
15:11:19.774,,1209,130,87
15:11:19.810,,1074,92,102
15:11:19.847,,885,161,73
15:11:19.884,,777,242,51
15:11:19.921,,862,226,31
15:11:19.958,,829,132,-9
15:11:19.994,,814,125,-4
15:11:20.031,,785,132,39
15:11:20.068,,786,167,95
15:11:20.105,,923,200,118
15:11:20.142,,1109,222,159
15:11:20.179,,1383,259,173
15:11:20.215,,1328,229,192
15:11:20.252,,939,286,280
15:11:20.289,,812,221,303
15:11:20.326,,817,145,332
15:11:20.363,,835,139,402
15:11:20.399,,936,117,436
15:11:20.436,,1106,167,407
15:11:20.473,,1292,261,375
15:11:20.510,,1257,379,356
15:11:20.547,,1386,521,416
15:11:20.583,,1156,574,471
15:11:20.620,,1437,475,213
15:11:20.657,,1440,263,63
15:11:20.694,,1175,137,64
15:11:20.730,,1041,78,72
15:11:20.767,,879,111,78
15:11:20.804,,801,214,71
15:11:20.841,,815,240,44
15:11:20.878,,826,176,-16
15:11:20.915,,857,127,-44
15:11:20.951,,896,137,0
15:11:20.988,,904,187,76
15:11:21.025,,995,239,123
15:11:21.062,,981,241,196
15:11:21.099,,1171,244,233
15:11:21.135,,1304,217,239
15:11:21.172,,1027,157,291
15:11:21.209,,780,85,350
15:11:21.246,,782,27,415
15:11:21.283,,854,113,443
15:11:21.319,,925,163,429
15:11:21.356,,1047,186,352
15:11:21.393,,1154,274,263
15:11:21.430,,1155,388,270
15:11:21.466,,1217,503,359
15:11:21.503,,1156,578,408
15:11:21.540,,1327,560,225
15:11:21.577,,1514,356,67
15:11:21.614,,1202,167,80
15:11:21.650,,1104,65,48
15:11:21.687,,956,76,25
15:11:21.724,,838,184,71
15:11:21.761,,811,253,109
15:11:21.798,,839,209,48
15:11:21.834,,859,152,19
15:11:21.871,,918,167,64
15:11:21.908,,968,171,99
15:11:21.945,,1019,201,130
15:11:21.982,,1046,193,179
15:11:22.018,,1166,206,161
15:11:22.055,,1242,215,167
15:11:22.092,,971,213,206
15:11:22.129,,781,160,193
15:11:22.165,,684,127,186
15:11:22.202,,669,215,225
15:11:22.239,,737,296,312
15:11:22.276,,860,332,384
15:11:22.312,,971,322,408
15:11:22.349,,1102,315,410
15:11:22.386,,1191,293,379
15:11:22.423,,1219,320,334
15:11:22.459,,1367,384,390
15:11:22.496,,1246,380,345
15:11:22.533,,1401,344,183
15:11:22.570,,1297,264,121
15:11:22.607,,1199,181,84
15:11:22.643,,1037,140,86
15:11:22.680,,878,135,114
15:11:22.717,,785,146,45
15:11:22.754,,763,163,5
15:11:22.791,,902,181,-23
15:11:22.827,,978,220,15
15:11:22.864,,1018,194,42
15:11:22.900,,1072,168,12
15:11:22.937,,885,186,87
15:11:22.974,,1059,311,181
15:11:23.010,,1065,298,237
15:11:23.047,,932,288,278
15:11:23.084,,698,177,325
15:11:23.121,,622,39,369
15:11:23.158,,653,38,441
15:11:23.194,,789,53,486
15:11:23.231,,995,86,491
15:11:23.268,,1204,116,468
15:11:23.305,,1356,188,413
15:11:23.342,,1417,304,396
15:11:23.379,,1424,416,493
15:11:23.415,,1382,411,325
15:11:23.452,,1545,266,54
15:11:23.489,,1284,163,12
15:11:23.526,,1018,98,25
15:11:23.563,,821,125,37
15:11:23.599,,659,222,78
15:11:23.636,,631,295,88
15:11:23.673,,636,248,26
15:11:23.710,,665,160,-25
15:11:23.747,,753,157,10
15:11:23.784,,913,188,67
15:11:23.820,,959,200,130
15:11:23.857,,1053,231,187
15:11:23.894,,1091,237,251
15:11:23.931,,1183,238,250
15:11:23.968,,1461,193,189
15:11:24.005,,1112,137,298
15:11:24.041,,861,109,379
15:11:24.078,,785,94,406
15:11:24.115,,740,177,443
15:11:24.152,,722,240,478
15:11:24.189,,829,204,438
15:11:24.225,,1048,227,443
15:11:24.262,,1320,249,398
15:11:24.299,,1279,305,330
15:11:24.336,,1339,366,379
15:11:24.373,,1228,385,381
15:11:24.410,,1443,301,107
15:11:24.446,,1404,169,-3
15:11:24.483,,1037,133,42
15:11:24.520,,864,130,58
15:11:24.557,,731,166,58
15:11:24.594,,628,247,62
15:11:24.630,,677,256,56
15:11:24.667,,734,177,21
15:11:24.704,,754,138,22
15:11:24.741,,907,152,72
15:11:24.778,,976,166,141
15:11:24.815,,994,188,182
15:11:24.852,,1129,202,231
15:11:24.888,,1266,190,251
15:11:24.925,,1444,168,225
15:11:24.962,,1247,168,274
15:11:24.999,,926,196,375
15:11:25.036,,806,88,407
15:11:25.072,,679,80,412
15:11:25.109,,676,183,473
15:11:25.146,,794,249,481
15:11:25.183,,1021,293,400
15:11:25.220,,1312,316,287
15:11:25.256,,1241,399,324
15:11:25.293,,1273,428,445
15:11:25.330,,1310,426,285
15:11:25.367,,1681,376,-5
15:11:25.404,,1411,213,30
15:11:25.440,,1162,118,52
15:11:25.477,,1014,106,44
15:11:25.514,,841,183,89
15:11:25.551,,780,238,99
15:11:25.588,,705,145,50
15:11:25.625,,671,49,27
15:11:25.661,,697,69,71
15:11:25.698,,765,118,120
15:11:25.735,,818,128,180
15:11:25.772,,1007,132,218
15:11:25.809,,1342,172,205
15:11:25.846,,1683,215,162
15:11:25.883,,1593,211,188
15:11:25.919,,1057,227,262
15:11:25.956,,873,160,195
15:11:25.993,,778,225,175
15:11:26.030,,763,355,319
15:11:26.066,,822,391,413
15:11:26.103,,897,369,336
15:11:26.140,,1109,367,310
15:11:26.177,,1154,443,360
15:11:26.214,,1125,523,402
15:11:26.250,,1105,493,453
15:11:26.287,,1541,422,195
15:11:26.324,,1765,224,-54
15:11:26.361,,1464,76,5
15:11:26.398,,1243,11,68
15:11:26.435,,1078,85,54
15:11:26.471,,901,238,84
15:11:26.508,,801,252,89
15:11:26.545,,721,122,4
15:11:26.582,,653,53,-1
15:11:26.619,,659,87,57
15:11:26.656,,709,147,119
15:11:26.693,,858,184,159
15:11:26.729,,1001,227,200
15:11:26.766,,1166,231,206
15:11:26.803,,1679,314,131
15:11:26.840,,1436,294,185
15:11:26.877,,990,173,278
15:11:26.913,,833,-12,318
15:11:26.950,,846,72,380
15:11:26.987,,845,225,449
15:11:27.024,,887,308,437
15:11:27.061,,1040,366,384
15:11:27.098,,1174,388,335
15:11:27.134,,1188,448,342
15:11:27.171,,1268,462,419
15:11:27.208,,1241,459,351
15:11:27.245,,1526,388,93
15:11:27.282,,1529,214,64
15:11:27.318,,1281,68,60
15:11:27.355,,1086,43,-1
15:11:27.392,,856,100,18
15:11:27.429,,716,210,113
15:11:27.466,,709,236,112
15:11:27.503,,646,131,17
15:11:27.539,,610,102,20
15:11:27.576,,638,126,79
15:11:27.613,,751,163,111
15:11:27.650,,1042,232,131
15:11:27.687,,1218,292,214
15:11:27.724,,1478,370,253
15:11:27.760,,1668,315,179
15:11:27.797,,783,-44,226
15:11:27.834,,673,-74,280
15:11:27.871,,771,195,416
15:11:27.908,,809,360,499
15:11:27.945,,886,369,442
15:11:27.981,,1014,294,352
15:11:28.018,,1246,299,297
15:11:28.055,,1266,429,345
15:11:28.092,,1327,475,408
15:11:28.129,,1410,408,200
15:11:28.165,,1668,275,-62
15:11:28.202,,1343,144,-37
15:11:28.239,,1065,99,36
15:11:28.276,,861,118,75
15:11:28.313,,687,215,100
15:11:28.349,,632,245,88
15:11:28.386,,664,170,30
15:11:28.423,,684,106,5
15:11:28.460,,755,97,32
15:11:28.497,,887,134,83
15:11:28.534,,1031,170,110
15:11:28.570,,1233,233,146
15:11:28.607,,1212,272,260
15:11:28.644,,1570,320,209
15:11:28.681,,1314,235,137
15:11:28.718,,877,133,165
15:11:28.754,,704,17,189
15:11:28.791,,690,166,236
15:11:28.828,,778,326,319
15:11:28.865,,862,372,338
15:11:28.902,,919,359,337
15:11:28.938,,1138,374,339
15:11:28.975,,1276,460,403
15:11:29.012,,1445,528,464
15:11:29.049,,1308,392,361
15:11:29.085,,1547,243,33
15:11:29.122,,1446,158,-35
15:11:29.159,,1185,80,32
15:11:29.196,,947,103,129
15:11:29.233,,799,193,147
15:11:29.270,,703,239,70
15:11:29.306,,709,232,19
15:11:29.343,,776,168,-3
15:11:29.380,,795,129,2
15:11:29.417,,888,133,12
15:11:29.454,,957,157,53
15:11:29.491,,1128,228,96
15:11:29.527,,1030,276,198
15:11:29.564,,1242,287,204
15:11:29.601,,1350,292,185
15:11:29.638,,1063,217,185
15:11:29.675,,773,56,249
15:11:29.711,,684,-24,321
15:11:29.748,,820,167,440
15:11:29.785,,843,246,467
15:11:29.822,,908,269,407
15:11:29.859,,1016,287,375
15:11:29.895,,1223,383,378
15:11:29.932,,1450,501,385
15:11:29.969,,1437,465,406
15:11:30.006,,1433,357,249
15:11:30.043,,1498,255,54
15:11:30.079,,1296,172,27
15:11:30.116,,1131,73,51
15:11:30.153,,925,69,54
15:11:30.190,,774,155,67
15:11:30.227,,758,219,29
15:11:30.264,,697,218,-2
15:11:30.301,,713,169,-38
15:11:30.337,,713,150,14
15:11:30.374,,937,177,84
15:11:30.411,,1075,167,4
15:11:30.448,,1041,273,57
15:11:30.485,,1003,363,298
15:11:30.522,,1434,417,303
15:11:30.558,,1259,387,298
15:11:30.595,,889,332,312
15:11:30.632,,826,108,340
15:11:30.669,,831,32,479
15:11:30.706,,852,-51,520
15:11:30.743,,959,10,499
15:11:30.780,,1161,155,516
15:11:30.816,,1278,238,417
15:11:30.853,,1205,358,373
15:11:30.890,,1284,445,416
15:11:30.927,,1166,450,341
15:11:30.964,,1463,442,126
15:11:31.000,,1539,266,31
15:11:31.037,,1076,157,54
15:11:31.074,,849,129,49
15:11:31.111,,794,100,51
15:11:31.148,,760,184,20
15:11:31.185,,748,233,-23
15:11:31.222,,787,225,-46
15:11:31.258,,782,193,-29
15:11:31.295,,757,210,39
15:11:31.332,,817,229,109
15:11:31.369,,939,277,182
15:11:31.406,,1053,295,274
15:11:31.443,,1114,260,298
15:11:31.480,,1481,173,244
15:11:31.516,,1216,49,284
15:11:31.553,,841,-5,265
15:11:31.590,,702,-4,255
15:11:31.627,,646,180,409
15:11:31.664,,752,300,573
15:11:31.701,,837,280,606
15:11:31.737,,1007,238,485
15:11:31.774,,1342,271,399
15:11:31.811,,1309,315,373
15:11:31.848,,1323,332,377
15:11:31.885,,1222,365,368
15:11:31.922,,1501,399,109
15:11:31.959,,1541,323,30
15:11:31.995,,1084,192,95
15:11:32.032,,901,115,90
15:11:32.069,,765,108,17
15:11:32.106,,695,231,-3
15:11:32.143,,729,291,24
15:11:32.180,,851,259,9
15:11:32.217,,877,175,-40
15:11:32.253,,890,142,-38
15:11:32.290,,812,195,57
15:11:32.327,,821,259,129
15:11:32.364,,1044,266,172
15:11:32.401,,1353,274,204
15:11:32.438,,1468,183,188
15:11:32.475,,1002,129,336
15:11:32.511,,772,133,426
15:11:32.548,,763,-7,398
15:11:32.585,,771,31,439
15:11:32.622,,917,133,512
15:11:32.659,,946,165,434
15:11:32.696,,1121,240,376
15:11:32.732,,1374,318,367
15:11:32.769,,1341,536,436
15:11:32.806,,1336,656,452
15:11:32.843,,1520,602,140
15:11:32.880,,1657,346,-33
15:11:32.917,,1259,136,29
15:11:32.954,,1071,102,57
15:11:32.990,,850,169,52
15:11:33.027,,756,255,21
15:11:33.064,,764,227,-11
15:11:33.101,,736,136,-46
15:11:33.138,,766,129,-33
15:11:33.175,,815,144,-4
15:11:33.212,,825,162,35
15:11:33.249,,938,201,83
15:11:33.285,,985,238,156
15:11:33.322,,1169,277,190
15:11:33.359,,1546,337,170
15:11:33.396,,1226,294,263
15:11:33.433,,862,216,362
15:11:33.470,,757,3,406
15:11:33.507,,716,-69,435
15:11:33.543,,763,-4,479
15:11:33.580,,895,118,523
15:11:33.617,,1142,212,525
15:11:33.654,,1343,249,459
15:11:33.691,,1402,325,379
15:11:33.728,,1442,398,452
15:11:33.765,,1359,376,391
15:11:33.801,,1416,307,110
15:11:33.838,,1432,246,7
15:11:33.875,,1201,136,18
15:11:33.912,,974,109,17
15:11:33.949,,774,106,4
15:11:33.986,,644,172,0
15:11:34.023,,585,231,2
15:11:34.059,,630,210,-13
15:11:34.096,,686,147,-44
15:11:34.133,,802,148,-37
15:11:34.170,,907,171,74
15:11:34.207,,1104,235,166
15:11:34.244,,1276,269,208
15:11:34.281,,1309,214,196
15:11:34.318,,1537,110,74
15:11:34.354,,1328,66,129
15:11:34.391,,853,181,328
15:11:34.428,,722,223,422
15:11:34.465,,732,176,410
15:11:34.502,,744,166,427
15:11:34.539,,907,201,428
15:11:34.575,,1111,278,333
15:11:34.612,,1200,395,319
15:11:34.649,,1220,460,358
15:11:34.686,,1408,462,368
15:11:34.723,,1313,442,247
15:11:34.760,,1588,384,36
15:11:34.797,,1520,231,48
15:11:34.833,,1210,87,41
15:11:34.870,,968,79,-7
15:11:34.907,,758,105,-29
15:11:34.944,,671,210,18
15:11:34.981,,703,251,29
15:11:35.018,,706,187,-11
15:11:35.055,,789,170,-28
15:11:35.091,,892,153,-10
15:11:35.128,,1033,196,21
15:11:35.165,,1140,270,78
15:11:35.202,,937,310,223
15:11:35.239,,1249,368,223
15:11:35.276,,1388,274,157
15:11:35.312,,985,93,192
15:11:35.349,,744,-105,225
15:11:35.386,,710,15,430
15:11:35.423,,745,185,562
15:11:35.460,,757,216,491
15:11:35.497,,864,142,394
15:11:35.533,,1119,172,335
15:11:35.570,,1379,289,291
15:11:35.607,,1525,397,286
15:11:35.644,,1561,401,371
15:11:35.681,,1249,370,181
15:11:35.718,,1312,353,63
15:11:35.754,,1086,227,71
15:11:35.791,,877,160,53
15:11:35.828,,691,130,35
15:11:35.865,,621,143,34
15:11:35.902,,671,219,42
15:11:35.939,,749,232,20
15:11:35.976,,848,168,-38
15:11:36.012,,924,145,-34
15:11:36.049,,1002,190,36
15:11:36.086,,1191,274,104
15:11:36.123,,1217,290,202
15:11:36.160,,1061,248,297
15:11:36.197,,1141,187,321
15:11:36.234,,988,86,317
15:11:36.270,,784,-20,313
15:11:36.307,,678,-23,337
15:11:36.344,,643,125,425
15:11:36.381,,720,241,426
15:11:36.418,,960,144,225
15:11:36.455,,1082,178,209
15:11:36.491,,1242,251,237
15:11:36.528,,1243,352,239
15:11:36.565,,1223,435,294
15:11:36.602,,1047,515,387
15:11:36.639,,1359,526,287
15:11:36.676,,1396,338,133
15:11:36.712,,1033,139,120
15:11:36.749,,854,35,121
15:11:36.786,,736,63,124
15:11:36.823,,693,164,115
15:11:36.860,,722,209,105
15:11:36.897,,795,170,83
15:11:36.934,,877,115,51
15:11:36.970,,981,107,29
15:11:37.007,,1068,152,68
15:11:37.044,,1251,244,126
15:11:37.081,,1257,283,238
15:11:37.118,,1204,238,244
15:11:37.155,,1270,131,113
15:11:37.192,,977,107,91
15:11:37.228,,721,80,133
15:11:37.265,,604,97,162
15:11:37.302,,567,203,191
15:11:37.339,,634,280,233
15:11:37.376,,881,305,269
15:11:37.413,,1149,309,310
15:11:37.450,,1448,330,333
15:11:37.486,,1362,346,338
15:11:37.523,,1257,395,435
15:11:37.560,,1142,381,389
15:11:37.597,,1462,317,64
15:11:37.634,,1353,251,70
15:11:37.671,,1076,93,122
15:11:37.708,,955,45,99
15:11:37.744,,845,113,41
15:11:37.781,,773,222,34
15:11:37.818,,737,246,15
15:11:37.855,,740,184,-16
15:11:37.892,,790,139,-25
15:11:37.929,,888,160,18
15:11:37.966,,1024,184,54
15:11:38.003,,1179,277,62
15:11:38.039,,1101,216,202
15:11:38.076,,1155,182,211
15:11:38.113,,1333,170,131
15:11:38.150,,1070,181,141
15:11:38.187,,816,154,165
15:11:38.224,,682,142,250
15:11:38.261,,730,252,297
15:11:38.297,,817,277,318
15:11:38.334,,998,255,326
15:11:38.371,,1148,273,357
15:11:38.408,,1240,304,353
15:11:38.445,,1351,418,382
15:11:38.482,,1371,452,453
15:11:38.519,,1517,393,168
15:11:38.556,,1518,283,67
15:11:38.592,,1234,153,65
15:11:38.629,,1045,92,59
15:11:38.666,,866,114,34
15:11:38.703,,740,190,24
15:11:38.740,,713,230,2
15:11:38.777,,704,212,-22
15:11:38.814,,754,162,-40
15:11:38.851,,832,157,-21
15:11:38.887,,881,158,29
15:11:38.924,,1073,235,145
15:11:38.961,,1151,254,187
15:11:38.998,,1365,247,151
15:11:39.035,,1136,184,170
15:11:39.072,,856,134,277
15:11:39.109,,771,40,352
15:11:39.146,,787,95,398
15:11:39.182,,823,183,422
15:11:39.219,,991,207,368
15:11:39.256,,1184,262,290
15:11:39.293,,1342,427,305
15:11:39.330,,1349,653,440
15:11:39.367,,1332,702,490
15:11:39.404,,1241,536,248
15:11:39.441,,1594,355,0
15:11:39.477,,1369,162,13
15:11:39.514,,1172,15,43
15:11:39.551,,973,24,71
15:11:39.588,,831,132,41
15:11:39.625,,771,237,12
15:11:39.662,,790,249,-18
15:11:39.699,,786,166,-68
15:11:39.736,,804,120,-82
15:11:39.773,,831,122,-29
15:11:39.809,,883,213,73
15:11:39.846,,1026,262,131
15:11:39.883,,1108,263,206
15:11:39.920,,1419,263,142
15:11:39.957,,1398,162,68
15:11:39.994,,976,134,150
15:11:40.031,,765,155,296
15:11:40.068,,805,197,395
15:11:40.105,,906,224,456
15:11:40.141,,953,147,431
15:11:40.178,,1091,123,366
15:11:40.215,,1267,230,312
15:11:40.252,,1283,433,338
15:11:40.289,,1447,581,374
15:11:40.326,,1200,491,408
15:11:40.363,,1297,380,214
15:11:40.400,,1515,207,17
15:11:40.437,,1281,107,4
15:11:40.473,,1069,80,42
15:11:40.510,,847,106,74
15:11:40.547,,718,190,54
15:11:40.584,,727,237,8
15:11:40.621,,745,198,-41
15:11:40.658,,794,146,-52
15:11:40.695,,864,147,-17
15:11:40.732,,907,164,26
15:11:40.769,,995,227,73
15:11:40.806,,1079,240,117
15:11:40.842,,1154,256,178
15:11:40.879,,1409,266,195
15:11:40.916,,1225,203,263
15:11:40.953,,901,171,329
15:11:40.990,,772,45,351
15:11:41.027,,703,30,373
15:11:41.064,,759,141,444
15:11:41.101,,859,190,450
15:11:41.138,,1053,192,389
15:11:41.174,,1299,251,337
15:11:41.211,,1298,343,317
15:11:41.248,,1362,427,375
15:11:41.285,,1147,458,428
15:11:41.322,,1335,433,183
15:11:41.359,,1432,267,32
15:11:41.396,,1192,128,58
15:11:41.433,,1046,54,67
15:11:41.470,,832,97,76
15:11:41.506,,735,186,40
15:11:41.543,,702,215,16
15:11:41.580,,718,197,4
15:11:41.617,,757,147,-8
15:11:41.654,,845,143,-3
15:11:41.691,,925,147,35
15:11:41.728,,1046,198,98
15:11:41.765,,1164,208,151
15:11:41.802,,1073,240,251
15:11:41.839,,1366,249,216
15:11:41.875,,1272,156,164
15:11:41.912,,977,108,149
15:11:41.949,,750,109,229
15:11:41.986,,764,209,330
15:11:42.023,,741,269,367
15:11:42.060,,799,228,366
15:11:42.097,,971,222,376
15:11:42.134,,1184,218,363
15:11:42.170,,1299,269,299
15:11:42.207,,1469,397,338
15:11:42.244,,1214,468,416
15:11:42.281,,1372,448,212
15:11:42.318,,1427,373,65
15:11:42.355,,1294,182,11
15:11:42.392,,1122,62,45
15:11:42.429,,910,56,83
15:11:42.466,,768,135,49
15:11:42.502,,681,191,8
15:11:42.539,,651,196,-8
15:11:42.576,,729,145,-21
15:11:42.613,,828,146,-3
15:11:42.650,,878,143,35
15:11:42.687,,1019,189,74
15:11:42.724,,1153,225,119
15:11:42.761,,1236,272,184
15:11:42.798,,1427,281,185
15:11:42.835,,1135,195,215
15:11:42.871,,841,142,269
15:11:42.908,,778,38,297
15:11:42.945,,806,107,356
15:11:42.982,,856,216,398
15:11:43.019,,937,264,368
15:11:43.056,,1081,314,299
15:11:43.093,,1170,414,294
15:11:43.129,,1180,556,326
15:11:43.166,,1374,594,336
15:11:43.203,,1206,549,322
15:11:43.240,,1502,437,159
15:11:43.277,,1439,263,98
15:11:43.314,,1227,139,66
15:11:43.351,,1115,57,36
15:11:43.388,,921,90,39
15:11:43.425,,806,169,57
15:11:43.461,,747,197,47
15:11:43.498,,708,155,0
15:11:43.535,,672,97,-33
15:11:43.572,,759,132,-9
15:11:43.609,,869,192,31
15:11:43.646,,999,256,92
15:11:43.683,,1148,292,151
15:11:43.720,,1141,314,215
15:11:43.757,,1434,324,171
15:11:43.793,,1329,233,150
15:11:43.830,,995,142,167
15:11:43.867,,884,36,172
15:11:43.904,,794,172,238
15:11:43.941,,781,323,329
15:11:43.978,,808,358,357
15:11:44.015,,906,326,369
15:11:44.052,,1112,316,396
15:11:44.089,,1250,327,365
15:11:44.125,,1330,393,379
15:11:44.162,,1305,377,436
15:11:44.199,,1331,328,240
15:11:44.236,,1535,277,54
15:11:44.273,,1344,171,80
15:11:44.310,,1089,120,86
15:11:44.347,,949,125,27
15:11:44.384,,792,169,-23
15:11:44.421,,765,244,-49
15:11:44.458,,766,249,-57
15:11:44.495,,790,199,-71
15:11:44.531,,833,178,-78
15:11:44.568,,882,194,-43
15:11:44.605,,904,243,18
15:11:44.642,,1065,261,67
15:11:44.679,,1026,255,204
15:11:44.716,,1161,279,233
15:11:44.753,,1347,218,210
15:11:44.790,,1065,145,251
15:11:44.827,,768,74,299
15:11:44.864,,734,48,334
15:11:44.901,,816,109,378
15:11:44.938,,837,170,395
15:11:44.975,,938,180,395
15:11:45.011,,1085,198,333
15:11:45.048,,1351,330,311
15:11:45.085,,1375,492,376
15:11:45.122,,1229,536,502
15:11:45.159,,1071,426,420
15:11:45.196,,1447,338,101
15:11:45.233,,1413,235,72
15:11:45.270,,1178,58,77
15:11:45.307,,1087,7,11
15:11:45.344,,963,88,-5
15:11:45.381,,880,234,-12
15:11:45.418,,898,299,-62
15:11:45.455,,983,279,-97
15:11:45.491,,1075,268,-80
15:11:45.528,,1063,363,33
15:11:45.565,,1020,338,64
15:11:45.602,,953,299,106
15:11:45.639,,935,258,164
15:11:45.676,,1335,330,327
15:11:45.713,,1397,183,363
15:11:45.750,,1149,-39,246
15:11:45.787,,843,-68,238
15:11:45.824,,648,5,241
15:11:45.861,,574,148,219
15:11:45.898,,425,256,220
15:11:45.935,,428,265,217
15:11:45.972,,597,249,222
15:11:46.009,,724,269,188
15:11:46.045,,989,287,141
15:11:46.082,,1345,348,158
15:11:46.119,,1365,435,278
15:11:46.156,,1350,454,376
15:11:46.193,,1339,424,433
15:11:46.230,,1165,318,326
15:11:46.267,,1347,195,128
15:11:46.304,,1245,110,82
15:11:46.341,,1032,38,135
15:11:46.378,,864,66,163
15:11:46.415,,764,140,113
15:11:46.452,,714,233,55
15:11:46.489,,721,259,27
15:11:46.526,,766,209,3
15:11:46.562,,931,190,22
15:11:46.599,,1026,179,32
15:11:46.636,,1127,205,20
15:11:46.673,,1283,234,41
15:11:46.710,,1041,251,142
15:11:46.747,,1274,304,145
15:11:46.784,,1088,247,172
15:11:46.821,,763,203,183
15:11:46.858,,607,74,165
15:11:46.895,,595,114,202
15:11:46.932,,645,242,295
15:11:46.969,,782,267,346
15:11:47.006,,928,263,343
15:11:47.042,,1219,288,383
15:11:47.079,,1464,345,401
15:11:47.116,,1346,392,370
15:11:47.153,,1289,397,503
15:11:47.190,,1316,350,378
15:11:47.227,,1518,313,137
15:11:47.264,,1350,193,110
15:11:47.301,,1110,84,131
15:11:47.338,,991,70,116
15:11:47.375,,850,165,74
15:11:47.412,,764,261,40
15:11:47.449,,738,244,17
15:11:47.486,,689,152,-8
15:11:47.522,,756,139,-3
15:11:47.559,,791,143,29
15:11:47.596,,877,196,64
15:11:47.633,,1091,237,109
15:11:47.670,,1062,205,229
15:11:47.707,,1201,268,311
15:11:47.744,,1452,238,351
15:11:47.781,,1182,181,394
15:11:47.818,,840,-13,359
15:11:47.855,,754,-150,278
15:11:47.892,,798,39,308
15:11:47.928,,780,231,387
15:11:47.965,,864,325,450
15:11:48.002,,916,362,376
15:11:48.039,,1130,382,375
15:11:48.076,,1196,406,471
15:11:48.113,,1250,469,512
15:11:48.150,,1185,505,540
15:11:48.187,,1311,330,309
15:11:48.224,,1388,136,116
15:11:48.261,,1190,41,98
15:11:48.298,,1003,21,140
15:11:48.334,,834,93,162
15:11:48.371,,691,221,166
15:11:48.408,,670,247,110
15:11:48.445,,691,204,53
15:11:48.482,,766,142,33
15:11:48.519,,849,143,57
15:11:48.556,,1036,135,53
15:11:48.593,,1032,166,96
15:11:48.630,,1072,194,193
15:11:48.667,,1102,216,230
15:11:48.703,,1277,219,247
15:11:48.740,,1103,188,273
15:11:48.777,,920,153,317
15:11:48.814,,718,95,358
15:11:48.851,,733,161,392
15:11:48.888,,798,143,391
15:11:48.925,,824,101,334
15:11:48.962,,985,176,343
15:11:48.999,,1237,310,482
15:11:49.036,,1469,404,498
15:11:49.073,,1451,374,455
15:11:49.109,,1212,202,410
15:11:49.146,,1346,150,141
15:11:49.183,,1282,204,95
15:11:49.220,,1151,136,165
15:11:49.257,,960,140,176
15:11:49.294,,773,162,103
15:11:49.331,,705,211,26
15:11:49.368,,737,244,33
15:11:49.405,,781,182,36
15:11:49.441,,847,149,-3
15:11:49.478,,951,129,-27
15:11:49.515,,915,190,36
15:11:49.552,,993,266,204
15:11:49.589,,955,242,307
15:11:49.626,,1282,240,328
15:11:49.663,,1293,122,298
15:11:49.700,,954,28,315
15:11:49.736,,684,-13,296
15:11:49.773,,579,79,269
15:11:49.810,,611,265,390
15:11:49.847,,697,239,497
15:11:49.884,,942,206,514
15:11:49.921,,1215,153,531
15:11:49.958,,1437,88,410
15:11:49.995,,1253,206,500
15:11:50.031,,1200,253,346
15:11:50.068,,1343,291,144
15:11:50.105,,1280,194,147
15:11:50.142,,1035,141,194
15:11:50.179,,892,126,115
15:11:50.216,,737,144,35
15:11:50.253,,674,217,19
15:11:50.290,,688,204,35
15:11:50.327,,738,163,38
15:11:50.363,,836,160,43
15:11:50.400,,883,155,75
15:11:50.437,,897,172,111
15:11:50.474,,1036,240,203
15:11:50.511,,1047,231,297
15:11:50.548,,1233,208,273
15:11:50.585,,1347,164,279
15:11:50.622,,1080,166,364
15:11:50.658,,844,87,335
15:11:50.695,,743,59,287
15:11:50.732,,717,153,319
15:11:50.769,,724,258,439
15:11:50.806,,780,306,516
15:11:50.843,,982,286,523
15:11:50.880,,1247,200,429
15:11:50.917,,1356,162,358
15:11:50.954,,1509,242,458
15:11:50.990,,1244,242,404
15:11:51.027,,1365,206,116
15:11:51.064,,1268,131,-45
15:11:51.101,,1127,132,-39
15:11:51.138,,898,171,77
15:11:51.175,,709,239,95
15:11:51.212,,629,254,24
15:11:51.249,,600,179,-7
15:11:51.286,,643,132,20
15:11:51.323,,701,119,57
15:11:51.359,,868,133,69
15:11:51.396,,991,99,70
15:11:51.433,,1233,169,124
15:11:51.470,,1297,224,243
15:11:51.507,,1297,314,346
15:11:51.544,,1366,275,357
15:11:51.581,,1089,185,284
15:11:51.618,,830,-21,218
15:11:51.655,,668,-2,280
15:11:51.692,,682,209,396
15:11:51.729,,684,302,473
15:11:51.765,,787,264,449
15:11:51.802,,925,216,414
15:11:51.839,,1219,178,337
15:11:51.876,,1273,204,309
15:11:51.913,,1293,298,397
15:11:51.950,,1258,380,477
15:11:51.987,,1309,310,286
15:11:52.024,,1342,143,110
15:11:52.061,,1170,40,80
15:11:52.097,,963,52,94
15:11:52.134,,743,124,134
15:11:52.171,,647,208,135
15:11:52.208,,684,200,61
15:11:52.245,,735,144,28
15:11:52.282,,845,141,58
15:11:52.319,,974,151,71
15:11:52.356,,1028,180,100
15:11:52.393,,1171,260,209
15:11:52.430,,1001,235,327
15:11:52.467,,1159,204,342
15:11:52.504,,1191,117,339
15:11:52.541,,912,56,369
15:11:52.578,,738,-24,362
15:11:52.615,,626,21,377
15:11:52.652,,629,148,400
15:11:52.688,,670,216,470
15:11:52.725,,803,183,462
15:11:52.762,,968,182,405
15:11:52.799,,1183,201,361
15:11:52.836,,1302,243,313
15:11:52.873,,1289,298,397
15:11:52.910,,1159,333,464
15:11:52.947,,1196,341,276
15:11:52.984,,1272,249,145
15:11:53.021,,1143,117,166
15:11:53.058,,977,77,158
15:11:53.095,,810,114,115
15:11:53.132,,711,170,86
15:11:53.169,,695,186,88
15:11:53.206,,702,143,86
15:11:53.242,,767,125,79
15:11:53.279,,893,168,137
15:11:53.316,,967,140,145
15:11:53.353,,1105,195,187
15:11:53.390,,1130,201,301
15:11:53.427,,1137,245,329
15:11:53.464,,1378,218,271
15:11:53.501,,1119,164,281
15:11:53.538,,837,82,285
15:11:53.575,,651,66,281
15:11:53.612,,551,184,297
15:11:53.649,,582,285,392
15:11:53.686,,705,289,481
15:11:53.723,,875,268,465
15:11:53.759,,1208,258,445
15:11:53.796,,1375,231,402
15:11:53.833,,1460,234,416
15:11:53.870,,1215,219,416
15:11:53.907,,1248,254,260
15:11:53.944,,1300,247,157
15:11:53.981,,1158,168,147
15:11:54.018,,959,146,167
15:11:54.055,,763,145,132
15:11:54.092,,635,191,89
15:11:54.129,,647,195,61
15:11:54.166,,704,149,57
15:11:54.203,,794,140,66
15:11:54.240,,940,148,79
15:11:54.276,,967,137,62
15:11:54.313,,1070,207,163
15:11:54.350,,1167,250,376
15:11:54.387,,1094,201,376
15:11:54.424,,1276,108,352
15:11:54.461,,1100,6,402
15:11:54.498,,911,5,340
15:11:54.535,,724,82,417
15:11:54.572,,691,162,411
15:11:54.609,,639,239,422
15:11:54.646,,705,269,434
15:11:54.683,,862,269,419
15:11:54.720,,1088,274,381
15:11:54.757,,1136,290,356
15:11:54.794,,1193,309,391
15:11:54.831,,1267,316,402
15:11:54.868,,1102,373,396
15:11:54.905,,1341,328,276
15:11:54.942,,1414,131,202
15:11:54.979,,1104,25,162
15:11:55.016,,917,22,102
15:11:55.052,,723,88,130
15:11:55.089,,566,191,197
15:11:55.126,,512,169,156
15:11:55.163,,436,87,109
15:11:55.200,,508,122,137
15:11:55.237,,763,181,154
15:11:55.274,,1083,210,134
15:11:55.311,,1324,258,163
15:11:55.348,,1295,271,274
15:11:55.385,,1301,230,268
15:11:55.422,,1395,148,172
15:11:55.459,,1104,179,196
15:11:55.496,,782,176,271
15:11:55.533,,557,190,310
15:11:55.570,,451,165,251
15:11:55.607,,516,128,227
15:11:55.644,,680,199,360
15:11:55.681,,892,297,434
15:11:55.718,,1194,300,325
15:11:55.754,,1521,314,278
15:11:55.791,,1470,280,354
15:11:55.828,,1315,244,411
15:11:55.865,,1132,296,404
15:11:55.902,,1249,263,205
15:11:55.939,,1273,191,117
15:11:55.976,,1072,122,122
15:11:56.013,,857,118,111
15:11:56.050,,797,150,51
15:11:56.087,,749,242,4
15:11:56.124,,828,278,-17
15:11:56.161,,855,260,-9
15:11:56.198,,897,199,-24
15:11:56.235,,937,205,5
15:11:56.272,,989,219,36
15:11:56.309,,1084,242,78
15:11:56.346,,882,182,183
15:11:56.383,,1006,237,236
15:11:56.420,,1195,183,231
15:11:56.456,,1017,147,300
15:11:56.493,,746,92,402
15:11:56.530,,653,2,428
15:11:56.567,,630,35,417
15:11:56.604,,679,115,381
15:11:56.641,,855,148,386
15:11:56.678,,1142,194,362
15:11:56.715,,1310,306,313
15:11:56.752,,1348,410,360
15:11:56.789,,1419,530,497
15:11:56.826,,1333,549,464
15:11:56.863,,1300,330,181
15:11:56.900,,1462,133,47
15:11:56.937,,1277,91,88
15:11:56.974,,1066,79,115
15:11:57.011,,891,140,71
15:11:57.048,,757,207,12
15:11:57.085,,700,262,-13
15:11:57.121,,686,238,-20
15:11:57.158,,703,186,-20
15:11:57.195,,783,172,-11
15:11:57.232,,884,170,12
15:11:57.269,,982,190,47
15:11:57.306,,1148,234,86
15:11:57.343,,1022,281,231
15:11:57.380,,1323,342,251
15:11:57.417,,1370,257,226
15:11:57.454,,992,96,178
15:11:57.491,,767,-58,171
15:11:57.528,,683,102,307
15:11:57.565,,736,294,467
15:11:57.602,,805,282,505
15:11:57.639,,858,247,533
15:11:57.675,,1136,207,502
15:11:57.712,,1444,132,369
15:11:57.749,,1424,247,381
15:11:57.786,,1465,350,410
15:11:57.823,,1306,390,261
15:11:57.860,,1436,354,45
15:11:57.897,,1406,211,-1
15:11:57.934,,1103,122,103
15:11:57.971,,912,120,69
15:11:58.008,,772,98,-35
15:11:58.045,,668,191,-44
15:11:58.082,,654,235,-39
15:11:58.119,,646,209,-40
15:11:58.155,,677,173,-41
15:11:58.192,,820,212,-3
15:11:58.229,,904,241,74
15:11:58.266,,1057,280,119
15:11:58.303,,1203,300,186
15:11:58.340,,1193,275,239
15:11:58.377,,1522,206,143
15:11:58.414,,1230,39,147
15:11:58.451,,857,25,244
15:11:58.487,,680,136,346
15:11:58.524,,740,305,394
15:11:58.561,,769,334,455
15:11:58.598,,872,255,529
15:11:58.635,,991,149,523
15:11:58.672,,1259,92,446
15:11:58.709,,1400,131,376
15:11:58.746,,1410,210,274
15:11:58.783,,1211,264,308
15:11:58.820,,1302,359,215
15:11:58.856,,1520,379,94
15:11:58.893,,1327,271,58
15:11:58.930,,1069,185,52
15:11:58.967,,911,98,24
15:11:59.004,,801,124,39
15:11:59.041,,744,151,36
15:11:59.078,,706,116,50
15:11:59.114,,667,102,-2
15:11:59.151,,659,169,-5
15:11:59.188,,715,253,67
15:11:59.225,,869,281,149
15:11:59.262,,1028,316,198
15:11:59.299,,1012,337,302
15:11:59.336,,1372,424,298
15:11:59.372,,1510,327,193
15:11:59.409,,1070,77,170
15:11:59.446,,793,-189,238
15:11:59.483,,829,-117,312
15:11:59.520,,802,174,398
15:11:59.557,,793,365,484
15:11:59.594,,860,390,487
15:11:59.630,,985,284,435
15:11:59.667,,1194,230,369
15:11:59.704,,1320,272,316
15:11:59.741,,1431,372,410
15:11:59.778,,1222,365,352
15:11:59.814,,1387,295,143
15:11:59.851,,1275,237,94
15:11:59.888,,1135,158,67
15:11:59.925,,957,140,81
15:11:59.962,,765,132,77
15:11:59.999,,659,185,58
15:12:00.035,,625,191,32
15:12:00.072,,662,186,6
15:12:00.109,,788,186,8
15:12:00.146,,887,193,48
15:12:00.183,,1026,192,37
15:12:00.220,,1257,209,29
15:12:00.256,,1053,244,179
15:12:00.293,,1253,343,222
15:12:00.330,,1382,306,240
15:12:00.367,,1048,221,254
15:12:00.404,,719,39,284
15:12:00.441,,650,-40,365
15:12:00.477,,698,59,419
15:12:00.514,,726,163,444
15:12:00.551,,888,191,441
15:12:00.588,,1044,218,427
15:12:00.625,,1299,288,325
15:12:00.661,,1330,363,318
15:12:00.698,,1362,373,344
15:12:00.735,,1275,381,372
15:12:00.772,,1213,338,259
15:12:00.809,,1369,234,85
15:12:00.845,,1190,136,58
15:12:00.882,,971,106,60
15:12:00.919,,852,96,48
15:12:00.956,,750,147,76
15:12:00.993,,723,216,44
15:12:01.029,,730,217,-12
15:12:01.066,,837,178,25
15:12:01.103,,931,224,104
15:12:01.140,,993,224,121
15:12:01.177,,1134,253,155
15:12:01.214,,1047,250,268
15:12:01.250,,1226,227,232
15:12:01.287,,1352,134,163
15:12:01.324,,1031,87,185
15:12:01.361,,777,75,264
15:12:01.398,,735,146,357
15:12:01.434,,723,257,407
15:12:01.471,,721,248,418
15:12:01.508,,835,204,418
15:12:01.545,,994,203,399
15:12:01.582,,1257,247,366
15:12:01.618,,1389,312,323
15:12:01.655,,1362,324,351
15:12:01.692,,1122,322,347
15:12:01.729,,1431,369,174
15:12:01.766,,1439,299,85
15:12:01.802,,1183,170,62
15:12:01.839,,972,103,61
15:12:01.876,,769,84,46
15:12:01.913,,651,180,40
15:12:01.950,,629,216,30
15:12:01.986,,656,182,3
15:12:02.023,,680,132,-1
15:12:02.060,,769,178,56
15:12:02.097,,881,184,80
15:12:02.134,,1148,251,106
15:12:02.170,,1335,299,240
15:12:02.207,,1225,330,347
15:12:02.244,,1492,235,203
15:12:02.281,,1145,66,129
15:12:02.318,,829,-48,169
15:12:02.354,,712,43,239
15:12:02.391,,654,233,369
15:12:02.428,,676,321,464
15:12:02.465,,696,256,439
15:12:02.501,,902,221,426
15:12:02.538,,1201,200,381
15:12:02.575,,1344,276,341
15:12:02.612,,1423,369,379
15:12:02.649,,1277,350,382
15:12:02.685,,1500,349,100
15:12:02.722,,1457,247,32
15:12:02.759,,1158,127,49
15:12:02.796,,896,77,46
15:12:02.833,,732,107,12
15:12:02.869,,661,222,33
15:12:02.906,,668,280,56
15:12:02.943,,705,183,-3
15:12:02.980,,746,82,-59
15:12:03.016,,865,173,16
15:12:03.053,,959,223,111
15:12:03.090,,1159,277,129
15:12:03.127,,1037,307,253
15:12:03.164,,1157,353,275
15:12:03.200,,1325,289,182
15:12:03.237,,1082,137,144
15:12:03.274,,845,-64,116
15:12:03.311,,725,-107,139
15:12:03.347,,699,156,219
15:12:03.384,,719,348,325
15:12:03.421,,889,398,391
15:12:03.458,,1003,338,366
15:12:03.495,,1186,353,409
15:12:03.531,,1348,318,384
15:12:03.568,,1414,208,314
15:12:03.605,,1364,180,358
15:12:03.642,,1286,192,280
15:12:03.678,,1316,215,164
15:12:03.715,,1216,169,109
15:12:03.752,,1033,128,83
15:12:03.789,,922,131,31
15:12:03.825,,754,163,23
15:12:03.862,,712,227,25
15:12:03.899,,750,224,18
15:12:03.936,,764,164,-33
15:12:03.973,,834,170,-28
15:12:04.009,,890,211,17
15:12:04.046,,944,272,76
15:12:04.083,,1100,296,107
15:12:04.120,,1090,292,211
15:12:04.156,,1178,321,251
15:12:04.193,,1209,210,187
15:12:04.230,,923,81,200
15:12:04.267,,733,-36,236
15:12:04.303,,765,68,347
15:12:04.340,,796,243,476
15:12:04.377,,810,279,459
15:12:04.414,,922,198,399
15:12:04.451,,1183,183,365
15:12:04.487,,1323,278,332
15:12:04.524,,1508,413,333
15:12:04.561,,1404,428,418
15:12:04.598,,1324,361,248
15:12:04.634,,1312,273,98
15:12:04.671,,1128,182,53
15:12:04.708,,929,120,72
15:12:04.745,,762,124,94
15:12:04.782,,683,191,94
15:12:04.818,,698,222,64
15:12:04.855,,704,187,12
15:12:04.892,,727,124,-15
15:12:04.929,,814,150,13
15:12:04.965,,959,194,47
15:12:05.002,,1043,231,70
15:12:05.039,,1203,250,96
15:12:05.076,,1120,292,233
15:12:05.113,,1325,316,246
15:12:05.149,,1205,244,254
15:12:05.186,,861,152,320
15:12:05.223,,674,-26,351
15:12:05.260,,660,-39,395
15:12:05.296,,674,120,472
15:12:05.333,,788,188,442
15:12:05.370,,923,177,383
15:12:05.407,,1153,189,324
15:12:05.443,,1227,246,296
15:12:05.480,,1192,358,311
15:12:05.517,,1197,512,421
15:12:05.554,,1135,553,405
15:12:05.590,,1427,376,130
15:12:05.627,,1351,200,64
15:12:05.664,,1045,125,104
15:12:05.701,,875,108,98
15:12:05.737,,778,162,73
15:12:05.774,,774,241,68
15:12:05.811,,787,236,66
15:12:05.848,,833,168,28
15:12:05.884,,875,137,-1
15:12:05.921,,919,162,54
15:12:05.958,,903,189,113
15:12:05.995,,983,217,133
15:12:06.032,,1015,205,186
15:12:06.068,,1265,251,185
15:12:06.105,,1389,223,209
15:12:06.142,,994,209,295
15:12:06.179,,720,157,303
15:12:06.215,,682,73,289
15:12:06.252,,525,150,472
15:12:06.289,,658,155,547
15:12:06.326,,924,139,454
15:12:06.362,,1207,204,384
15:12:06.399,,1487,311,363
15:12:06.436,,1458,404,374
15:12:06.473,,1403,412,395
15:12:06.510,,1209,343,283
15:12:06.546,,1198,357,90
15:12:06.583,,1324,275,30
15:12:06.620,,1104,144,56
15:12:06.657,,912,112,61
15:12:06.693,,729,122,53
15:12:06.730,,659,206,32
15:12:06.767,,651,256,20
15:12:06.804,,711,228,1
15:12:06.841,,789,152,-8
15:12:06.877,,876,150,42
15:12:06.914,,956,167,112
15:12:06.951,,1108,216,153
15:12:06.988,,1359,248,216
15:12:07.024,,1443,259,285
15:12:07.061,,1485,147,198
15:12:07.098,,908,58,222
15:12:07.135,,644,85,265
15:12:07.172,,643,152,289
15:12:07.208,,631,261,648
15:12:07.245,,654,100,856
15:12:07.282,,812,-79,501
15:12:07.319,,1173,277,286
15:12:07.356,,1370,516,384
15:12:07.392,,1345,399,372
15:12:07.429,,1407,249,328
15:12:07.466,,1208,244,244
15:12:07.503,,1161,342,80
15:12:07.539,,1251,405,48
15:12:07.576,,1039,337,70
15:12:07.613,,896,219,67
15:12:07.650,,768,179,83
15:12:07.687,,729,215,56
15:12:07.723,,727,255,40
15:12:07.760,,781,197,23
15:12:07.797,,791,133,34
15:12:07.834,,879,115,87
15:12:07.870,,941,142,130
15:12:07.907,,1191,179,153
15:12:07.944,,1160,185,233
15:12:07.981,,1373,208,234
15:12:08.018,,1547,195,215
15:12:08.054,,1038,183,257
15:12:08.091,,747,126,233
15:12:08.128,,599,110,205
15:12:08.165,,598,261,233
15:12:08.202,,722,332,276
15:12:08.239,,831,294,272
15:12:08.275,,938,282,257
15:12:08.312,,1231,340,210
15:12:08.349,,1324,505,318
15:12:08.386,,1436,594,469
15:12:08.422,,1259,418,335
15:12:08.459,,1408,258,94
15:12:08.496,,1393,216,62
15:12:08.533,,1134,103,109
15:12:08.570,,912,107,129
15:12:08.607,,796,126,89
15:12:08.643,,715,216,61
15:12:08.680,,718,250,38
15:12:08.717,,765,199,-10
15:12:08.754,,802,137,-39
15:12:08.791,,860,172,40
15:12:08.827,,932,216,55
15:12:08.864,,1051,271,71
15:12:08.901,,1104,268,154
15:12:08.938,,1276,296,180
15:12:08.975,,1543,225,153
15:12:09.011,,1086,157,226
15:12:09.048,,719,111,340
15:12:09.085,,587,97,378
15:12:09.122,,616,181,357
15:12:09.159,,704,243,416
15:12:09.195,,897,181,416
15:12:09.232,,1005,161,344
15:12:09.269,,1212,226,293
15:12:09.306,,1295,308,302
15:12:09.342,,1348,433,353
15:12:09.379,,1355,528,404
15:12:09.416,,1242,408,276
15:12:09.453,,1293,282,107
15:12:09.489,,1176,193,77
15:12:09.526,,1034,159,102
15:12:09.563,,948,135,61
15:12:09.600,,763,151,43
15:12:09.636,,719,205,37
15:12:09.673,,753,212,23
15:12:09.710,,774,156,-2
15:12:09.747,,826,164,36
15:12:09.784,,920,151,55
15:12:09.820,,1126,179,46
15:12:09.857,,1134,232,147
15:12:09.894,,1209,285,225
15:12:09.931,,1381,272,243
15:12:09.967,,1024,182,270
15:12:10.004,,683,51,278
15:12:10.041,,563,-21,328
15:12:10.078,,577,143,425
15:12:10.114,,650,226,466
15:12:10.151,,861,170,415
15:12:10.188,,1003,157,372
15:12:10.225,,1162,198,302
15:12:10.261,,1262,273,279
15:12:10.298,,1333,380,302
15:12:10.335,,1423,472,412
15:12:10.372,,1207,402,321
15:12:10.408,,1418,325,108
15:12:10.445,,1299,215,92
15:12:10.482,,1083,102,78
15:12:10.519,,906,83,51
15:12:10.556,,759,110,54
15:12:10.592,,649,212,88
15:12:10.629,,594,218,70
15:12:10.666,,544,156,35
15:12:10.703,,681,127,22
15:12:10.740,,886,170,61
15:12:10.776,,1046,197,85
15:12:10.813,,1257,257,98
15:12:10.850,,1229,266,237
15:12:10.887,,1227,303,241
15:12:10.923,,1617,212,93
15:12:10.960,,1141,108,131
15:12:10.997,,805,47,186
15:12:11.034,,617,138,287
15:12:11.070,,596,314,367
15:12:11.107,,632,345,389
15:12:11.144,,756,261,353
15:12:11.181,,901,205,312
15:12:11.217,,1141,241,326
15:12:11.254,,1361,276,297
15:12:11.291,,1450,451,369
15:12:11.328,,1297,461,407
15:12:11.365,,1391,392,170
15:12:11.401,,1455,256,69
15:12:11.438,,1190,165,80
15:12:11.475,,1004,130,57
15:12:11.512,,827,132,46
15:12:11.549,,702,187,43
15:12:11.586,,649,186,4
15:12:11.622,,694,173,-7
15:12:11.659,,767,255,6
15:12:11.696,,851,314,61
15:12:11.733,,925,307,113
15:12:11.770,,1043,323,118
15:12:11.807,,988,331,187
15:12:11.844,,1014,281,207
15:12:11.880,,1420,281,158
15:12:11.917,,1201,289,233
15:12:11.954,,862,70,226
15:12:11.991,,673,49,278
15:12:12.028,,631,224,365
15:12:12.065,,829,226,358
15:12:12.101,,991,235,370
15:12:12.138,,1206,301,329
15:12:12.175,,1365,448,353
15:12:12.212,,1453,535,382
15:12:12.249,,1186,463,316
15:12:12.286,,1200,355,168
15:12:12.322,,1224,310,112
15:12:12.359,,1038,260,104
15:12:12.396,,897,216,79
15:12:12.433,,796,210,63
15:12:12.470,,750,257,46
15:12:12.507,,778,242,32
15:12:12.543,,855,182,-1
15:12:12.580,,894,137,-27
15:12:12.617,,965,170,9
15:12:12.654,,1084,220,34
15:12:12.691,,1238,259,44
15:12:12.728,,1006,270,190
15:12:12.765,,956,311,267
15:12:12.801,,1273,280,179
15:12:12.838,,1016,215,130
15:12:12.875,,743,70,143
15:12:12.912,,649,-7,208
15:12:12.949,,668,163,255
15:12:12.985,,732,288,302
15:12:13.022,,840,262,323
15:12:13.059,,1005,221,338
15:12:13.096,,1254,241,344
15:12:13.133,,1470,334,317
15:12:13.170,,1551,428,425
15:12:13.206,,1250,377,451
15:12:13.243,,1175,225,239
15:12:13.280,,1197,157,64
15:12:13.317,,1100,90,71
15:12:13.354,,899,72,120
15:12:13.390,,708,132,111
15:12:13.427,,636,209,84
15:12:13.464,,725,281,43
15:12:13.501,,801,257,-17
15:12:13.538,,889,201,-38
15:12:13.575,,1124,219,-26
15:12:13.611,,1110,240,31
15:12:13.648,,1167,277,62
15:12:13.685,,915,274,219
15:12:13.722,,924,289,270
15:12:13.759,,1223,207,222
15:12:13.796,,968,85,218
15:12:13.833,,673,-2,287
15:12:13.869,,573,27,426
15:12:13.906,,640,103,514
15:12:13.943,,636,131,536
15:12:13.980,,773,91,520
15:12:14.017,,986,59,479
15:12:14.054,,1314,144,341
15:12:14.090,,1470,311,305
15:12:14.127,,1629,384,371
15:12:14.164,,1264,373,352
15:12:14.201,,1244,331,95
15:12:14.238,,1188,277,43
15:12:14.275,,1029,173,41
15:12:14.311,,843,154,65
15:12:14.348,,672,162,89
15:12:14.385,,593,206,85
15:12:14.422,,601,223,59
15:12:14.459,,669,189,17
15:12:14.496,,742,169,39
15:12:14.532,,934,199,99
15:12:14.569,,1110,208,136
15:12:14.606,,1212,222,174
15:12:14.643,,1286,205,241
15:12:14.680,,1012,187,321
15:12:14.717,,1291,148,200
15:12:14.753,,1222,148,166
15:12:14.790,,866,171,203
15:12:14.827,,717,201,272
15:12:14.864,,635,254,364
15:12:14.901,,618,321,369
15:12:14.938,,679,245,350
15:12:14.974,,853,208,345
15:12:15.011,,1085,207,339
15:12:15.048,,1329,246,297
15:12:15.085,,1468,298,239
15:12:15.122,,1328,370,349
15:12:15.158,,1165,373,312
15:12:15.195,,1230,288,108
15:12:15.232,,1173,203,28
15:12:15.269,,1011,110,51
15:12:15.306,,830,100,75
15:12:15.343,,725,144,76
15:12:15.379,,706,225,47
15:12:15.416,,752,251,14
15:12:15.453,,789,186,-16
15:12:15.490,,853,166,7
15:12:15.527,,974,208,82
15:12:15.564,,1051,217,103
15:12:15.601,,1176,228,101
15:12:15.637,,1134,211,195
15:12:15.674,,1095,228,252
15:12:15.711,,1318,209,213
15:12:15.748,,1044,162,204
15:12:15.785,,769,142,241
15:12:15.822,,614,128,287
15:12:15.858,,642,233,335
15:12:15.895,,706,273,379
15:12:15.932,,808,232,364
15:12:15.969,,971,196,348
15:12:16.006,,1166,218,299
15:12:16.042,,1323,309,283
15:12:16.079,,1361,334,283
15:12:16.116,,1249,348,351
15:12:16.153,,1139,341,357
15:12:16.190,,1172,293,229
15:12:16.227,,1231,210,125
15:12:16.263,,1056,125,108
15:12:16.300,,901,107,58
15:12:16.337,,805,108,38
15:12:16.374,,762,179,57
15:12:16.411,,781,210,58
15:12:16.448,,759,166,-31
15:12:16.485,,772,193,-20
15:12:16.521,,955,272,64
15:12:16.558,,1034,291,134
15:12:16.595,,1052,259,154
15:12:16.632,,1151,238,167
15:12:16.669,,981,198,258
15:12:16.706,,1137,166,249
15:12:16.743,,1099,77,230
15:12:16.779,,810,79,281
15:12:16.816,,669,120,356
15:12:16.853,,701,127,427
15:12:16.890,,690,173,448
15:12:16.927,,776,188,442
15:12:16.964,,919,185,407
15:12:17.000,,1086,216,383
15:12:17.037,,1278,260,311
15:12:17.074,,1316,328,287
15:12:17.111,,1310,366,386
15:12:17.148,,1173,377,341
15:12:17.184,,1278,349,141
15:12:17.221,,1246,256,104
15:12:17.258,,1054,158,95
15:12:17.295,,894,138,81
15:12:17.332,,758,150,79
15:12:17.369,,693,206,82
15:12:17.405,,678,211,52
15:12:17.442,,694,173,10
15:12:17.479,,799,168,33
15:12:17.516,,1022,232,124
15:12:17.553,,1361,224,81
15:12:17.590,,1354,193,97
15:12:17.627,,1074,200,247
15:12:17.664,,1257,233,241
15:12:17.700,,1063,115,152
15:12:17.737,,783,-23,114
15:12:17.774,,573,-42,151
15:12:17.811,,493,148,221
15:12:17.848,,568,318,310
15:12:17.885,,749,344,328
15:12:17.921,,922,272,288
15:12:17.958,,1237,242,260
15:12:17.995,,1483,293,291
15:12:18.032,,1588,410,383
15:12:18.069,,1365,439,468
15:12:18.106,,1381,276,213
15:12:18.142,,1286,166,45
15:12:18.179,,1126,108,39
15:12:18.216,,956,83,128
15:12:18.253,,769,124,165
15:12:18.290,,668,194,91
15:12:18.327,,688,226,34
15:12:18.363,,778,195,-27
15:12:18.400,,829,142,-53
15:12:18.436,,930,176,-10
15:12:18.473,,990,224,68
15:12:18.509,,1057,267,103
15:12:18.546,,1097,297,171
15:12:18.583,,997,284,245
15:12:18.620,,1102,197,159
15:12:18.657,,1096,123,120
15:12:18.693,,797,106,231
15:12:18.730,,720,132,340
15:12:18.767,,744,187,423
15:12:18.804,,775,244,457
15:12:18.841,,874,227,439
15:12:18.877,,1006,184,353
15:12:18.914,,1163,242,325
15:12:18.951,,1387,322,338
15:12:18.988,,1255,335,312
15:12:19.025,,1135,302,308
15:12:19.062,,1153,364,311
15:12:19.098,,1367,376,164
15:12:19.135,,1320,268,50
15:12:19.172,,1059,142,32
15:12:19.209,,874,48,-2
15:12:19.246,,786,97,-1
15:12:19.283,,768,194,23
15:12:19.319,,790,265,16
15:12:19.356,,822,243,-2
15:12:19.393,,940,221,8
15:12:19.430,,1005,227,53
15:12:19.467,,1096,250,85
15:12:19.504,,1024,231,117
15:12:19.541,,965,211,164
15:12:19.577,,1272,267,243
15:12:19.614,,1158,172,322
15:12:19.651,,724,80,323
15:12:19.688,,558,26,347
15:12:19.725,,568,104,399
15:12:19.762,,587,190,392
15:12:19.798,,644,201,397
15:12:19.835,,916,248,415
15:12:19.872,,1364,306,404
15:12:19.909,,1400,351,350
15:12:19.946,,1433,356,384
15:12:19.983,,1254,336,464
15:12:20.019,,1216,367,273
15:12:20.056,,1473,290,72
15:12:20.093,,1296,159,101
15:12:20.130,,1038,64,141
15:12:20.167,,838,91,87
15:12:20.204,,690,153,37
15:12:20.240,,622,239,37
15:12:20.277,,626,232,4
15:12:20.314,,640,194,5
15:12:20.351,,828,232,47
15:12:20.388,,1060,246,76
15:12:20.425,,1086,250,124
15:12:20.462,,1212,269,124
15:12:20.498,,1056,254,231
15:12:20.535,,1021,249,231
15:12:20.572,,1298,164,147
15:12:20.609,,1015,74,187
15:12:20.646,,785,37,261
15:12:20.683,,698,141,413
15:12:20.719,,797,248,511
15:12:20.756,,827,217,432
15:12:20.793,,852,142,393
15:12:20.830,,950,148,333
15:12:20.867,,1103,248,309
15:12:20.903,,1092,323,331
15:12:20.940,,1152,360,339
15:12:20.977,,1146,395,370
15:12:21.014,,1413,406,195
15:12:21.051,,1486,307,87
15:12:21.088,,1217,171,89
15:12:21.124,,925,91,63
15:12:21.161,,737,107,23
15:12:21.198,,669,196,16
15:12:21.235,,643,275,64
15:12:21.272,,746,274,69
15:12:21.309,,853,205,20
15:12:21.346,,967,184,37
15:12:21.382,,1085,160,43
15:12:21.419,,1122,191,54
15:12:21.456,,1115,240,143
15:12:21.493,,967,296,235
15:12:21.530,,1196,286,215
15:12:21.567,,1084,267,262
15:12:21.604,,862,173,267
15:12:21.640,,742,41,270
15:12:21.677,,681,74,318
15:12:21.714,,716,171,358
15:12:21.751,,740,188,368
15:12:21.788,,844,190,384
15:12:21.825,,998,213,381
15:12:21.861,,1214,272,320
15:12:21.898,,1316,309,298
15:12:21.935,,1243,330,395
15:12:21.972,,1215,370,436
15:12:22.009,,1481,300,181
15:12:22.046,,1437,169,13
15:12:22.082,,1158,93,65
15:12:22.119,,934,72,70
15:12:22.156,,782,108,-2
15:12:22.193,,650,215,-16
15:12:22.230,,659,285,10
15:12:22.267,,706,264,28
15:12:22.304,,739,171,-10
15:12:22.341,,827,163,20
15:12:22.377,,957,169,80
15:12:22.414,,1088,241,134
15:12:22.451,,1184,274,226
15:12:22.488,,1050,320,360
15:12:22.525,,1350,257,299
15:12:22.562,,1250,82,210
15:12:22.599,,895,-35,208
15:12:22.636,,658,-9,269
15:12:22.672,,648,145,364
15:12:22.709,,696,287,454
15:12:22.746,,721,272,490
15:12:22.783,,816,204,454
15:12:22.820,,1108,183,387
15:12:22.857,,1403,209,254
15:12:22.893,,1263,299,250
15:12:22.930,,1200,321,363
15:12:22.967,,1142,428,347
15:12:23.004,,1285,441,190
15:12:23.041,,1398,256,80
15:12:23.078,,930,10,31
15:12:23.114,,786,54,27
15:12:23.151,,715,175,61
15:12:23.188,,685,258,84
15:12:23.225,,710,203,62
15:12:23.262,,794,163,72
15:12:23.299,,883,157,113
15:12:23.336,,1012,165,114
15:12:23.373,,1138,180,131
15:12:23.409,,1127,213,211
15:12:23.446,,1347,280,254
15:12:23.483,,1386,225,223
15:12:23.520,,915,146,216
15:12:23.557,,619,37,239
15:12:23.594,,587,85,255
15:12:23.630,,678,227,323
15:12:23.667,,718,293,399
15:12:23.704,,805,246,369
15:12:23.741,,1046,234,336
15:12:23.778,,1308,273,285
15:12:23.814,,1320,368,282
15:12:23.851,,1319,416,410
15:12:23.888,,1114,386,368
15:12:23.925,,1257,306,133
15:12:23.962,,1218,210,85
15:12:23.999,,1088,98,99
15:12:24.035,,896,83,94
15:12:24.072,,769,125,88
15:12:24.109,,718,199,68
15:12:24.146,,772,246,36
15:12:24.183,,901,222,-5
15:12:24.220,,1015,206,17
15:12:24.257,,1071,185,65
15:12:24.293,,1086,213,84
15:12:24.330,,1061,217,120
15:12:24.367,,899,227,175
15:12:24.404,,1137,246,177
15:12:24.441,,1098,216,259
15:12:24.478,,890,169,278
15:12:24.515,,646,72,294
15:12:24.551,,574,107,376
15:12:24.588,,662,193,429
15:12:24.625,,779,171,377
15:12:24.662,,959,151,345
15:12:24.699,,1121,208,341
15:12:24.736,,1289,298,335
15:12:24.772,,1383,386,342
15:12:24.809,,1312,462,469
15:12:24.846,,1242,375,313
15:12:24.883,,1301,191,127
15:12:24.920,,1161,110,46
15:12:24.956,,970,64,62
15:12:24.993,,746,91,90
15:12:25.030,,621,178,104
15:12:25.067,,627,262,98
15:12:25.104,,715,267,53
15:12:25.141,,759,186,6
15:12:25.178,,849,175,35
15:12:25.215,,982,177,73
15:12:25.251,,1052,216,106
15:12:25.288,,1135,255,190
15:12:25.325,,1167,270,273
15:12:25.362,,1239,199,275
15:12:25.399,,1277,96,232
15:12:25.436,,935,30,272
15:12:25.473,,711,52,311
15:12:25.509,,659,129,365
15:12:25.546,,642,237,477
15:12:25.583,,707,230,454
15:12:25.620,,803,169,377
15:12:25.657,,1076,182,358
15:12:25.694,,1355,237,277
15:12:25.730,,1380,365,282
15:12:25.767,,1315,435,455
15:12:25.804,,1299,404,283
15:12:25.841,,1404,263,49
15:12:25.878,,1148,161,61
15:12:25.915,,927,75,77
15:12:25.951,,752,85,73
15:12:25.988,,644,186,82
15:12:26.025,,669,242,80
15:12:26.062,,764,216,31
15:12:26.099,,806,159,13
15:12:26.136,,903,165,58
15:12:26.173,,985,185,116
15:12:26.210,,1052,218,157
15:12:26.246,,1078,274,253
15:12:26.283,,1067,258,308
15:12:26.320,,1390,182,233
15:12:26.357,,1167,45,211
15:12:26.394,,850,13,246
15:12:26.431,,697,63,306
15:12:26.468,,697,181,337
15:12:26.504,,671,300,369
15:12:26.541,,744,297,372
15:12:26.578,,836,242,360
15:12:26.615,,1104,246,322
15:12:26.652,,1330,302,265
15:12:26.689,,1375,403,315
15:12:26.725,,1272,452,476
15:12:26.762,,1228,404,296
15:12:26.799,,1359,266,73
15:12:26.836,,1225,130,58
15:12:26.873,,1021,21,71
15:12:26.910,,795,56,82
15:12:26.946,,696,145,119
15:12:26.983,,698,219,125
15:12:27.020,,751,212,41
15:12:27.057,,793,161,15
15:12:27.094,,913,156,34
15:12:27.131,,986,188,87
15:12:27.168,,1072,227,97
15:12:27.204,,1152,281,136
15:12:27.241,,1057,308,232
15:12:27.278,,1259,278,186
15:12:27.315,,1219,207,162
15:12:27.352,,863,112,178
15:12:27.388,,666,64,221
15:12:27.425,,641,174,336
15:12:27.462,,716,275,439
15:12:27.499,,780,259,457
15:12:27.536,,914,219,415
15:12:27.572,,1159,236,338
15:12:27.609,,1320,336,346
15:12:27.646,,1324,363,339
15:12:27.683,,1290,328,331
15:12:27.720,,1252,312,223
15:12:27.757,,1437,279,44
15:12:27.793,,1313,154,13
15:12:27.830,,999,130,27
15:12:27.867,,869,120,15
15:12:27.904,,740,196,29
15:12:27.941,,663,278,51
15:12:27.978,,660,234,36
15:12:28.015,,661,145,17
15:12:28.051,,733,141,30
15:12:28.088,,872,169,71
15:12:28.125,,999,210,94
15:12:28.162,,1292,251,115
15:12:28.199,,1173,270,255
15:12:28.236,,1373,283,242
15:12:28.272,,1351,178,137
15:12:28.309,,927,92,130
15:12:28.346,,692,66,149
15:12:28.383,,609,191,228
15:12:28.420,,608,359,328
15:12:28.456,,741,370,367
15:12:28.493,,867,251,344
15:12:28.530,,1033,93,204
15:12:28.567,,1276,314,185
15:12:28.604,,1387,637,366
15:12:28.640,,1324,688,455
15:12:28.677,,1233,581,263
15:12:28.714,,1401,418,80
15:12:28.751,,1242,268,25
15:12:28.788,,1035,182,26
15:12:28.824,,888,149,25
15:12:28.861,,752,195,36
15:12:28.898,,701,216,23
15:12:28.935,,707,193,6
15:12:28.972,,750,157,1
15:12:29.009,,907,181,-5
15:12:29.045,,1047,222,20
15:12:29.082,,1073,253,89
15:12:29.119,,1143,285,137
15:12:29.156,,1031,238,215
15:12:29.193,,1034,235,213
15:12:29.229,,1290,200,149
15:12:29.266,,1013,177,188
15:12:29.303,,745,181,266
15:12:29.340,,595,173,362
15:12:29.377,,626,242,425
15:12:29.413,,766,244,478
15:12:29.450,,904,157,437
15:12:29.487,,1011,106,361
15:12:29.524,,1261,204,330
15:12:29.561,,1382,286,328
15:12:29.598,,1313,289,279
15:12:29.634,,1194,270,285
15:12:29.671,,1261,305,181
15:12:29.708,,1341,275,51
15:12:29.745,,1057,191,68
15:12:29.782,,829,145,41
15:12:29.819,,740,135,22
15:12:29.855,,718,202,40
15:12:29.892,,753,257,45
15:12:29.929,,815,213,2
15:12:29.966,,891,180,-8
15:12:30.003,,1053,232,73
15:12:30.040,,1087,215,88
15:12:30.077,,1217,225,65
15:12:30.113,,1053,207,183
15:12:30.150,,1045,267,248
15:12:30.187,,1249,232,213
15:12:30.224,,971,136,217
15:12:30.261,,634,35,242
15:12:30.298,,525,45,282
15:12:30.335,,607,171,318
15:12:30.371,,643,241,338
15:12:30.408,,791,186,310
15:12:30.445,,928,183,288
15:12:30.482,,1125,267,282
15:12:30.519,,1253,366,298
15:12:30.555,,1419,376,322
15:12:30.592,,1363,347,371
15:12:30.629,,1217,303,372
15:12:30.666,,1316,233,228
15:12:30.703,,1267,177,89
15:12:30.740,,1039,114,97
15:12:30.776,,832,96,129
15:12:30.813,,680,151,124
15:12:30.850,,627,222,101
15:12:30.887,,679,223,61
15:12:30.924,,730,165,35
15:12:30.961,,800,142,33
15:12:30.997,,965,177,33
15:12:31.034,,1148,218,68
15:12:31.071,,1195,251,92
15:12:31.108,,1110,258,159
15:12:31.144,,1054,283,232
15:12:31.181,,1332,264,184
15:12:31.218,,1033,202,217
15:12:31.255,,688,87,238
15:12:31.291,,555,76,262
15:12:31.328,,579,186,336
15:12:31.365,,666,248,363
15:12:31.402,,788,225,366
15:12:31.438,,962,213,325
15:12:31.475,,1265,299,313
15:12:31.512,,1347,398,345
15:12:31.549,,1286,412,354
15:12:31.585,,1132,383,393
15:12:31.622,,1149,354,329
15:12:31.659,,1349,317,135
15:12:31.696,,1271,194,109
15:12:31.732,,1027,104,98
15:12:31.769,,954,92,62
15:12:31.806,,839,151,54
15:12:31.843,,786,260,58
15:12:31.880,,811,254,25
15:12:31.916,,838,180,-17
15:12:31.953,,912,173,-1
15:12:31.990,,986,196,46
15:12:32.027,,1033,199,34
15:12:32.063,,1043,227,82
15:12:32.100,,924,287,192
15:12:32.137,,1239,370,280
15:12:32.174,,1210,273,329
15:12:32.211,,827,92,302
15:12:32.247,,557,-96,276
15:12:32.284,,602,-3,301
15:12:32.321,,673,186,380
15:12:32.358,,820,231,422
15:12:32.394,,936,197,414
15:12:32.431,,1096,248,323
15:12:32.468,,1228,407,336
15:12:32.505,,1447,512,384
15:12:32.542,,1451,410,399
15:12:32.578,,1261,250,291
15:12:32.615,,1350,143,112
15:12:32.652,,1271,156,69
15:12:32.689,,1059,128,116
15:12:32.726,,845,141,138
15:12:32.762,,704,177,100
15:12:32.799,,617,227,55
15:12:32.836,,609,244,26
15:12:32.873,,651,191,4
15:12:32.910,,728,162,9
15:12:32.947,,950,178,15
15:12:32.984,,1108,216,32
15:12:33.020,,1359,300,49
15:12:33.057,,1241,344,232
15:12:33.094,,1010,392,358
15:12:33.131,,1274,332,221
15:12:33.168,,1143,113,107
15:12:33.205,,803,-122,138
15:12:33.241,,605,-84,261
15:12:33.278,,600,136,337
15:12:33.315,,691,323,351
15:12:33.352,,757,329,353
15:12:33.389,,810,213,337
15:12:33.426,,1000,215,345
15:12:33.462,,1258,291,342
15:12:33.499,,1281,351,323
15:12:33.536,,1253,350,398
15:12:33.573,,1249,356,364
15:12:33.610,,1457,313,86
15:12:33.646,,1347,201,63
15:12:33.683,,1026,107,128
15:12:33.720,,819,110,81
15:12:33.757,,677,162,36
15:12:33.794,,577,240,51
15:12:33.831,,569,244,48
15:12:33.868,,630,193,34
15:12:33.904,,816,203,10
15:12:33.941,,1053,245,10
15:12:33.978,,1227,271,41
15:12:34.015,,1390,296,47
15:12:34.052,,1139,285,197
15:12:34.088,,991,359,296
15:12:34.125,,1204,294,159
15:12:34.162,,752,-51,192
15:12:34.199,,509,-36,304
15:12:34.236,,546,127,362
15:12:34.272,,613,249,382
15:12:34.309,,734,262,385
15:12:34.346,,889,197,347
15:12:34.383,,1109,234,312
15:12:34.420,,1293,333,307
15:12:34.456,,1365,426,317
15:12:34.493,,1408,413,329
15:12:34.530,,1141,397,323
15:12:34.567,,1173,334,206
15:12:34.604,,1215,261,116
15:12:34.640,,1039,137,117
15:12:34.677,,842,103,103
15:12:34.714,,693,117,59
15:12:34.751,,613,206,34
15:12:34.788,,656,283,33
15:12:34.825,,806,304,47
15:12:34.861,,944,231,35
15:12:34.898,,1083,215,44
15:12:34.935,,1149,197,41
15:12:34.972,,1323,227,24
15:12:35.009,,1159,248,143
15:12:35.045,,849,305,264
15:12:35.082,,1106,261,223
15:12:35.119,,989,190,182
15:12:35.156,,747,97,180
15:12:35.193,,575,36,203
15:12:35.229,,578,150,246
15:12:35.266,,623,262,296
15:12:35.303,,718,282,346
15:12:35.340,,873,244,377
15:12:35.377,,1136,262,401
15:12:35.413,,1422,298,359
15:12:35.450,,1439,280,339
15:12:35.487,,1405,226,354
15:12:35.524,,1207,219,327
15:12:35.561,,1219,247,181
15:12:35.598,,1322,224,-4
15:12:35.634,,1135,203,-1
15:12:35.671,,899,201,42
15:12:35.708,,793,226,32
15:12:35.745,,686,280,15
15:12:35.782,,636,284,-6
15:12:35.819,,629,205,-12
15:12:35.855,,680,175,-7
15:12:35.892,,786,197,13
15:12:35.929,,1001,232,34
15:12:35.966,,1137,241,65
15:12:36.003,,1242,261,119
15:12:36.039,,1151,255,237
15:12:36.076,,1175,276,282
15:12:36.113,,1402,221,237
15:12:36.150,,1008,83,213
15:12:36.187,,714,14,199
15:12:36.223,,609,77,230
15:12:36.260,,604,225,329
15:12:36.297,,661,309,413
15:12:36.334,,737,270,409
15:12:36.370,,884,241,387
15:12:36.407,,1206,263,344
15:12:36.444,,1413,318,307
15:12:36.481,,1527,346,334
15:12:36.517,,1414,285,303
15:12:36.554,,1275,233,102
15:12:36.591,,1282,149,22
15:12:36.628,,1099,52,2
15:12:36.664,,809,119,1
15:12:36.701,,635,211,54
15:12:36.738,,568,269,79
15:12:36.775,,598,279,73
15:12:36.812,,680,206,34
15:12:36.848,,778,180,23
15:12:36.885,,909,182,51
15:12:36.922,,1052,215,86
15:12:36.959,,1177,264,132
15:12:36.995,,1282,276,182
15:12:37.032,,1180,256,215
15:12:37.069,,1387,170,149
15:12:37.105,,1053,132,233
15:12:37.142,,700,141,368
15:12:37.179,,658,105,385
15:12:37.216,,559,108,382
15:12:37.252,,519,176,431
15:12:37.289,,670,184,439
15:12:37.326,,838,221,340
15:12:37.362,,1223,348,318
15:12:37.399,,1430,353,292
15:12:37.436,,1388,297,239
15:12:37.473,,1296,289,297
15:12:37.509,,1188,310,226
15:12:37.546,,1288,275,97
15:12:37.583,,1103,179,111
15:12:37.620,,941,120,80
15:12:37.656,,817,139,71
15:12:37.693,,710,194,101
15:12:37.730,,718,231,88
15:12:37.767,,706,177,44
15:12:37.804,,711,160,52
15:12:37.840,,871,223,94
15:12:37.877,,1000,229,104
15:12:37.914,,1044,235,120
15:12:37.951,,1091,213,175
15:12:37.988,,1087,212,215
15:12:38.024,,1263,234,183
15:12:38.061,,1270,226,195
15:12:38.098,,919,198,256
15:12:38.134,,691,177,310
15:12:38.171,,583,176,352
15:12:38.208,,521,183,393
15:12:38.245,,547,177,426
15:12:38.281,,761,212,435
15:12:38.318,,1042,265,379
15:12:38.355,,1378,769,328
15:12:38.392,,1284,935,376
15:12:38.428,,1214,774,324
15:12:38.465,,972,689,369
15:12:38.502,,913,622,281
15:12:38.539,,1145,551,28
15:12:38.576,,1095,420,-64
15:12:38.613,,879,367,-35
15:12:38.650,,712,285,-5
15:12:38.686,,614,251,0
15:12:38.723,,568,272,15
15:12:38.760,,599,292,25
15:12:38.797,,651,317,37
15:12:38.834,,784,391,79
15:12:38.871,,900,456,124
15:12:38.908,,1091,594,213
15:12:38.945,,1163,679,347
15:12:38.981,,991,602,361
15:12:39.018,,1166,521,423
15:12:39.055,,1060,387,432
15:12:39.092,,685,361,365
15:12:39.129,,485,419,352
15:12:39.166,,375,397,328
15:12:39.202,,437,379,281
15:12:39.239,,548,364,254
15:12:39.276,,606,472,278
15:12:39.313,,786,628,311
15:12:39.350,,997,750,309
15:12:39.387,,1067,810,352
15:12:39.423,,969,876,424
15:12:39.460,,873,873,427
15:12:39.497,,958,805,341
15:12:39.534,,940,649,269
15:12:39.571,,781,501,226
15:12:39.608,,679,390,176
15:12:39.645,,579,311,141
15:12:39.681,,556,277,103
15:12:39.718,,603,279,72
15:12:39.755,,668,298,76
15:12:39.792,,816,345,54
15:12:39.829,,1009,343,27
15:12:39.866,,1220,379,38
15:12:39.903,,1420,426,90
15:12:39.939,,1083,399,275
15:12:39.976,,1033,420,287
15:12:40.013,,1312,356,161
15:12:40.050,,969,152,150
15:12:40.087,,715,-68,146
15:12:40.124,,522,-82,193
15:12:40.160,,508,126,277
15:12:40.197,,588,259,347
15:12:40.234,,700,269,367
15:12:40.271,,860,220,397
15:12:40.308,,1169,191,325
15:12:40.345,,1395,247,271
15:12:40.381,,1515,364,341
15:12:40.418,,1380,356,409
15:12:40.455,,1301,286,186
15:12:40.492,,1299,190,47
15:12:40.529,,1050,122,67
15:12:40.566,,853,85,95
15:12:40.602,,679,116,86
15:12:40.639,,586,209,56
15:12:40.676,,608,278,44
15:12:40.713,,718,268,33
15:12:40.750,,814,210,40
15:12:40.787,,959,194,56
15:12:40.824,,1073,190,81
15:12:40.861,,1159,222,100
15:12:40.897,,1190,261,160
15:12:40.934,,953,245,259
15:12:40.971,,1104,207,201
15:12:41.008,,1136,181,153
15:12:41.045,,839,146,198
15:12:41.082,,675,128,236
15:12:41.118,,650,172,283
15:12:41.155,,679,238,316
15:12:41.192,,729,212,331
15:12:41.229,,840,210,361
15:12:41.266,,1052,233,349
15:12:41.303,,1302,271,317
15:12:41.340,,1362,337,312
15:12:41.376,,1440,354,388
15:12:41.413,,1238,302,335
15:12:41.450,,1322,231,116
15:12:41.487,,1285,130,53
15:12:41.524,,1078,43,46
15:12:41.561,,865,65,5
15:12:41.597,,695,135,10
15:12:41.634,,650,270,67
15:12:41.671,,688,292,29
15:12:41.708,,709,240,-3
15:12:41.745,,820,208,12
15:12:41.781,,957,236,57
15:12:41.818,,1027,243,79
15:12:41.855,,1106,261,97
15:12:41.892,,1019,242,165
15:12:41.928,,1183,244,174
15:12:41.965,,1366,185,151
15:12:42.002,,974,132,232
15:12:42.039,,706,70,327
15:12:42.076,,634,63,360
15:12:42.112,,625,156,407
15:12:42.149,,666,194,456
15:12:42.186,,782,156,465
15:12:42.223,,942,157,427
15:12:42.260,,1241,212,313
15:12:42.296,,1468,310,265
15:12:42.333,,1549,377,348
15:12:42.370,,1212,366,337
15:12:42.407,,1280,350,132
15:12:42.444,,1192,280,62
15:12:42.480,,1055,154,29
15:12:42.517,,875,92,29
15:12:42.554,,706,92,44
15:12:42.591,,632,181,64
15:12:42.628,,694,232,49
15:12:42.664,,732,220,23
15:12:42.701,,801,182,13
15:12:42.738,,941,185,46
15:12:42.775,,1021,187,75
15:12:42.812,,1169,233,92
15:12:42.849,,1120,242,176
15:12:42.885,,1124,270,215
15:12:42.922,,1308,243,199
15:12:42.959,,1031,224,220
15:12:42.996,,802,146,261
15:12:43.033,,644,76,320
15:12:43.069,,667,158,340
15:12:43.106,,725,196,338
15:12:43.143,,795,203,321
15:12:43.180,,949,226,302
15:12:43.217,,1168,286,301
15:12:43.253,,1326,346,268
15:12:43.290,,1362,411,317
15:12:43.327,,1265,400,356
15:12:43.364,,1335,325,165
15:12:43.400,,1295,220,46
15:12:43.437,,1115,120,59
15:12:43.474,,943,100,86
15:12:43.511,,843,135,107
15:12:43.548,,772,190,78
15:12:43.585,,735,200,27
15:12:43.621,,742,162,0
15:12:43.658,,791,143,17
15:12:43.695,,898,175,70
15:12:43.732,,998,190,86
15:12:43.769,,1175,210,63
15:12:43.806,,1045,247,171
15:12:43.842,,1169,309,251
15:12:43.879,,1264,267,213
15:12:43.916,,939,184,177
15:12:43.953,,681,2,187
15:12:43.990,,605,-14,241
15:12:44.026,,681,172,318
15:12:44.063,,738,256,338
15:12:44.100,,839,226,322
15:12:44.137,,972,202,294
15:12:44.174,,1145,284,269
15:12:44.210,,1250,406,301
15:12:44.247,,1329,467,350
15:12:44.284,,1331,465,407
15:12:44.321,,1307,348,263
15:12:44.358,,1399,217,100
15:12:44.394,,1165,128,71
15:12:44.431,,992,61,82
15:12:44.468,,823,79,85
15:12:44.505,,713,161,69
15:12:44.542,,688,234,40
15:12:44.579,,696,236,13
15:12:44.616,,778,196,-6
15:12:44.652,,932,191,-18
15:12:44.689,,1017,208,0
15:12:44.726,,1145,289,51
15:12:44.763,,1145,294,143
15:12:44.800,,1010,303,239
15:12:44.837,,1297,258,194
15:12:44.873,,1207,137,207
15:12:44.910,,804,-16,269
15:12:44.947,,606,-52,290
15:12:44.984,,525,97,342
15:12:45.021,,497,268,428
15:12:45.057,,657,283,487
15:12:45.094,,882,211,420
15:12:45.131,,1154,214,285
15:12:45.168,,1403,363,317
15:12:45.205,,1381,393,337
15:12:45.241,,1129,357,281
15:12:45.278,,1344,307,128
15:12:45.315,,1200,247,129
15:12:45.352,,938,178,137
15:12:45.389,,834,145,116
15:12:45.425,,722,163,84
15:12:45.462,,703,241,64
15:12:45.499,,755,251,45
15:12:45.536,,846,182,13
15:12:45.573,,911,139,8
15:12:45.610,,1000,166,28
15:12:45.647,,1041,228,66
15:12:45.683,,1098,250,72
15:12:45.720,,1008,244,166
15:12:45.757,,1185,293,177
15:12:45.794,,1335,254,178
15:12:45.831,,977,209,225
15:12:45.868,,711,107,252
15:12:45.904,,599,64,265
15:12:45.941,,604,180,298
15:12:45.978,,699,214,365
15:12:46.015,,780,196,370
15:12:46.052,,958,243,329
15:12:46.088,,1294,359,334
15:12:46.125,,1368,418,353
15:12:46.162,,1281,387,375
15:12:46.199,,1152,348,401
15:12:46.235,,1333,331,218
15:12:46.272,,1455,289,43
15:12:46.309,,1209,150,64
15:12:46.346,,951,79,81
15:12:46.383,,853,114,58
15:12:46.420,,744,231,101
15:12:46.456,,744,281,77
15:12:46.493,,704,191,-2
15:12:46.530,,744,124,-14
15:12:46.567,,832,153,11
15:12:46.603,,912,244,86
15:12:46.640,,1068,294,128
15:12:46.677,,1156,285,186
15:12:46.714,,1008,253,255
15:12:46.751,,1348,190,135
15:12:46.787,,1236,133,140
15:12:46.824,,931,79,233
15:12:46.861,,719,63,300
15:12:46.898,,678,182,333
15:12:46.935,,657,305,390
15:12:46.971,,767,289,379
15:12:47.008,,890,232,340
15:12:47.045,,1111,259,299
15:12:47.082,,1311,380,290
15:12:47.118,,1345,457,328
15:12:47.155,,1283,435,388
15:12:47.192,,1066,363,296
15:12:47.229,,1395,290,86
15:12:47.265,,1355,191,63
15:12:47.302,,1135,105,85
15:12:47.339,,934,103,81
15:12:47.376,,778,170,65
15:12:47.413,,742,267,41
15:12:47.449,,713,245,17
15:12:47.486,,687,150,10
15:12:47.523,,759,138,20
15:12:47.560,,886,174,56
15:12:47.597,,986,215,78
15:12:47.633,,1283,281,100
15:12:47.670,,1136,290,260
15:12:47.707,,1293,292,231
15:12:47.744,,1333,189,150
15:12:47.781,,927,90,205
15:12:47.818,,658,-25,244
15:12:47.854,,580,100,328
15:12:47.891,,669,266,401
15:12:47.928,,747,300,392
15:12:47.965,,825,228,347
15:12:48.001,,1004,224,305
15:12:48.038,,1209,323,303
15:12:48.075,,1274,387,300
15:12:48.112,,1324,426,317
15:12:48.148,,1193,398,365
15:12:48.185,,1231,375,209
15:12:48.222,,1411,277,92
15:12:48.259,,1215,139,77
15:12:48.295,,1019,93,49
15:12:48.332,,900,108,27
15:12:48.369,,790,188,49
15:12:48.406,,755,250,71
15:12:48.443,,709,185,38
15:12:48.480,,680,127,1
15:12:48.516,,781,175,29
15:12:48.553,,897,201,61
15:12:48.590,,1001,226,53
15:12:48.627,,1165,216,77
15:12:48.664,,1029,282,216
15:12:48.701,,1273,308,210
15:12:48.737,,1349,278,172
15:12:48.774,,1023,213,169
15:12:48.811,,805,69,189
15:12:48.848,,706,166,254
15:12:48.884,,697,309,338
15:12:48.921,,672,351,415
15:12:48.958,,769,301,409
15:12:48.995,,886,284,421
15:12:49.031,,1184,293,408
15:12:49.068,,1280,265,336
15:12:49.105,,1329,301,315
15:12:49.142,,1309,356,384
15:12:49.179,,1359,363,261
15:12:49.216,,1443,307,110
15:12:49.252,,1231,170,68
15:12:49.289,,967,108,43
15:12:49.326,,835,103,26
15:12:49.363,,708,183,66
15:12:49.400,,721,259,60
15:12:49.437,,776,205,-6
15:12:49.473,,744,140,-33
15:12:49.510,,741,170,35
15:12:49.547,,843,225,72
15:12:49.584,,1038,261,65
15:12:49.621,,1224,257,166
15:12:49.657,,1220,323,352
15:12:49.694,,1520,267,298
15:12:49.731,,1177,110,247
15:12:49.768,,730,-40,330
15:12:49.805,,595,-52,355
15:12:49.842,,544,100,419
15:12:49.879,,562,205,401
15:12:49.915,,698,233,397
15:12:49.952,,858,226,451
15:12:49.989,,1141,226,361
15:12:50.026,,1388,295,315
15:12:50.063,,1363,365,299
15:12:50.099,,1305,367,333
15:12:50.136,,1064,367,328
15:12:50.173,,1219,360,209
15:12:50.210,,1188,286,134
15:12:50.247,,1053,157,132
15:12:50.283,,875,83,132
15:12:50.320,,737,111,103
15:12:50.357,,675,159,73
15:12:50.394,,648,185,57
15:12:50.431,,672,183,80
15:12:50.468,,742,142,81
15:12:50.505,,914,188,101
15:12:50.541,,1033,201,123
15:12:50.578,,1207,261,142
15:12:50.615,,1143,254,238
15:12:50.652,,1007,259,305
15:12:50.689,,1539,231,171
15:12:50.726,,1247,144,155
15:12:50.762,,831,59,203
15:12:50.799,,634,50,228
15:12:50.836,,564,204,213
15:12:50.873,,597,327,245
15:12:50.910,,690,322,296
15:12:50.946,,781,261,310
15:12:50.983,,998,257,305
15:12:51.020,,1289,313,309
15:12:51.057,,1443,362,313
15:12:51.094,,1408,362,413
15:12:51.131,,1205,259,315
15:12:51.167,,1446,215,124
15:12:51.204,,1294,192,95
15:12:51.241,,1056,118,126
15:12:51.278,,825,121,135
15:12:51.315,,647,147,92
15:12:51.351,,578,220,63
15:12:51.388,,614,225,51
15:12:51.425,,673,174,17
15:12:51.462,,787,152,5
15:12:51.499,,1001,174,16
15:12:51.535,,1094,201,25
15:12:51.572,,1306,288,72
15:12:51.609,,1108,349,270
15:12:51.646,,1040,355,288
15:12:51.683,,1268,265,185
15:12:51.719,,1018,141,199
15:12:51.756,,818,-51,229
15:12:51.793,,666,-70,270
15:12:51.830,,629,128,332
15:12:51.867,,669,265,351
15:12:51.903,,765,281,347
15:12:51.940,,937,240,345
15:12:51.977,,1190,281,329
15:12:52.014,,1381,356,283
15:12:52.050,,1337,353,284
15:12:52.087,,1155,292,309
15:12:52.124,,1157,334,260
15:12:52.161,,1273,340,105
15:12:52.198,,1239,233,36
15:12:52.234,,977,114,49
15:12:52.271,,856,98,45
15:12:52.308,,789,213,35
15:12:52.345,,744,317,24
15:12:52.382,,706,320,23
15:12:52.418,,771,264,26
15:12:52.455,,827,245,42
15:12:52.492,,868,321,75
15:12:52.529,,986,310,99
15:12:52.566,,1191,260,178
15:12:52.603,,1022,213,243
15:12:52.639,,1196,141,118
15:12:52.676,,1315,122,138
15:12:52.713,,995,264,322
15:12:52.750,,641,287,443
15:12:52.787,,462,420,426
15:12:52.823,,384,514,574
15:12:52.860,,351,568,511
15:12:52.897,,552,283,184
15:12:52.934,,760,441,162
15:12:52.970,,1086,828,192
15:12:53.007,,1147,1019,133
15:12:53.044,,1330,977,117
15:12:53.080,,1024,953,173
15:12:53.117,,1126,910,-37
15:12:53.154,,1069,595,-104
15:12:53.191,,830,285,-18
15:12:53.228,,647,203,39
15:12:53.264,,508,162,48
15:12:53.301,,446,234,59
15:12:53.338,,510,275,68
15:12:53.375,,679,308,82
15:12:53.412,,988,416,48
15:12:53.449,,1270,529,-65
15:12:53.486,,1394,491,-214
15:12:53.522,,1374,425,-160
15:12:53.559,,850,487,232
15:12:53.596,,989,431,407
15:12:53.633,,931,283,450
15:12:53.670,,730,-134,518
15:12:53.707,,806,-94,488
15:12:53.743,,224,1260,475
15:12:53.780,,490,646,289
15:12:53.817,,387,331,82
15:12:53.854,,627,76,66
15:12:53.891,,1020,26,175
15:12:53.927,,1370,204,227
15:12:53.964,,1424,297,162
15:12:54.001,,1476,388,214
15:12:54.038,,1215,418,329
15:12:54.075,,1302,414,199
15:12:54.111,,1260,298,102
15:12:54.148,,956,159,119
15:12:54.185,,783,92,124
15:12:54.222,,650,128,121
15:12:54.259,,611,213,129
15:12:54.296,,662,242,119
15:12:54.332,,771,185,69
15:12:54.369,,907,156,56
15:12:54.406,,1056,165,80
15:12:54.443,,1152,198,59
15:12:54.480,,1357,278,82
15:12:54.517,,1004,322,311
15:12:54.554,,1273,349,284
15:12:54.591,,1145,228,205
15:12:54.627,,809,99,175
15:12:54.664,,592,-42,200
15:12:54.701,,490,16,255
15:12:54.738,,532,161,306
15:12:54.775,,584,263,398
15:12:54.812,,743,246,451
15:12:54.849,,936,205,424
15:12:54.885,,1290,212,373
15:12:54.922,,1462,258,337
15:12:54.959,,1616,294,380
15:12:54.996,,1266,279,394
15:12:55.033,,1280,230,229
15:12:55.070,,1257,214,105
15:12:55.106,,1044,170,118
15:12:55.143,,816,140,203
15:12:55.180,,646,117,184
15:12:55.217,,554,142,100
15:12:55.254,,553,167,69
15:12:55.290,,615,172,44
15:12:55.327,,620,144,45
15:12:55.364,,736,197,77
15:12:55.401,,964,256,134
15:12:55.437,,1114,298,195
15:12:55.474,,1326,362,260
15:12:55.511,,1311,294,362
15:12:55.548,,1392,124,292
15:12:55.584,,1290,-88,153
15:12:55.621,,892,-44,216
15:12:55.658,,628,48,294
15:12:55.695,,524,196,352
15:12:55.731,,488,318,419
15:12:55.768,,508,292,425
15:12:55.805,,652,208,376
15:12:55.842,,920,196,342
15:12:55.879,,1290,257,298
15:12:55.915,,1415,362,288
15:12:55.952,,1471,410,377
15:12:55.989,,1287,429,328
15:12:56.026,,1488,345,98
15:12:56.062,,1288,245,58
15:12:56.099,,1007,113,85
15:12:56.136,,817,75,85
15:12:56.173,,684,152,91
15:12:56.210,,680,267,94
15:12:56.247,,742,282,89
15:12:56.283,,858,122,28
15:12:56.320,,893,104,70
15:12:56.357,,946,167,104
15:12:56.394,,1131,240,140
15:12:56.431,,1112,270,273
15:12:56.468,,1289,280,292
15:12:56.505,,1270,158,244
15:12:56.541,,904,109,277
15:12:56.578,,662,21,307
15:12:56.615,,628,90,357
15:12:56.652,,651,201,436
15:12:56.689,,737,226,419
15:12:56.725,,826,201,401
15:12:56.762,,1010,207,349
15:12:56.799,,1272,267,289
15:12:56.836,,1295,358,284
15:12:56.873,,1390,429,368
15:12:56.909,,1150,416,350
15:12:56.946,,1418,402,166
15:12:56.983,,1343,278,143
15:12:57.020,,1088,137,115
15:12:57.056,,914,96,77
15:12:57.093,,736,91,68
15:12:57.130,,642,178,92
15:12:57.167,,632,201,99
15:12:57.204,,646,147,69
15:12:57.240,,673,111,46
15:12:57.277,,800,137,61
15:12:57.314,,941,168,84
15:12:57.351,,1183,245,113
15:12:57.388,,1340,300,249
15:12:57.424,,1143,363,388
15:12:57.461,,1462,252,226
15:12:57.498,,1245,94,137
15:12:57.535,,886,-91,179
15:12:57.572,,661,-52,234
15:12:57.608,,586,197,315
15:12:57.645,,596,373,382
15:12:57.682,,659,357,350
15:12:57.719,,786,266,337
15:12:57.755,,982,236,329
15:12:57.792,,1234,274,287
15:12:57.829,,1406,402,320
15:12:57.866,,1404,434,433
15:12:57.902,,1301,373,240
15:12:57.939,,1425,278,109
15:12:57.976,,1148,185,121
15:12:58.013,,965,116,104
15:12:58.049,,828,100,96
15:12:58.086,,690,165,119
15:12:58.123,,688,216,95
15:12:58.160,,706,207,64
15:12:58.197,,711,132,28
15:12:58.234,,777,128,42
15:12:58.270,,920,160,100
15:12:58.307,,1045,229,111
15:12:58.344,,1302,259,147
15:12:58.381,,1218,259,258
15:12:58.418,,1467,219,199
15:12:58.454,,1295,148,196
15:12:58.491,,794,85,277
15:12:58.528,,596,50,269
15:12:58.565,,539,177,287
15:12:58.601,,577,295,344
15:12:58.638,,667,288,364
15:12:58.675,,860,270,291
15:12:58.711,,1205,335,226
15:12:58.748,,1321,444,290
15:12:58.785,,1253,470,306
15:12:58.822,,1247,421,299
15:12:58.858,,1151,500,338
15:12:58.895,,1336,446,225
15:12:58.932,,1373,296,132
15:12:58.969,,1063,120,127
15:12:59.005,,905,29,86
15:12:59.042,,790,59,62
15:12:59.079,,711,174,66
15:12:59.116,,717,245,60
15:12:59.153,,764,217,52
15:12:59.190,,839,160,35
15:12:59.227,,953,159,4
15:12:59.263,,990,242,56
15:12:59.300,,1165,310,88
15:12:59.337,,1224,313,182
15:12:59.374,,1331,331,242
15:12:59.411,,1354,263,257
15:12:59.448,,878,141,339
15:12:59.485,,651,-74,304
15:12:59.521,,550,-98,338
15:12:59.558,,509,119,489
15:12:59.595,,623,231,553
15:12:59.632,,773,188,481
15:12:59.669,,991,177,390
15:12:59.706,,1350,221,329
15:12:59.743,,1331,287,320
15:12:59.779,,1415,317,316
15:12:59.816,,1156,320,302
15:12:59.853,,1153,383,161
15:12:59.890,,1281,340,97
15:12:59.927,,1016,220,110
15:12:59.963,,855,139,87
15:13:00.000,,666,108,90
15:13:00.037,,591,171,74
15:13:00.074,,569,213,71
15:13:00.111,,601,203,64
15:13:00.148,,750,184,68
15:13:00.185,,1001,402,142
15:13:00.222,,1277,341,133
15:13:00.258,,1270,219,136
15:13:00.295,,1467,90,258
15:13:00.332,,1015,161,423
15:13:00.369,,1233,154,291
15:13:00.406,,1096,73,224
15:13:00.443,,859,-112,226
15:13:00.480,,547,212,179
15:13:00.516,,421,113,185
15:13:00.553,,520,364,195
15:13:00.590,,641,403,223
15:13:00.627,,790,367,306
15:13:00.664,,985,384,333
15:13:00.700,,1211,399,347
15:13:00.737,,1261,358,311
15:13:00.774,,1447,344,333
15:13:00.811,,1386,325,321
15:13:00.848,,1462,296,139
15:13:00.884,,1305,225,116
15:13:00.921,,1018,106,110
15:13:00.958,,900,80,99
15:13:00.995,,763,150,106
15:13:01.032,,679,277,129
15:13:01.069,,740,289,65
15:13:01.105,,790,173,-43
15:13:01.142,,837,163,37
15:13:01.179,,852,200,-32
15:13:01.216,,882,189,-37
15:13:01.253,,1102,234,39
15:13:01.290,,1189,222,215
15:13:01.326,,1194,182,228
15:13:01.363,,1363,95,211
15:13:01.400,,1024,108,303
15:13:01.437,,776,88,347
15:13:01.474,,617,82,335
15:13:01.511,,573,224,384
15:13:01.547,,691,309,479
15:13:01.584,,851,228,436
15:13:01.621,,1057,173,399
15:13:01.658,,1301,152,407
15:13:01.695,,1414,239,310
15:13:01.731,,1631,301,280
15:13:01.768,,1293,291,326
15:13:01.805,,1351,273,186
15:13:01.842,,1202,196,102
15:13:01.879,,1015,154,60
15:13:01.915,,819,139,74
15:13:01.952,,649,128,80
15:13:01.989,,555,164,72
15:13:02.026,,552,193,69
15:13:02.063,,609,169,38
15:13:02.100,,666,155,36
15:13:02.137,,884,180,68
15:13:02.173,,1034,210,107
15:13:02.210,,1300,264,124
15:13:02.247,,1422,303,278
15:13:02.284,,1196,312,423
15:13:02.321,,1352,127,234
15:13:02.357,,1076,-12,185
15:13:02.394,,762,16,251
15:13:02.431,,663,122,322
15:13:02.468,,616,274,441
15:13:02.504,,624,313,455
15:13:02.541,,710,231,384
15:13:02.578,,876,202,343
15:13:02.615,,1153,245,334
15:13:02.651,,1301,364,323
15:13:02.688,,1371,442,355
15:13:02.725,,1222,434,370
15:13:02.762,,1485,409,147
15:13:02.798,,1426,314,106
15:13:02.835,,1132,146,106
15:13:02.872,,1004,86,82
15:13:02.909,,836,97,77
15:13:02.945,,723,179,85
15:13:02.982,,640,190,76
15:13:03.019,,587,148,41
15:13:03.056,,600,116,37
15:13:03.093,,809,157,59
15:13:03.130,,956,170,104
15:13:03.166,,1103,242,180
15:13:03.203,,1288,251,244
15:13:03.240,,1286,268,298
15:13:03.277,,1442,178,204
15:13:03.314,,1160,110,204
15:13:03.350,,818,139,235
15:13:03.387,,717,191,243
15:13:03.424,,700,299,307
15:13:03.461,,766,360,385
15:13:03.497,,801,318,386
15:13:03.534,,906,278,274
15:13:03.571,,1079,325,250
15:13:03.607,,1203,441,300
15:13:03.644,,1582,508,257
15:13:03.681,,1368,559,394
15:13:03.718,,1375,505,315
15:13:03.754,,1514,301,91
15:13:03.791,,1347,94,-7
15:13:03.828,,1113,-32,38
15:13:03.865,,890,-10,95
15:13:03.902,,733,119,128
15:13:03.939,,686,211,51
15:13:03.975,,650,195,-11
15:13:04.012,,661,111,-29
15:13:04.048,,750,126,-19
15:13:04.085,,982,185,-41
15:13:04.121,,1374,319,-11
15:13:04.158,,985,367,246
15:13:04.195,,1143,391,287
15:13:04.231,,1316,363,203
15:13:04.268,,1092,260,211
15:13:04.305,,805,-162,188
15:13:04.342,,766,-251,259
15:13:04.379,,840,54,375
15:13:04.416,,872,300,395
15:13:04.452,,906,397,447
15:13:04.489,,1030,339,449
15:13:04.526,,1165,304,397
15:13:04.563,,1270,329,339
15:13:04.600,,1366,387,443
15:13:04.636,,1271,377,380
15:13:04.673,,1412,249,180
15:13:04.710,,1290,203,85
15:13:04.747,,1046,154,64
15:13:04.784,,876,155,102
15:13:04.821,,692,184,140
15:13:04.858,,627,228,111
15:13:04.894,,654,221,63
15:13:04.931,,771,176,41
15:13:04.968,,912,159,50
15:13:05.005,,1026,93,22
15:13:05.042,,1101,93,-2
15:13:05.079,,1247,182,62
15:13:05.116,,1064,282,244
15:13:05.152,,1281,377,263
15:13:05.189,,1208,281,314
15:13:05.226,,912,152,329
15:13:05.263,,674,-98,249
15:13:05.300,,584,-96,292
15:13:05.337,,650,104,381
15:13:05.374,,783,225,408
15:13:05.411,,905,274,423
15:13:05.447,,1029,280,414
15:13:05.484,,1261,315,363
15:13:05.521,,1339,367,359
15:13:05.558,,1393,389,449
15:13:05.595,,1166,339,398
15:13:05.632,,1439,295,135
15:13:05.668,,1402,239,94
15:13:05.705,,1151,93,99
15:13:05.742,,919,85,115
15:13:05.779,,727,120,106
15:13:05.816,,674,238,89
15:13:05.853,,711,255,61
15:13:05.889,,772,163,7
15:13:05.926,,777,108,-4
15:13:05.962,,864,114,34
15:13:05.999,,933,150,81
15:13:06.036,,1079,237,117
15:13:06.073,,1127,262,200
15:13:06.110,,1090,273,287
15:13:06.146,,1378,251,245
15:13:06.183,,1234,147,225
15:13:06.220,,951,24,229
15:13:06.257,,757,-3,304
15:13:06.294,,739,183,414
15:13:06.330,,703,310,467
15:13:06.367,,763,313,459
15:13:06.404,,855,260,408
15:13:06.441,,1056,299,358
15:13:06.478,,1296,412,317
15:13:06.514,,1592,537,346
15:13:06.551,,1361,428,298
15:13:06.588,,1368,331,162
15:13:06.625,,1448,302,22
15:13:06.662,,1319,200,8
15:13:06.699,,1113,90,71
15:13:06.735,,891,56,114
15:13:06.772,,732,146,63
15:13:06.809,,656,196,19
15:13:06.846,,618,212,20
15:13:06.883,,619,137,13
15:13:06.919,,734,108,8
15:13:06.956,,825,86,8
15:13:06.993,,1039,196,55
15:13:07.030,,1329,288,129
15:13:07.067,,1328,354,255
15:13:07.103,,1639,343,250
15:13:07.140,,1148,247,245
15:13:07.177,,761,135,294
15:13:07.214,,783,-14,337
15:13:07.250,,823,104,434
15:13:07.287,,814,255,549
15:13:07.324,,899,273,542
15:13:07.361,,1217,287,303
15:13:07.398,,1146,386,292
15:13:07.434,,1225,435,314
15:13:07.471,,1202,549,356
15:13:07.508,,1398,559,225
15:13:07.544,,1533,343,85
15:13:07.581,,1327,125,46
15:13:07.618,,1130,30,25
15:13:07.655,,917,67,28
15:13:07.692,,742,158,84
15:13:07.728,,712,217,95
15:13:07.765,,696,137,26
15:13:07.802,,622,66,0
15:13:07.839,,675,100,40
15:13:07.876,,806,150,84
15:13:07.913,,917,221,112
15:13:07.949,,1214,264,134
15:13:07.986,,1251,335,254
15:13:08.023,,1547,372,286
15:13:08.060,,1418,283,264
15:13:08.097,,954,132,270
15:13:08.134,,717,-45,302
15:13:08.170,,692,28,375
15:13:08.207,,624,232,494
15:13:08.244,,704,387,567
15:13:08.281,,835,497,480
15:13:08.318,,1084,649,300
15:13:08.354,,1164,629,223
15:13:08.391,,1449,589,193
15:13:08.428,,1407,523,219
15:13:08.465,,1408,465,63
15:13:08.501,,1561,368,-5
15:13:08.538,,1231,256,-11
15:13:08.575,,1041,175,-12
15:13:08.612,,811,86,-11
15:13:08.649,,606,87,17
15:13:08.686,,463,109,44
15:13:08.723,,442,107,48
15:13:08.760,,506,142,70
15:13:08.796,,697,173,92
15:13:08.833,,905,192,127
15:13:08.870,,1150,215,176
15:13:08.907,,1356,230,225
15:13:08.944,,1606,255,260
15:13:08.981,,1770,155,119
15:13:09.018,,1380,74,108
15:13:09.054,,839,99,157
15:13:09.091,,624,210,167
15:13:09.128,,591,358,220
15:13:09.165,,603,405,277
15:13:09.202,,604,356,291
15:13:09.238,,651,295,222
15:13:09.275,,934,336,129
15:13:09.312,,1345,490,195
15:13:09.349,,1542,707,297
15:13:09.385,,1502,513,277
15:13:09.422,,1226,517,243
15:13:09.459,,1573,444,80
15:13:09.496,,1448,196,99
15:13:09.533,,1170,-10,167
15:13:09.569,,872,-41,168
15:13:09.606,,664,27,116
15:13:09.643,,585,102,86
15:13:09.680,,544,108,55
15:13:09.717,,554,92,57
15:13:09.754,,697,115,68
15:13:09.791,,857,144,86
15:13:09.827,,1031,196,125
15:13:09.864,,1446,262,118
15:13:09.901,,1484,336,208
15:13:09.938,,1547,385,223
15:13:09.975,,1394,289,165
15:13:10.011,,922,238,153
15:13:10.048,,740,154,164
15:13:10.085,,650,200,219
15:13:10.121,,636,352,307
15:13:10.158,,627,384,339
15:13:10.195,,690,296,276
15:13:10.231,,901,296,300
15:13:10.268,,1203,327,276
15:13:10.305,,1348,422,328
15:13:10.341,,1443,448,385
15:13:10.378,,1242,365,439
15:13:10.415,,1250,297,265
15:13:10.451,,1392,171,85
15:13:10.488,,1177,84,105
15:13:10.525,,953,62,183
15:13:10.562,,751,110,210
15:13:10.598,,695,176,136
15:13:10.635,,686,181,58
15:13:10.672,,741,146,27
15:13:10.708,,783,135,55
15:13:10.744,,946,190,71
15:13:10.780,,1027,218,49
15:13:10.817,,1145,277,60
15:13:10.853,,1037,307,272
15:13:10.890,,976,321,422
15:13:10.927,,1238,306,456
15:13:10.963,,1056,145,414
15:13:11.000,,732,-74,340
15:13:11.037,,588,-71,364
15:13:11.073,,577,129,423
15:13:11.110,,607,259,444
15:13:11.147,,740,292,461
15:13:11.183,,839,274,471
15:13:11.220,,994,252,408
15:13:11.257,,1096,276,384
15:13:11.293,,1251,333,371
15:13:11.330,,1440,418,468
15:13:11.367,,1240,409,411
15:13:11.403,,1407,281,178
15:13:11.440,,1256,197,125
15:13:11.477,,973,127,142
15:13:11.514,,729,65,113
15:13:11.550,,685,63,76
15:13:11.587,,631,132,104
15:13:11.623,,677,199,115
15:13:11.660,,781,213,99
15:13:11.696,,885,255,114
15:13:11.732,,909,329,147
15:13:11.768,,936,336,214
15:13:11.805,,1149,365,243
15:13:11.841,,997,353,326
15:13:11.878,,1150,348,401
15:13:11.915,,1112,359,559
15:13:11.951,,912,250,545
15:13:11.988,,692,94,429
15:13:12.025,,577,72,350
15:13:12.061,,564,204,326
15:13:12.098,,640,268,352
15:13:12.135,,689,321,411
15:13:12.171,,716,351,428
15:13:12.208,,809,372,401
15:13:12.245,,943,393,418
15:13:12.281,,1167,399,341
15:13:12.318,,1551,422,337
15:13:12.355,,1405,361,239
15:13:12.392,,1371,372,156
15:13:12.428,,1043,308,146
15:13:12.465,,811,264,146
15:13:12.502,,638,217,135
15:13:12.538,,524,182,129
15:13:12.575,,526,169,105
15:13:12.612,,676,183,110
15:13:12.649,,802,226,131
15:13:12.686,,1030,259,140
15:13:12.722,,1217,242,171
15:13:12.759,,1290,202,155
15:13:12.796,,1276,233,246
15:13:12.832,,999,271,359
15:13:12.869,,1193,285,387
15:13:12.906,,1014,190,425
15:13:12.943,,690,78,332
15:13:12.979,,485,22,290
15:13:13.016,,485,99,324
15:13:13.053,,538,212,354
15:13:13.089,,711,257,346
15:13:13.126,,818,241,365
15:13:13.163,,824,249,369
15:13:13.199,,1071,315,372
15:13:13.236,,1343,371,350
15:13:13.273,,1684,395,420
15:13:13.309,,1345,299,356
15:13:13.346,,1376,209,144
15:13:13.383,,1190,203,57
15:13:13.419,,965,168,123
15:13:13.456,,775,185,177
15:13:13.493,,635,157,122
15:13:13.530,,637,195,93
15:13:13.566,,822,195,66
15:13:13.603,,905,133,28
15:13:13.640,,948,115,27
15:13:13.676,,956,153,47
15:13:13.713,,984,199,29
15:13:13.749,,1103,232,19
15:13:13.786,,886,301,272
15:13:13.822,,1154,412,482
15:13:13.859,,1170,349,558
15:13:13.896,,846,150,365
15:13:13.932,,543,-190,302
15:13:13.969,,533,-178,361
15:13:14.006,,569,39,353
15:13:14.042,,700,202,375
15:13:14.079,,928,281,495
15:13:14.116,,1073,315,487
15:13:14.152,,1203,290,419
15:13:14.189,,1438,342,378
15:13:14.226,,1746,419,406
15:13:14.263,,1333,315,238
15:13:14.299,,1305,103,77
15:13:14.336,,1085,72,50
15:13:14.373,,950,67,43
15:13:14.410,,771,155,122
15:13:14.446,,650,220,154
15:13:14.483,,582,248,96
15:13:14.520,,591,202,21
15:13:14.557,,643,152,-1
15:13:14.593,,761,158,34
15:13:14.630,,957,161,59
15:13:14.667,,1083,211,98
15:13:14.704,,1269,239,146
15:13:14.741,,1191,265,301
15:13:14.777,,1267,234,304
15:13:14.814,,1422,121,135
15:13:14.851,,954,108,214
15:13:14.887,,636,101,351
15:13:14.924,,607,149,346
15:13:14.961,,614,246,358
15:13:14.998,,712,282,406
15:13:15.034,,859,231,382
15:13:15.071,,1062,245,298
15:13:15.108,,1348,360,323
15:13:15.145,,1249,429,357
15:13:15.181,,1454,461,347
15:13:15.218,,1355,420,370
15:13:15.255,,1373,315,186
15:13:15.292,,1508,183,43
15:13:15.328,,1307,87,29
15:13:15.365,,1071,83,26
15:13:15.402,,861,99,22
15:13:15.439,,689,196,51
15:13:15.476,,632,253,43
15:13:15.512,,611,202,8
15:13:15.549,,594,124,-4
15:13:15.586,,669,137,28
15:13:15.622,,812,157,52
15:13:15.659,,1006,204,62
15:13:15.696,,1383,261,113
15:13:15.733,,1180,313,305
15:13:15.770,,1490,341,266
15:13:15.806,,1473,207,177
15:13:15.843,,1017,58,195
15:13:15.880,,682,-71,300
15:13:15.917,,669,53,394
15:13:15.953,,671,218,435
15:13:15.990,,764,316,444
15:13:16.027,,898,293,448
15:13:16.064,,1109,274,412
15:13:16.100,,1298,320,367
15:13:16.137,,1351,381,371
15:13:16.174,,1313,343,387
15:13:16.211,,1280,326,264
15:13:16.247,,1559,266,80
15:13:16.284,,1335,154,79
15:13:16.321,,1096,120,70
15:13:16.358,,948,115,59
15:13:16.395,,799,172,69
15:13:16.431,,784,202,109
15:13:16.468,,725,116,-7
15:13:16.504,,652,106,-41
15:13:16.541,,689,171,38
15:13:16.577,,738,218,143
15:13:16.613,,888,231,203
15:13:16.650,,1106,219,206
15:13:16.687,,1140,244,278
15:13:16.723,,1339,236,208
15:13:16.760,,1545,170,122
15:13:16.797,,1131,106,222
15:13:16.833,,825,33,287
15:13:16.870,,751,161,362
15:13:16.907,,740,334,443
15:13:16.944,,739,381,457
15:13:16.980,,835,334,429
15:13:17.017,,995,356,443
15:13:17.054,,1233,393,396
15:13:17.090,,1304,388,370
15:13:17.127,,1434,327,341
15:13:17.164,,1238,338,290
15:13:17.200,,1439,349,103
15:13:17.237,,1497,205,-5
15:13:17.274,,1222,127,15
15:13:17.311,,950,118,68
15:13:17.347,,726,174,99
15:13:17.384,,621,236,80
15:13:17.421,,571,209,52
15:13:17.458,,600,133,44
15:13:17.495,,666,89,44
15:13:17.532,,833,97,64
15:13:17.568,,955,129,102
15:13:17.605,,1112,197,149
15:13:17.642,,1316,227,204
15:13:17.679,,1366,272,281
15:13:17.716,,1608,217,183
15:13:17.752,,1220,197,235
15:13:17.789,,817,189,381
15:13:17.826,,725,125,339
15:13:17.863,,603,182,382
15:13:17.899,,668,231,470
15:13:17.936,,757,226,446
15:13:17.973,,891,224,340
15:13:18.009,,1138,319,259
15:13:18.046,,1289,414,297
15:13:18.083,,1162,431,315
15:13:18.119,,1152,455,314
15:13:18.156,,1234,524,292
15:13:18.193,,1437,444,159
15:13:18.230,,1330,247,129
15:13:18.266,,1153,77,72
15:13:18.303,,1021,35,27
15:13:18.340,,872,87,55
15:13:18.377,,754,176,94
15:13:18.414,,703,137,58
15:13:18.451,,734,106,47
15:13:18.488,,865,127,68
15:13:18.524,,915,178,117
15:13:18.561,,1096,245,161
15:13:18.598,,1222,240,256
15:13:18.635,,1258,258,303
15:13:18.672,,1437,183,220
15:13:18.709,,1094,155,228
15:13:18.746,,812,104,274
15:13:18.782,,707,102,298
15:13:18.819,,705,204,341
15:13:18.856,,716,271,392
15:13:18.893,,828,260,350
15:13:18.930,,940,246,334
15:13:18.967,,1143,301,332
15:13:19.003,,1214,351,333
15:13:19.040,,1256,391,338
15:13:19.077,,1222,380,423
15:13:19.114,,1239,356,314
15:13:19.151,,1461,283,127
15:13:19.187,,1199,152,162
15:13:19.224,,1023,85,135
15:13:19.261,,893,83,72
15:13:19.298,,762,135,64
15:13:19.335,,686,192,78
15:13:19.372,,659,179,71
15:13:19.409,,646,136,56
15:13:19.446,,737,142,62
15:13:19.482,,916,183,92
15:13:19.519,,1076,240,131
15:13:19.556,,1379,284,155
15:13:19.593,,1130,320,303
15:13:19.630,,1147,293,248
15:13:19.667,,1287,231,179
15:13:19.704,,967,164,213
15:13:19.741,,765,66,233
15:13:19.777,,677,100,253
15:13:19.814,,661,252,266
15:13:19.851,,622,320,319
15:13:19.888,,674,307,379
15:13:19.925,,880,276,394
15:13:19.962,,1217,294,395
15:13:19.999,,1410,293,351
15:13:20.035,,1465,251,382
15:13:20.072,,1328,241,354
15:13:20.109,,1443,297,134
15:13:20.146,,1376,251,66
15:13:20.183,,1067,154,75
15:13:20.220,,864,120,46
15:13:20.256,,684,126,28
15:13:20.293,,593,203,39
15:13:20.330,,578,232,39
15:13:20.367,,593,182,24
15:13:20.404,,673,142,16
15:13:20.441,,818,141,29
15:13:20.478,,1006,207,68
15:13:20.515,,1281,288,123
15:13:20.551,,1319,326,266
15:13:20.588,,1163,299,322
15:13:20.625,,1456,145,118
15:13:20.662,,1223,43,71
15:13:20.699,,788,32,221
15:13:20.736,,593,112,352
15:13:20.772,,628,143,547
15:13:20.809,,633,31,437
15:13:20.846,,623,124,251
15:13:20.883,,821,358,200
15:13:20.919,,1205,630,282
15:13:20.956,,1356,782,417
15:13:20.993,,1600,669,297
15:13:21.030,,1357,434,164
15:13:21.066,,1199,454,111
15:13:21.103,,1353,272,-10
15:13:21.140,,1152,119,41
15:13:21.176,,914,50,97
15:13:21.213,,744,93,76
15:13:21.250,,673,170,49
15:13:21.287,,672,255,51
15:13:21.324,,707,256,39
15:13:21.361,,769,186,30
15:13:21.397,,891,136,32
15:13:21.434,,988,168,85
15:13:21.471,,1091,245,138
15:13:21.508,,1202,260,203
15:13:21.545,,1143,224,274
15:13:21.582,,1247,161,211
15:13:21.618,,1245,133,219
15:13:21.655,,857,147,346
15:13:21.692,,712,125,344
15:13:21.729,,668,155,340
15:13:21.765,,659,247,358
15:13:21.802,,742,304,406
15:13:21.839,,873,313,385
15:13:21.876,,1133,356,288
15:13:21.912,,1221,461,342
15:13:21.949,,1151,488,338
15:13:21.986,,1194,416,353
15:13:22.023,,1261,455,337
15:13:22.059,,1505,404,140
15:13:22.096,,1519,271,108
15:13:22.133,,1179,138,124
15:13:22.170,,1082,61,72
15:13:22.207,,938,79,63
15:13:22.243,,811,154,45
15:13:22.280,,733,186,33
15:13:22.317,,657,155,21
15:13:22.354,,579,128,29
15:13:22.391,,685,169,53
15:13:22.428,,743,184,88
15:13:22.465,,881,222,110
15:13:22.501,,1102,256,182
15:13:22.538,,1263,308,284
15:13:22.575,,1585,305,229
15:13:22.612,,1453,115,162
15:13:22.649,,1008,-2,220
15:13:22.686,,764,26,278
15:13:22.723,,739,202,289
15:13:22.760,,679,335,370
15:13:22.796,,701,335,454
15:13:22.833,,802,238,448
15:13:22.870,,993,172,414
15:13:22.907,,1218,189,390
15:13:22.944,,1361,259,334
15:13:22.981,,1480,423,443
15:13:23.018,,1313,403,333
15:13:23.054,,1518,282,97
15:13:23.091,,1331,176,31
15:13:23.128,,1110,132,46
15:13:23.165,,917,123,83
15:13:23.202,,726,152,73
15:13:23.239,,646,206,34
15:13:23.276,,650,191,6
15:13:23.313,,647,154,-9
15:13:23.350,,702,125,0
15:13:23.387,,806,178,59
15:13:23.424,,992,197,110
15:13:23.460,,1253,244,139
15:13:23.497,,1261,249,275
15:13:23.534,,1317,209,271
15:13:23.571,,1421,104,136
15:13:23.608,,1059,78,141
15:13:23.645,,793,94,243
15:13:23.682,,718,159,362
15:13:23.719,,728,236,386
15:13:23.756,,761,240,388
15:13:23.792,,848,245,368
15:13:23.829,,1000,309,362
15:13:23.866,,1224,416,398
15:13:23.903,,1360,537,393
15:13:23.940,,1474,506,405
15:13:23.977,,1169,350,300
15:13:24.014,,1465,283,102
15:13:24.050,,1337,163,60
15:13:24.087,,1159,98,51
15:13:24.124,,973,90,79
15:13:24.161,,837,162,99
15:13:24.198,,785,237,76
15:13:24.235,,737,207,17
15:13:24.271,,686,115,-24
15:13:24.308,,666,100,21
15:13:24.345,,744,133,88
15:13:24.382,,826,174,105
15:13:24.419,,1209,201,103
15:13:24.456,,1318,263,262
15:13:24.492,,1534,254,279
15:13:24.529,,1510,197,167
15:13:24.566,,1076,204,209
15:13:24.603,,778,34,270
15:13:24.640,,740,55,304
15:13:24.677,,707,190,382
15:13:24.713,,760,267,417
15:13:24.750,,816,305,397
15:13:24.787,,944,300,334
15:13:24.824,,1157,373,330
15:13:24.861,,1161,428,343
15:13:24.897,,1083,407,374
15:13:24.934,,1173,425,379
15:13:24.971,,1498,399,195
15:13:25.008,,1455,279,132
15:13:25.044,,1197,141,144
15:13:25.081,,1077,76,72
15:13:25.118,,923,120,54
15:13:25.155,,884,192,97
15:13:25.192,,855,184,69
15:13:25.229,,803,105,1
15:13:25.265,,669,43,8
15:13:25.302,,738,85,58
15:13:25.339,,896,172,101
15:13:25.376,,1085,200,137
15:13:25.413,,1034,231,274
15:13:25.450,,1454,261,260
15:13:25.487,,1368,194,222
15:13:25.523,,929,153,318
15:13:25.560,,657,16,364
15:13:25.597,,608,87,441
15:13:25.634,,638,192,448
15:13:25.671,,773,263,435
15:13:25.707,,934,276,359
15:13:25.744,,1174,312,297
15:13:25.781,,1190,348,294
15:13:25.818,,1346,440,290
15:13:25.854,,1382,510,318
15:13:25.891,,1355,493,186
15:13:25.928,,1513,341,63
15:13:25.965,,1154,241,-39
15:13:26.002,,921,199,15
15:13:26.039,,827,109,49
15:13:26.075,,686,103,53
15:13:26.112,,577,179,100
15:13:26.149,,635,194,67
15:13:26.186,,684,150,24
15:13:26.223,,854,146,50
15:13:26.260,,1105,201,145
15:13:26.297,,1182,260,218
15:13:26.334,,1473,291,253
15:13:26.370,,1184,241,355
15:13:26.407,,1343,110,151
15:13:26.444,,1324,-51,10
15:13:26.481,,977,9,45
15:13:26.518,,712,227,55
15:13:26.555,,662,261,127
15:13:26.591,,642,461,141
15:13:26.628,,597,518,168
15:13:26.665,,671,452,162
15:13:26.701,,890,436,177
15:13:26.738,,1148,558,289
15:13:26.775,,1752,837,343
15:13:26.811,,1460,497,222
15:13:26.848,,1181,166,132
15:13:26.885,,1382,189,-7
15:13:26.921,,1212,175,81
15:13:26.958,,1056,119,248
15:13:26.995,,836,100,280
15:13:27.032,,688,124,142
15:13:27.069,,623,141,78
15:13:27.106,,612,141,73
15:13:27.142,,617,77,77
15:13:27.179,,735,116,95
15:13:27.216,,848,127,137
15:13:27.253,,945,153,203
15:13:27.290,,1270,256,293
15:13:27.327,,1400,326,394
15:13:27.363,,1548,218,215
15:13:27.400,,1397,69,105
15:13:27.437,,996,69,185
15:13:27.474,,763,87,208
15:13:27.510,,638,171,231
15:13:27.547,,574,335,286
15:13:27.584,,571,406,308
15:13:27.620,,656,386,271
15:13:27.657,,900,341,231
15:13:27.694,,1153,387,264
15:13:27.730,,1406,528,336
15:13:27.767,,1488,541,409
15:13:27.803,,1310,378,213
15:13:27.840,,1539,341,58
15:13:27.877,,1288,213,119
15:13:27.914,,1109,64,150
15:13:27.951,,906,51,154
15:13:27.987,,734,112,131
15:13:28.024,,664,190,107
15:13:28.061,,616,185,85
15:13:28.098,,616,125,52
15:13:28.135,,721,115,48
15:13:28.172,,888,118,70
15:13:28.208,,1014,209,122
15:13:28.245,,1352,260,129
15:13:28.282,,1180,291,264
15:13:28.319,,1298,316,253
15:13:28.356,,1328,269,217
15:13:28.392,,1036,160,255
15:13:28.429,,765,-12,249
15:13:28.466,,652,47,311
15:13:28.502,,668,251,411
15:13:28.539,,695,341,436
15:13:28.576,,773,323,423
15:13:28.613,,962,297,398
15:13:28.649,,1210,318,371
15:13:28.686,,1201,373,379
15:13:28.723,,1246,377,406
15:13:28.759,,1179,399,335
15:13:28.796,,1578,437,182
15:13:28.833,,1497,300,193
15:13:28.869,,1116,145,200
15:13:28.906,,954,83,144
15:13:28.943,,812,116,117
15:13:28.980,,803,170,112
15:13:29.017,,755,109,44
15:13:29.054,,643,44,27
15:13:29.090,,608,59,48
15:13:29.127,,643,154,100
15:13:29.164,,756,205,161
15:13:29.201,,1107,273,179
15:13:29.238,,1162,326,345
15:13:29.274,,1366,363,395
15:13:29.311,,1623,257,175
15:13:29.348,,1163,82,135
15:13:29.385,,774,-85,195
15:13:29.422,,602,-2,279
15:13:29.458,,644,214,288
15:13:29.495,,782,411,436
15:13:29.532,,882,317,398
15:13:29.569,,1154,274,328
15:13:29.605,,1288,312,318
15:13:29.642,,1340,383,308
15:13:29.679,,1359,412,394
15:13:29.716,,1240,394,310
15:13:29.752,,1474,274,99
15:13:29.789,,1293,115,26
15:13:29.826,,1001,78,53
15:13:29.863,,759,96,95
15:13:29.900,,581,188,126
15:13:29.937,,537,250,89
15:13:29.973,,560,196,33
15:13:30.010,,631,114,0
15:13:30.047,,735,135,12
15:13:30.084,,928,209,24
15:13:30.121,,1154,326,73
15:13:30.158,,1440,401,142
15:13:30.194,,1174,390,353
15:13:30.231,,1154,356,314
15:13:30.268,,1532,168,78
15:13:30.305,,1068,-10,137
15:13:30.342,,696,-54,306
15:13:30.379,,557,70,411
15:13:30.415,,533,179,395
15:13:30.452,,531,247,421
15:13:30.489,,684,177,440
15:13:30.526,,831,136,373
15:13:30.563,,1162,194,298
15:13:30.599,,1375,305,271
15:13:30.636,,1499,384,297
15:13:30.673,,1351,392,334
15:13:30.710,,1391,387,105
15:13:30.746,,1407,332,57
15:13:30.783,,1095,178,79
15:13:30.820,,853,128,69
15:13:30.857,,670,117,66
15:13:30.894,,551,179,76
15:13:30.930,,498,212,78
15:13:30.967,,541,193,78
15:13:31.004,,631,149,74
15:13:31.041,,788,171,85
15:13:31.078,,1066,183,103
15:13:31.115,,1266,238,136
15:13:31.151,,1488,279,192
15:13:31.188,,1145,323,375
15:13:31.225,,1319,268,255
15:13:31.262,,1254,154,108
15:13:31.298,,875,93,142
15:13:31.335,,673,100,196
15:13:31.372,,529,207,256
15:13:31.408,,507,349,324
15:13:31.445,,583,327,324
15:13:31.482,,656,249,313
15:13:31.519,,859,244,341
15:13:31.555,,1178,259,325
15:13:31.592,,1409,278,284
15:13:31.629,,1525,346,382
15:13:31.666,,1372,386,393
15:13:31.702,,1515,397,175
15:13:31.739,,1458,245,120
15:13:31.776,,1139,95,81
15:13:31.813,,943,36,52
15:13:31.850,,744,60,52
15:13:31.886,,634,193,73
15:13:31.923,,607,252,66
15:13:31.960,,591,204,14
15:13:31.997,,613,148,-7
15:13:32.033,,726,162,2
15:13:32.069,,861,210,55
15:13:32.106,,1042,288,115
15:13:32.143,,1323,325,183
15:13:32.180,,1220,370,348
15:13:32.217,,1381,239,239
15:13:32.254,,1249,39,128
15:13:32.290,,905,-75,201
15:13:32.327,,729,29,315
15:13:32.364,,685,204,425
15:13:32.401,,653,294,441
15:13:32.438,,669,270,431
15:13:32.474,,789,228,427
15:13:32.511,,1000,242,405
15:13:32.548,,1253,294,390
15:13:32.585,,1432,344,363
15:13:32.621,,1516,417,466
15:13:32.658,,1301,400,412
15:13:32.695,,1475,284,168
15:13:32.732,,1385,125,95
15:13:32.769,,1179,-20,62
15:13:32.806,,938,6,59
15:13:32.843,,735,101,76
15:13:32.879,,623,234,59
15:13:32.916,,599,260,60
15:13:32.952,,633,178,51
15:13:32.988,,714,138,2
15:13:33.025,,855,159,61
15:13:33.061,,821,228,175
15:13:33.097,,952,260,172
15:13:33.133,,1095,274,292
15:13:33.170,,1324,244,333
15:13:33.207,,1399,61,184
15:13:33.244,,1056,28,319
15:13:33.281,,914,56,534
15:13:33.318,,810,86,559
15:13:33.355,,712,167,562
15:13:33.391,,704,158,601
15:13:33.428,,810,152,555
15:13:33.465,,1100,213,449
15:13:33.502,,1253,321,334
15:13:33.539,,1313,406,260
15:13:33.576,,1408,374,338
15:13:33.612,,1325,445,254
15:13:33.649,,1696,523,50
15:13:33.686,,1415,368,73
15:13:33.723,,1172,171,89
15:13:33.760,,996,69,77
15:13:33.797,,796,96,73
15:13:33.834,,663,132,71
15:13:33.871,,561,77,59
15:13:33.907,,482,22,53
15:13:33.944,,542,55,82
15:13:33.981,,663,113,116
15:13:34.018,,930,138,145
15:13:34.055,,1489,227,192
15:13:34.092,,1473,285,402
15:13:34.129,,1736,317,376
15:13:34.166,,1633,183,215
15:13:34.203,,1066,28,180
15:13:34.239,,791,-26,132
15:13:34.276,,617,133,144
15:13:34.313,,535,373,231
15:13:34.350,,631,515,327
15:13:34.387,,737,487,376
15:13:34.423,,867,337,313
15:13:34.460,,1142,285,262
15:13:34.497,,1242,368,302
15:13:34.534,,1416,490,374
15:13:34.571,,1177,478,377
15:13:34.607,,1412,394,164
15:13:34.644,,1455,261,93
15:13:34.681,,1266,116,91
15:13:34.718,,1090,73,120
15:13:34.755,,849,101,145
15:13:34.792,,695,172,104
15:13:34.829,,619,182,50
15:13:34.866,,587,168,56
15:13:34.902,,671,127,72
15:13:34.939,,831,122,62
15:13:34.976,,938,122,93
15:13:35.013,,1066,188,142
15:13:35.050,,1287,226,177
15:13:35.087,,1305,276,234
15:13:35.124,,1558,275,196
15:13:35.160,,1277,240,226
15:13:35.197,,855,227,291
15:13:35.234,,723,136,268
15:13:35.271,,623,208,330
15:13:35.308,,613,259,498
15:13:35.344,,673,219,403
15:13:35.381,,885,219,333
15:13:35.418,,1138,247,325
15:13:35.455,,1206,299,300
15:13:35.492,,1353,392,250
15:13:35.528,,1306,464,360
15:13:35.565,,1161,486,275
15:13:35.602,,1453,414,113
15:13:35.638,,1313,236,86
15:13:35.675,,1089,141,111
15:13:35.712,,916,85,97
15:13:35.749,,772,114,82
15:13:35.786,,710,156,80
15:13:35.823,,654,147,63
15:13:35.859,,629,113,60
15:13:35.896,,741,131,66
15:13:35.933,,889,164,75
15:13:35.970,,1041,227,116
15:13:36.007,,1350,302,166
15:13:36.044,,1235,319,329
15:13:36.080,,1465,330,284
15:13:36.117,,1526,179,170
15:13:36.154,,905,-14,280
15:13:36.191,,595,-155,342
15:13:36.228,,536,-46,290
15:13:36.264,,471,200,290
15:13:36.301,,463,387,351
15:13:36.338,,608,385,312
15:13:36.374,,932,363,252
15:13:36.411,,1247,418,280
15:13:36.448,,1254,558,352
15:13:36.485,,1588,519,289
15:13:36.521,,1382,386,174
15:13:36.558,,1429,387,16
15:13:36.595,,1420,247,65
15:13:36.632,,1103,74,176
15:13:36.668,,873,98,190
15:13:36.705,,704,141,128
15:13:36.742,,613,169,105
15:13:36.779,,563,157,138
15:13:36.816,,551,84,102
15:13:36.853,,622,80,60
15:13:36.890,,902,159,100
15:13:36.927,,1071,257,138
15:13:36.963,,1268,335,153
15:13:37.000,,1443,403,204
15:13:37.037,,1121,463,346
15:13:37.074,,1348,379,237
15:13:37.111,,1157,223,163
15:13:37.147,,818,61,149
15:13:37.184,,673,23,157
15:13:37.221,,592,184,242
15:13:37.258,,566,338,330
15:13:37.294,,592,386,352
15:13:37.331,,720,337,347
15:13:37.368,,1002,328,297
15:13:37.405,,1326,417,306
15:13:37.442,,1374,517,347
15:13:37.478,,1318,406,341
15:13:37.515,,1245,458,251
15:13:37.552,,1587,438,94
15:13:37.589,,1361,251,133
15:13:37.625,,1057,60,152
15:13:37.662,,878,10,116
15:13:37.699,,682,91,120
15:13:37.736,,644,163,126
15:13:37.773,,658,135,79
15:13:37.810,,661,59,38
15:13:37.847,,705,73,54
15:13:37.883,,818,135,92
15:13:37.920,,1019,203,149
15:13:37.957,,1296,289,200
15:13:37.994,,1211,346,387
15:13:38.031,,1521,330,369
15:13:38.067,,1400,158,168
15:13:38.104,,884,0,203
15:13:38.141,,783,-80,353
15:13:38.178,,680,68,444
15:13:38.215,,638,243,457
15:13:38.251,,610,361,500
15:13:38.288,,718,310,474
15:13:38.325,,960,281,356
15:13:38.362,,1223,319,280
15:13:38.398,,1259,382,321
15:13:38.435,,1375,332,300
15:13:38.472,,1259,418,306
15:13:38.509,,1438,439,141
15:13:38.545,,1485,329,76
15:13:38.582,,1085,162,128
15:13:38.619,,884,95,110
15:13:38.656,,774,91,93
15:13:38.693,,673,142,109
15:13:38.730,,618,133,118
15:13:38.766,,573,63,106
15:13:38.803,,608,55,115
15:13:38.840,,775,112,152
15:13:38.877,,922,134,180
15:13:38.914,,1253,214,189
15:13:38.951,,1606,287,273
15:13:38.987,,1306,368,433
15:13:39.024,,1633,230,209
15:13:39.061,,1284,126,141
15:13:39.098,,863,30,143
15:13:39.134,,676,21,171
15:13:39.171,,598,136,149
15:13:39.208,,546,336,142
15:13:39.244,,573,434,138
15:13:39.281,,606,400,110
15:13:39.318,,848,431,127
15:13:39.355,,1399,550,288
15:13:39.391,,1321,585,376
15:13:39.428,,1398,545,389
15:13:39.465,,1193,451,360
15:13:39.502,,1456,241,143
15:13:39.538,,1421,83,114
15:13:39.575,,1125,-3,192
15:13:39.612,,920,0,185
15:13:39.649,,749,80,150
15:13:39.685,,730,196,108
15:13:39.722,,760,233,66
15:13:39.759,,785,157,28
15:13:39.795,,831,124,13
15:13:39.831,,957,158,-3
15:13:39.867,,1002,242,21
15:13:39.903,,1225,294,11
15:13:39.940,,1100,300,177
15:13:39.977,,1017,337,265
15:13:40.013,,1371,317,258
15:13:40.050,,1101,248,286
15:13:40.087,,743,94,269
15:13:40.123,,641,14,311
15:13:40.160,,743,191,358
15:13:40.197,,811,320,413
15:13:40.233,,849,310,434
15:13:40.270,,825,279,420
15:13:40.307,,984,287,375
15:13:40.343,,1122,315,372
15:13:40.380,,1253,296,328
15:13:40.417,,1405,295,376
15:13:40.453,,1259,271,303
15:13:40.490,,1437,237,87
15:13:40.527,,1397,163,4
15:13:40.563,,1177,146,39
15:13:40.600,,746,116,49
15:13:40.637,,788,192,56
15:13:40.673,,752,184,34
15:13:40.710,,741,138,17
15:13:40.746,,811,144,47
15:13:40.781,,802,188,102
15:13:40.817,,843,253,187
15:13:40.853,,1054,254,201
15:13:40.890,,1115,234,233
15:13:40.926,,1295,215,270
15:13:40.963,,1238,277,404
15:13:41.000,,928,350,490
15:13:41.036,,793,208,432
15:13:41.073,,683,108,406
15:13:41.110,,663,154,417
15:13:41.146,,710,169,441
15:13:41.183,,836,220,447
15:13:41.220,,873,238,388
15:13:41.256,,956,267,350
15:13:41.293,,1079,279,352
15:13:41.329,,1223,336,325
15:13:41.366,,1570,434,482
15:13:41.403,,1355,290,314
15:13:41.439,,1341,201,114
15:13:41.476,,1134,180,105
15:13:41.513,,936,178,140
15:13:41.549,,757,189,150
15:13:41.586,,645,122,120
15:13:41.623,,674,133,84
15:13:41.659,,735,113,51
15:13:41.696,,742,102,41
15:13:41.732,,770,117,66
15:13:41.768,,831,154,100
15:13:41.804,,924,191,126
15:13:41.841,,1249,244,147
15:13:41.878,,1264,259,275
15:13:41.914,,1256,301,357
15:13:41.951,,1489,264,361
15:13:41.988,,1125,145,363
15:13:42.024,,727,-82,278
15:13:42.061,,582,-55,282
15:13:42.098,,624,182,378
15:13:42.134,,709,295,447
15:13:42.171,,801,287,426
15:13:42.207,,920,245,388
15:13:42.244,,1086,245,352
15:13:42.281,,1145,315,349
15:13:42.317,,1284,403,364
15:13:42.354,,1416,439,453
15:13:42.391,,1431,325,295
15:13:42.427,,1485,193,112
15:13:42.464,,1189,154,125
15:13:42.501,,959,121,114
15:13:42.537,,811,144,89
15:13:42.574,,697,176,93
15:13:42.610,,688,211,100
15:13:42.646,,714,157,51
15:13:42.682,,698,89,19
15:13:42.718,,722,85,25
15:13:42.754,,798,141,65
15:13:42.790,,939,208,90
15:13:42.826,,1239,267,136
15:13:42.862,,1162,309,301
15:13:42.899,,1507,323,277
15:13:42.936,,1323,226,248
15:13:42.972,,862,124,304
15:13:43.009,,690,-59,325
15:13:43.046,,699,5,375
15:13:43.083,,705,176,467
15:13:43.119,,805,265,512
15:13:43.156,,867,277,465
15:13:43.193,,1052,319,438
15:13:43.229,,1257,398,396
15:13:43.266,,1370,466,333
15:13:43.303,,1623,385,309
15:13:43.340,,1371,330,192
15:13:43.376,,1527,307,92
15:13:43.413,,1313,234,42
15:13:43.450,,1068,196,63
15:13:43.486,,843,170,92
15:13:43.523,,671,174,91
15:13:43.560,,592,189,78
15:13:43.597,,573,131,32
15:13:43.634,,541,90,24
15:13:43.671,,642,105,61
15:13:43.707,,746,151,110
15:13:43.744,,981,182,98
15:13:43.781,,1654,249,104
15:13:43.818,,1235,257,298
15:13:43.855,,1647,327,294
15:13:43.891,,1302,271,288
15:13:43.928,,841,250,259
15:13:43.965,,702,59,231
15:13:44.002,,670,82,299
15:13:44.038,,631,227,351
15:13:44.075,,699,294,276
15:13:44.112,,759,375,286
15:13:44.149,,926,416,391
15:13:44.185,,1185,442,426
15:13:44.222,,1524,496,446
15:13:44.259,,1958,405,468
15:13:44.296,,1575,134,235
15:13:44.332,,1649,38,79
15:13:44.369,,1493,107,60
15:13:44.406,,1240,129,106
15:13:44.442,,915,157,113
15:13:44.478,,659,136,62
15:13:44.514,,497,141,14
15:13:44.549,,404,118,-10
15:13:44.584,,365,105,21
15:13:44.620,,373,93,36
