Sensors' Acquisition [Hz]: Acc@26.0 
hh:mm:ss.ms, Annotation , AccX [mg], AccY, AccZ
00:09:33.340,,1251,705,-78
00:09:33.377,,983,620,-127
00:09:33.401,>Walk,,,
00:09:33.414,,748,538,-4
00:09:33.451,,764,584,-7
00:09:33.489,,829,579,-70
00:09:33.526,,847,512,-72
00:09:33.563,,846,511,-69
00:09:33.600,,860,525,-113
00:09:33.637,,879,524,-150
00:09:33.674,,893,539,-161
00:09:33.711,,872,535,-186
00:09:33.748,,850,511,-216
00:09:33.785,,836,516,-256
00:09:33.822,,770,507,-188
00:09:33.859,,783,562,-53
00:09:33.896,,1009,592,-12
00:09:33.933,,844,603,-39
00:09:33.970,,558,684,253
00:09:34.007,,690,634,322
00:09:34.044,,814,501,116
00:09:34.082,,835,473,65
00:09:34.119,,832,429,96
00:09:34.156,,776,414,36
00:09:34.193,,768,471,0
00:09:34.230,,808,536,-28
00:09:34.267,,828,574,-35
00:09:34.304,,802,564,-37
00:09:34.341,,711,533,-36
00:09:34.378,,667,543,32
00:09:34.415,,728,576,17
00:09:34.452,,993,565,-59
00:09:34.489,,1144,596,-66
00:09:34.526,,1134,610,-53
00:09:34.563,,1202,599,-97
00:09:34.600,,1031,562,-83
00:09:34.637,,933,524,2
00:09:34.674,,859,513,-13
00:09:34.712,,811,484,-50
00:09:34.749,,855,490,-58
00:09:34.786,,874,518,-129
00:09:34.823,,841,583,-178
00:09:34.860,,793,663,-206
00:09:34.897,,696,710,-226
00:09:34.934,,584,775,-232
00:09:34.971,,438,852,-246
00:09:35.008,,346,898,-183
00:09:35.045,,337,891,-160
00:09:35.082,,353,867,-113
00:09:35.119,,355,816,-2
00:09:35.156,,457,776,28
00:09:35.193,,571,718,14
00:09:35.230,,503,685,64
00:09:35.267,,517,597,156
00:09:35.305,,592,560,188
00:09:35.342,,708,475,120
00:09:35.379,,884,387,63
00:09:35.416,,1077,466,36
00:09:35.453,,1032,493,-6
00:09:35.490,,914,502,20
00:09:35.527,,877,507,45
00:09:35.564,,884,525,16
00:09:35.601,,876,531,58
00:09:35.638,,849,517,89
00:09:35.675,,808,556,92
00:09:35.712,,776,567,159
00:09:35.749,,741,588,185
00:09:35.786,,799,622,233
00:09:35.823,,830,547,160
00:09:35.861,,789,513,151
00:09:35.898,,1028,608,168
00:09:35.935,,1351,705,88
00:09:35.972,,1132,603,3
00:09:36.009,,827,467,39
00:09:36.046,,775,477,75
00:09:36.083,,972,564,27
00:09:36.120,,1107,523,-36
00:09:36.157,,1035,353,-90
00:09:36.194,,904,350,-74
00:09:36.231,,880,452,-79
00:09:36.268,,898,467,-113
00:09:36.305,,886,482,-92
00:09:36.342,,833,547,-86
00:09:36.379,,728,698,-61
00:09:36.416,,589,741,36
00:09:36.453,,461,768,105
00:09:36.491,,387,780,177
00:09:36.528,,348,738,170
00:09:36.565,,353,722,174
00:09:36.602,,408,726,186
00:09:36.639,,518,677,162
00:09:36.676,,725,661,126
00:09:36.713,,932,671,93
00:09:36.750,,713,562,140
00:09:36.787,,728,521,248
00:09:36.824,,1007,533,164
00:09:36.861,,1120,498,33
00:09:36.898,,995,402,84
00:09:36.935,,887,421,144
00:09:36.972,,797,439,90
00:09:37.009,,787,470,69
00:09:37.046,,802,519,144
00:09:37.084,,762,518,123
00:09:37.121,,730,550,170
00:09:37.158,,723,554,209
00:09:37.195,,795,522,190
00:09:37.232,,844,501,166
00:09:37.269,,838,452,125
00:09:37.306,,815,402,79
00:09:37.343,,907,365,42
00:09:37.380,,1197,423,30
00:09:37.417,,1301,518,14
00:09:37.454,,1104,409,2
00:09:37.491,,858,371,79
00:09:37.528,,711,422,123
00:09:37.565,,863,471,77
00:09:37.602,,997,469,3
00:09:37.640,,975,423,-31
00:09:37.677,,823,429,-23
00:09:37.714,,771,475,11
00:09:37.751,,799,540,-21
00:09:37.788,,835,560,-55
00:09:37.825,,838,553,-32
00:09:37.862,,796,613,-34
00:09:37.899,,736,617,-22
00:09:37.936,,658,585,0
00:09:37.973,,582,576,37
00:09:38.010,,557,576,99
00:09:38.047,,763,576,80
00:09:38.084,,1014,603,22
00:09:38.121,,1038,591,15
00:09:38.158,,786,579,132
00:09:38.195,,780,584,248
00:09:38.232,,917,492,134
00:09:38.270,,1001,405,7
00:09:38.307,,968,401,55
00:09:38.344,,836,381,31
00:09:38.381,,738,390,34
00:09:38.418,,716,412,35
00:09:38.455,,697,436,28
00:09:38.492,,719,440,62
00:09:38.529,,725,445,53
00:09:38.566,,707,476,92
00:09:38.603,,755,525,158
00:09:38.640,,876,550,182
00:09:38.677,,899,438,65
00:09:38.714,,939,440,30
00:09:38.751,,1133,582,74
00:09:38.788,,1203,631,42
00:09:38.825,,1022,537,32
00:09:38.862,,777,483,83
00:09:38.900,,730,482,60
00:09:38.937,,998,478,-1
00:09:38.974,,1066,409,-84
00:09:39.011,,915,359,-100
00:09:39.048,,804,370,-72
00:09:39.085,,809,440,-69
00:09:39.122,,831,467,-97
00:09:39.159,,835,464,-119
00:09:39.196,,849,478,-86
00:09:39.233,,893,489,-59
00:09:39.270,,914,496,-46
00:09:39.307,,869,505,-9
00:09:39.344,,820,506,74
00:09:39.381,,978,490,65
00:09:39.418,,1103,550,22
00:09:39.455,,838,508,179
00:09:39.492,,685,468,305
00:09:39.529,,807,398,196
00:09:39.567,,862,413,87
00:09:39.604,,918,454,159
00:09:39.641,,904,411,137
00:09:39.678,,796,379,78
00:09:39.715,,724,400,75
00:09:39.752,,711,450,86
00:09:39.789,,706,482,103
00:09:39.826,,711,462,114
00:09:39.863,,702,462,124
00:09:39.900,,743,495,162
00:09:39.937,,810,505,194
00:09:39.974,,883,460,155
00:09:40.011,,872,413,91
00:09:40.048,,1041,523,111
00:09:40.085,,1333,616,79
00:09:40.122,,1144,583,61
00:09:40.159,,815,522,190
00:09:40.196,,689,472,152
00:09:40.234,,875,523,49
00:09:40.271,,1064,522,14
00:09:40.308,,992,480,0
00:09:40.345,,887,466,18
00:09:40.382,,915,492,2
00:09:40.419,,983,528,-18
00:09:40.456,,963,545,-22
00:09:40.493,,847,530,3
00:09:40.530,,714,532,45
00:09:40.567,,617,504,85
00:09:40.604,,549,458,95
00:09:40.641,,520,447,141
00:09:40.678,,573,427,155
00:09:40.715,,792,451,103
00:09:40.752,,1010,524,101
00:09:40.789,,943,508,162
00:09:40.826,,936,517,235
00:09:40.864,,1085,522,151
00:09:40.901,,1187,549,100
00:09:40.938,,1041,497,141
00:09:40.975,,864,424,118
00:09:41.012,,735,417,58
00:09:41.049,,702,471,52
00:09:41.086,,689,532,56
00:09:41.123,,674,558,71
00:09:41.160,,667,535,105
00:09:41.197,,688,528,126
00:09:41.234,,753,541,142
00:09:41.271,,880,514,115
00:09:41.308,,908,454,45
00:09:41.345,,1142,553,46
00:09:41.382,,1310,641,13
00:09:41.419,,1089,523,-21
00:09:41.457,,816,484,65
00:09:41.494,,709,548,56
00:09:41.531,,902,565,-5
00:09:41.568,,1058,549,-59
00:09:41.605,,1008,442,-93
00:09:41.642,,861,417,-82
00:09:41.679,,837,612,-16
00:09:41.716,,862,699,-11
00:09:41.753,,835,651,-21
00:09:41.790,,704,641,0
00:09:41.827,,596,636,29
00:09:41.864,,540,589,48
00:09:41.901,,546,559,67
00:09:41.938,,549,545,137
00:09:41.975,,666,523,171
00:09:42.012,,864,520,128
00:09:42.049,,898,502,88
00:09:42.087,,696,448,159
00:09:42.124,,779,499,240
00:09:42.161,,1011,485,92
00:09:42.198,,1096,470,12
00:09:42.235,,1053,502,93
00:09:42.272,,931,460,72
00:09:42.309,,816,442,26
00:09:42.346,,785,516,55
00:09:42.383,,761,556,55
00:09:42.420,,721,596,94
00:09:42.457,,725,562,113
00:09:42.494,,739,549,133
00:09:42.531,,761,584,203
00:09:42.568,,834,526,166
00:09:42.605,,918,481,82
00:09:42.642,,1107,532,57
00:09:42.679,,1221,578,5
00:09:42.717,,1040,501,-42
00:09:42.754,,853,508,32
00:09:42.791,,751,556,22
00:09:42.828,,826,538,-56
00:09:42.865,,1007,564,-93
00:09:42.902,,1073,505,-152
00:09:42.939,,974,439,-134
00:09:42.976,,904,439,-115
00:09:43.013,,875,539,-109
00:09:43.050,,834,658,-73
00:09:43.087,,824,646,-90
00:09:43.124,,756,611,-48
00:09:43.161,,653,606,53
00:09:43.198,,554,496,40
00:09:43.235,,564,482,250
00:09:43.272,,749,451,301
00:09:43.309,,848,386,209
00:09:43.346,,999,376,276
00:09:43.384,,878,396,364
00:09:43.421,,889,366,293
00:09:43.458,,1094,379,66
00:09:43.495,,1185,428,-96
00:09:43.532,,1116,526,-67
00:09:43.569,,951,523,-67
00:09:43.606,,862,541,-70
00:09:43.643,,849,538,-124
00:09:43.680,,830,556,-116
00:09:43.717,,789,512,-88
00:09:43.754,,694,549,-51
00:09:43.791,,707,589,45
00:09:43.828,,779,640,96
00:09:43.865,,863,585,64
00:09:43.902,,926,508,65
00:09:43.940,,1085,582,99
00:09:43.977,,1175,641,65
00:09:44.014,,986,600,21
00:09:44.051,,857,543,12
00:09:44.088,,968,534,-23
00:09:44.125,,1080,574,-74
00:09:44.162,,1034,514,-114
00:09:44.199,,949,432,-115
00:09:44.236,,890,391,-53
00:09:44.273,,887,410,-40
00:09:44.310,,897,416,-52
00:09:44.347,,883,407,-55
00:09:44.384,,860,385,-35
00:09:44.421,,837,388,-2
00:09:44.458,,846,379,23
00:09:44.495,,836,351,83
00:09:44.532,,1045,403,88
00:09:44.570,,1039,442,79
00:09:44.607,,873,485,259
00:09:44.644,,925,484,334
00:09:44.681,,1126,402,163
00:09:44.718,,1100,340,46
00:09:44.755,,940,359,98
00:09:44.792,,770,423,108
00:09:44.829,,695,395,32
00:09:44.866,,728,539,33
00:09:44.903,,716,484,-36
00:09:44.940,,707,582,26
00:09:44.977,,694,540,101
00:09:45.014,,712,547,183
00:09:45.051,,861,601,181
00:09:45.088,,925,546,109
00:09:45.125,,1132,609,123
00:09:45.163,,1287,648,82
00:09:45.200,,975,574,93
00:09:45.237,,784,559,140
00:09:45.274,,913,601,102
00:09:45.311,,1060,621,51
00:09:45.348,,1020,515,113
00:09:45.385,,972,458,182
00:09:45.422,,981,492,215
00:09:45.459,,998,512,204
00:09:45.496,,961,450,164
00:09:45.533,,823,393,149
00:09:45.570,,706,353,156
00:09:45.607,,662,305,122
00:09:45.644,,647,268,92
00:09:45.681,,691,306,75
00:09:45.719,,749,369,73
00:09:45.756,,967,396,67
00:09:45.793,,1135,488,118
00:09:45.830,,1174,519,127
00:09:45.867,,979,589,222
00:09:45.904,,942,515,270
00:09:45.941,,1010,469,185
00:09:45.978,,895,455,185
00:09:46.015,,783,399,226
00:09:46.052,,700,326,270
00:09:46.089,,625,332,72
00:09:46.126,,600,562,71
00:09:46.163,,618,712,202
00:09:46.200,,630,671,262
00:09:46.237,,669,573,213
00:09:46.275,,809,571,179
00:09:46.312,,963,499,-11
00:09:46.349,,1075,534,-50
00:09:46.386,,1248,599,22
00:09:46.423,,983,578,58
00:09:46.460,,850,559,54
00:09:46.497,,880,590,18
00:09:46.534,,964,570,-57
00:09:46.571,,960,544,-59
00:09:46.608,,878,486,-65
00:09:46.645,,806,423,-70
00:09:46.682,,794,382,-76
00:09:46.719,,804,386,-96
00:09:46.756,,815,377,-70
00:09:46.793,,810,404,-10
00:09:46.831,,837,487,130
00:09:46.868,,975,361,25
00:09:46.905,,971,366,86
00:09:46.942,,1015,481,83
00:09:46.979,,1220,532,51
00:09:47.016,,1101,463,41
00:09:47.053,,776,489,107
00:09:47.090,,704,494,107
00:09:47.127,,797,478,48
00:09:47.164,,797,474,14
00:09:47.201,,734,518,60
00:09:47.238,,677,481,63
00:09:47.275,,653,433,54
00:09:47.312,,661,439,69
00:09:47.349,,646,458,102
00:09:47.387,,638,487,150
00:09:47.424,,646,512,172
00:09:47.461,,684,534,185
00:09:47.498,,797,561,188
00:09:47.535,,907,544,125
00:09:47.572,,1031,533,26
00:09:47.609,,1423,675,3
00:09:47.646,,1106,606,14
00:09:47.683,,837,541,67
00:09:47.720,,844,566,44
00:09:47.757,,978,543,-41
00:09:47.794,,949,471,-42
00:09:47.831,,833,420,7
00:09:47.868,,786,469,-32
00:09:47.906,,810,535,-39
00:09:47.943,,839,512,-61
00:09:47.980,,843,575,-82
00:09:48.017,,793,612,-53
00:09:48.054,,803,595,-80
00:09:48.091,,783,579,-56
00:09:48.128,,717,499,-45
00:09:48.165,,702,443,-38
00:09:48.202,,950,546,12
00:09:48.239,,1062,517,-19
00:09:48.276,,894,488,134
00:09:48.313,,693,450,220
00:09:48.350,,903,531,226
00:09:48.387,,938,422,182
00:09:48.424,,827,377,218
00:09:48.462,,756,413,215
00:09:48.499,,705,396,146
00:09:48.536,,706,422,125
00:09:48.573,,740,434,128
00:09:48.610,,773,467,147
00:09:48.647,,752,488,170
00:09:48.684,,731,465,219
00:09:48.721,,794,481,242
00:09:48.758,,946,497,228
00:09:48.795,,1022,465,187
00:09:48.832,,1292,529,171
00:09:48.869,,1223,575,161
00:09:48.906,,873,449,133
00:09:48.943,,762,338,190
00:09:48.981,,980,575,47
00:09:49.018,,1067,594,-81
00:09:49.055,,935,370,18
00:09:49.092,,842,327,36
00:09:49.129,,850,391,26
00:09:49.166,,884,410,40
00:09:49.203,,898,396,10
00:09:49.240,,869,426,20
00:09:49.277,,868,464,64
00:09:49.314,,853,438,12
00:09:49.351,,826,410,0
00:09:49.388,,772,418,60
00:09:49.425,,968,451,93
00:09:49.462,,1198,549,57
00:09:49.499,,941,510,129
00:09:49.536,,735,433,274
00:09:49.574,,819,459,273
00:09:49.611,,885,416,173
00:09:49.648,,856,378,138
00:09:49.685,,808,455,198
00:09:49.722,,737,437,169
00:09:49.759,,711,395,137
00:09:49.796,,735,410,140
00:09:49.833,,730,435,135
00:09:49.870,,703,453,181
00:09:49.907,,678,471,212
00:09:49.944,,739,476,241
00:09:49.981,,799,484,251
00:09:50.018,,894,407,175
00:09:50.055,,871,389,74
00:09:50.092,,1092,468,87
00:09:50.129,,1348,710,74
00:09:50.167,,1067,492,49
00:09:50.204,,714,544,138
00:09:50.241,,667,610,166
00:09:50.278,,830,570,96
00:09:50.315,,971,529,38
00:09:50.352,,953,541,50
00:09:50.389,,882,502,33
00:09:50.426,,887,544,42
00:09:50.463,,1079,649,53
00:09:50.500,,1173,562,3
00:09:50.537,,1069,503,1
00:09:50.574,,856,526,43
00:09:50.611,,621,446,41
00:09:50.648,,442,422,53
00:09:50.685,,393,467,8
00:09:50.722,,440,484,30
00:09:50.760,,576,590,55
00:09:50.797,,758,587,16
00:09:50.834,,888,560,0
00:09:50.871,,745,540,74
00:09:50.908,,788,674,222
00:09:50.945,,983,629,209
00:09:50.982,,1083,454,89
00:09:51.019,,1043,395,157
00:09:51.056,,956,440,205
00:09:51.093,,838,463,109
00:09:51.130,,806,499,88
00:09:51.167,,767,503,85
00:09:51.204,,701,515,78
00:09:51.241,,714,465,101
00:09:51.278,,763,474,147
00:09:51.316,,768,523,156
00:09:51.353,,840,492,204
00:09:51.390,,922,422,105
00:09:51.427,,1044,409,41
00:09:51.464,,1308,520,52
00:09:51.501,,1146,550,28
00:09:51.538,,850,427,71
00:09:51.575,,761,437,120
00:09:51.612,,871,426,67
00:09:51.649,,988,456,27
00:09:51.686,,940,476,12
00:09:51.723,,862,449,11
00:09:51.760,,816,464,25
00:09:51.797,,841,499,15
00:09:51.834,,871,497,11
00:09:51.872,,836,540,13
00:09:51.909,,805,527,7
00:09:51.946,,793,544,-44
00:09:51.983,,752,549,6
00:09:52.020,,695,512,26
00:09:52.057,,681,410,153
00:09:52.094,,829,492,192
00:09:52.131,,1103,503,223
00:09:52.168,,1098,422,211
00:09:52.205,,743,387,236
00:09:52.242,,732,543,375
00:09:52.279,,922,560,272
00:09:52.316,,926,503,242
00:09:52.353,,836,502,249
00:09:52.390,,765,511,246
00:09:52.427,,718,431,198
00:09:52.464,,719,430,167
00:09:52.502,,706,433,184
00:09:52.539,,657,428,208
00:09:52.576,,652,444,250
00:09:52.613,,678,450,270
00:09:52.650,,702,466,350
00:09:52.687,,852,444,312
00:09:52.724,,889,339,185
00:09:52.761,,1047,451,131
00:09:52.798,,1278,488,75
00:09:52.835,,1157,413,86
00:09:52.872,,868,406,103
00:09:52.909,,734,454,171
00:09:52.946,,814,410,161
00:09:52.983,,1085,440,146
00:09:53.020,,939,496,28
00:09:53.057,,886,538,56
00:09:53.095,,813,553,28
00:09:53.132,,819,573,28
00:09:53.169,,819,615,20
00:09:53.206,,811,621,0
00:09:53.243,,755,631,15
00:09:53.280,,691,662,2
00:09:53.317,,641,646,-38
00:09:53.354,,567,624,5
00:09:53.391,,551,609,3
00:09:53.428,,631,602,26
00:09:53.465,,930,630,-6
00:09:53.502,,1047,587,-49
00:09:53.539,,688,525,99
00:09:53.576,,683,564,292
00:09:53.613,,962,411,148
00:09:53.650,,1019,389,71
00:09:53.688,,971,422,125
00:09:53.725,,875,407,135
00:09:53.762,,758,416,122
00:09:53.799,,765,328,90
00:09:53.836,,798,423,7
00:09:53.873,,780,488,3
00:09:53.910,,735,465,93
00:09:53.947,,694,507,102
00:09:53.984,,716,557,166
00:09:54.021,,823,548,156
00:09:54.058,,838,487,90
00:09:54.095,,1007,572,54
00:09:54.132,,1342,642,43
00:09:54.169,,1085,527,-9
00:09:54.206,,797,576,63
00:09:54.243,,734,578,62
00:09:54.280,,854,529,28
00:09:54.318,,952,508,-12
00:09:54.355,,986,477,-39
00:09:54.392,,997,496,9
00:09:54.429,,970,445,-27
00:09:54.466,,1006,523,-74
00:09:54.503,,1009,599,-50
00:09:54.540,,933,512,-96
00:09:54.577,,812,530,-36
00:09:54.614,,731,554,18
00:09:54.651,,594,69,-223
00:09:54.688,,701,570,42
00:09:54.725,,548,505,190
00:09:54.762,,671,565,67
00:09:54.799,,853,500,95
00:09:54.836,,867,471,116
00:09:54.873,,914,547,220
00:09:54.911,,1115,565,232
00:09:54.948,,1132,452,132
00:09:54.985,,996,290,193
00:09:55.022,,882,403,203
00:09:55.059,,807,481,148
00:09:55.096,,786,481,122
00:09:55.133,,778,462,120
00:09:55.170,,758,462,126
00:09:55.207,,708,467,162
00:09:55.244,,780,498,214
00:09:55.281,,884,472,193
00:09:55.318,,900,413,117
00:09:55.355,,1196,471,111
00:09:55.392,,1291,599,72
00:09:55.429,,1047,466,34
00:09:55.466,,843,441,95
00:09:55.503,,853,487,68
00:09:55.541,,956,517,44
00:09:55.578,,964,485,31
00:09:55.615,,937,479,8
00:09:55.652,,903,466,18
00:09:55.689,,892,522,10
00:09:55.726,,876,539,-11
00:09:55.763,,827,512,-12
00:09:55.800,,770,468,-27
00:09:55.837,,771,439,-81
00:09:55.874,,789,444,-97
00:09:55.911,,769,408,-47
00:09:55.948,,877,402,18
00:09:55.985,,1052,507,21
00:09:56.022,,869,499,105
00:09:56.059,,759,433,333
00:09:56.096,,905,485,377
00:09:56.134,,1004,422,326
00:09:56.171,,1038,396,318
00:09:56.208,,990,409,283
00:09:56.245,,845,403,202
00:09:56.282,,774,438,159
00:09:56.319,,724,454,128
00:09:56.356,,673,441,132
00:09:56.393,,628,454,144
00:09:56.430,,645,476,170
00:09:56.467,,683,453,227
00:09:56.504,,728,454,254
00:09:56.541,,886,431,211
00:09:56.578,,902,373,97
00:09:56.615,,1074,437,102
00:09:56.652,,1287,596,99
00:09:56.689,,1054,515,15
00:09:56.727,,742,434,79
00:09:56.764,,640,514,147
00:09:56.801,,775,562,42
00:09:56.838,,1022,604,15
00:09:56.875,,1097,598,20
00:09:56.912,,1005,406,-43
00:09:56.949,,914,455,36
00:09:56.986,,943,532,27
00:09:57.023,,972,512,-22
00:09:57.060,,892,450,-33
00:09:57.097,,786,421,-9
00:09:57.134,,721,398,-8
00:09:57.171,,682,380,-18
00:09:57.208,,699,407,1
00:09:57.245,,835,437,35
00:09:57.282,,1035,493,29
00:09:57.319,,1049,535,27
00:09:57.357,,878,563,195
00:09:57.394,,915,591,269
00:09:57.431,,1027,409,166
00:09:57.468,,1081,288,125
00:09:57.505,,905,355,185
00:09:57.542,,761,320,162
00:09:57.579,,677,314,94
00:09:57.616,,671,365,41
00:09:57.653,,682,284,-128
00:09:57.690,,741,557,33
00:09:57.727,,680,614,225
00:09:57.764,,646,537,389
00:09:57.801,,755,641,304
00:09:57.838,,782,613,248
00:09:57.875,,856,571,203
00:09:57.912,,1116,666,215
00:09:57.950,,1144,634,85
00:09:57.987,,767,546,-15
00:09:58.024,,575,691,61
00:09:58.061,,831,792,-208
00:09:58.098,,1011,619,-505
00:09:58.135,,883,590,-605
00:09:58.172,,889,565,-746
00:09:58.209,,1044,525,-908
00:09:58.246,,1034,514,-1000
00:09:58.283,,762,628,-754
00:09:58.320,,532,261,-586
00:09:58.357,,346,152,-388
00:09:58.394,,264,172,-262
00:09:58.431,,265,93,-222
00:09:58.468,,313,280,-243
00:09:58.506,,622,207,-428
00:09:58.543,,789,418,-908
00:09:58.580,,627,921,-1294
00:09:58.617,,577,777,-1314
00:09:58.654,,528,610,-929
00:09:58.691,,468,500,-981
00:09:58.728,,398,353,-635
00:09:58.765,,272,207,-71
00:09:58.802,,326,270,-150
00:09:58.839,,389,443,-254
00:09:58.876,,454,495,-239
00:09:58.913,,527,553,-172
00:09:58.950,,676,649,-80
00:09:58.987,,892,720,-4
00:09:59.024,,1157,748,42
00:09:59.062,,1193,719,63
00:09:59.099,,954,602,10
00:09:59.136,,988,742,83
00:09:59.173,,977,850,-10
00:09:59.210,,819,756,-53
00:09:59.247,,919,746,-42
00:09:59.284,,1021,797,-55
00:09:59.321,,933,675,-147
00:09:59.358,,840,543,-159
00:09:59.395,,856,479,-102
00:09:59.432,,1039,446,-165
00:09:59.469,,1206,683,-124
00:09:59.506,,1224,616,-35
00:09:59.543,,1061,590,-2
00:09:59.580,,868,562,-29
00:09:59.617,,735,494,22
00:09:59.655,,687,439,21
00:09:59.692,,686,410,43
00:09:59.729,,787,458,105
00:09:59.766,,829,441,132
00:09:59.803,,707,426,223
00:09:59.840,,684,439,370
00:09:59.877,,946,557,399
00:09:59.914,,1055,501,232
00:09:59.951,,988,497,119
00:09:59.988,,879,584,94
00:10:00.025,,818,576,-15
00:10:00.062,,851,529,-101
00:10:00.099,,838,478,44
00:10:00.136,,827,512,167
00:10:00.173,,754,589,210
00:10:00.210,,712,578,195
00:10:00.247,,754,572,195
00:10:00.285,,842,529,114
00:10:00.322,,940,559,81
00:10:00.359,,1292,831,91
00:10:00.396,,975,949,-71
00:10:00.433,,651,1005,-138
00:10:00.470,,772,1367,-460
00:10:00.507,,1012,1852,-869
00:10:00.544,,1239,1924,-917
00:10:00.581,,1475,1701,-962
00:10:00.618,,1460,1546,-711
00:10:00.655,,1295,1129,-511
00:10:00.692,,1029,723,-298
00:10:00.729,,672,466,-183
00:10:00.766,,279,273,-132
00:10:00.803,,-176,335,98
00:10:00.841,,-355,434,145
00:10:00.878,,-182,426,54
00:10:00.915,,-104,464,96
00:10:00.952,,-62,365,104
00:10:00.989,,54,279,108
00:10:01.026,,201,222,74
00:10:01.063,,265,229,83
00:10:01.100,,365,291,118
00:10:01.137,,433,413,151
00:10:01.174,,501,590,131
00:10:01.211,,694,843,301
00:10:01.248,,849,974,426
00:10:01.285,,1127,1218,515
00:10:01.322,,1411,972,256
00:10:01.359,,1869,483,64
00:10:01.396,,1838,396,0
00:10:01.434,,1316,1016,204
00:10:01.471,,999,1177,245
00:10:01.508,,1031,1127,196
00:10:01.545,,1042,780,269
00:10:01.582,,1297,649,347
00:10:01.619,,1161,662,184
00:10:01.656,,886,666,130
00:10:01.693,,854,715,210
00:10:01.730,,928,554,146
00:10:01.767,,1074,511,169
00:10:01.804,,1110,526,99
00:10:01.841,,1061,499,35
00:10:01.878,,1024,467,48
00:10:01.915,,1041,464,-17
00:10:01.952,,1044,495,-41
00:10:01.989,,1014,451,-17
00:10:02.026,,940,434,-25
00:10:02.064,,871,421,-29
00:10:02.101,,740,346,-19
00:10:02.138,,613,266,23
00:10:02.175,,651,180,65
00:10:02.212,,881,341,15
00:10:02.249,,910,443,47
00:10:02.286,,875,406,224
00:10:02.323,,986,513,382
00:10:02.360,,1241,578,389
00:10:02.397,,1326,391,268
00:10:02.434,,1112,34,-17
00:10:02.471,,994,185,44
00:10:02.508,,842,601,39
00:10:02.545,,849,915,109
00:10:02.582,,740,939,226
00:10:02.619,,692,758,307
00:10:02.657,,718,566,246
00:10:02.694,,719,451,167
00:10:02.731,,846,381,118
00:10:02.768,,991,388,57
00:10:02.805,,1064,366,16
00:10:02.842,,1084,396,28
00:10:02.879,,1446,610,116
00:10:02.916,,1406,629,132
00:10:02.953,,895,346,109
00:10:02.990,,624,280,179
00:10:03.027,,691,381,158
00:10:03.064,,700,557,106
00:10:03.101,,694,643,86
00:10:03.138,,727,709,90
00:10:03.175,,764,766,113
00:10:03.212,,703,755,140
00:10:03.250,,637,703,109
00:10:03.287,,618,763,83
00:10:03.324,,601,737,89
00:10:03.361,,553,682,78
00:10:03.398,,522,695,87
00:10:03.435,,526,695,78
00:10:03.472,,576,688,97
00:10:03.509,,566,630,104
00:10:03.546,,626,596,65
00:10:03.583,,801,631,-3
00:10:03.620,,771,681,26
00:10:03.657,,629,684,136
00:10:03.694,,737,679,231
00:10:03.731,,954,598,161
00:10:03.768,,1097,449,-1
00:10:03.805,,1043,353,37
00:10:03.843,,869,358,144
00:10:03.880,,733,422,180
00:10:03.917,,719,472,119
00:10:03.954,,734,483,96
00:10:03.991,,714,481,139
00:10:04.028,,699,477,189
00:10:04.065,,731,449,193
00:10:04.102,,765,434,185
00:10:04.139,,884,440,179
00:10:04.176,,933,389,87
00:10:04.213,,857,313,4
00:10:04.250,,1116,430,4
00:10:04.287,,1303,638,-66
00:10:04.324,,991,560,-68
00:10:04.361,,736,528,116
00:10:04.398,,766,547,104
00:10:04.436,,928,589,-37
00:10:04.473,,970,511,-94
00:10:04.510,,897,449,-50
00:10:04.547,,880,413,6
00:10:04.584,,918,486,-24
00:10:04.621,,967,515,-37
00:10:04.658,,962,486,-31
00:10:04.695,,867,485,-14
00:10:04.732,,781,470,6
00:10:04.769,,726,420,-3
00:10:04.806,,776,420,-13
00:10:04.843,,794,449,59
00:10:04.880,,934,421,63
00:10:04.917,,1057,424,-35
00:10:04.954,,955,453,-16
00:10:04.992,,798,490,144
00:10:05.029,,899,558,191
00:10:05.066,,991,498,114
00:10:05.103,,988,445,125
00:10:05.140,,869,389,158
00:10:05.177,,747,405,158
00:10:05.214,,703,426,136
00:10:05.251,,702,454,132
00:10:05.288,,673,464,196
00:10:05.325,,661,439,270
00:10:05.362,,699,560,483
00:10:05.399,,725,420,418
00:10:05.436,,1043,361,254
00:10:05.473,,1070,212,33
00:10:05.510,,1316,385,-74
00:10:05.547,,1267,818,-26
00:10:05.585,,702,1046,-130
00:10:05.622,,647,989,-274
00:10:05.659,,1052,1688,-540
00:10:05.696,,1549,1435,-75
00:10:05.733,,1400,1344,145
00:10:05.770,,1221,730,181
00:10:05.807,,929,431,233
00:10:05.844,,619,352,221
00:10:05.881,,359,290,199
00:10:05.918,,-27,440,165
00:10:05.955,,-136,899,250
00:10:05.992,,-364,1028,177
00:10:06.029,,-572,888,318
00:10:06.066,,-584,703,542
00:10:06.103,,-486,618,723
00:10:06.140,,-437,598,748
00:10:06.178,,-374,516,710
00:10:06.215,,-309,501,610
00:10:06.252,,-286,491,493
00:10:06.289,,-262,353,414
00:10:06.326,,-263,204,322
00:10:06.363,,-248,194,237
00:10:06.400,,-163,354,244
00:10:06.437,,-106,588,126
00:10:06.474,,34,1025,443
00:10:06.511,,233,882,600
00:10:06.548,,418,869,818
00:10:06.585,,485,921,957
00:10:06.622,,446,902,953
00:10:06.659,,444,921,785
00:10:06.696,,260,863,567
00:10:06.734,,232,1216,628
00:10:06.771,,414,1224,632
00:10:06.808,,348,855,554
00:10:06.845,,189,733,599
00:10:06.882,,155,886,652
00:10:06.919,,291,945,509
00:10:06.956,,375,870,418
00:10:06.993,,401,785,449
00:10:07.030,,385,612,469
00:10:07.067,,369,509,432
00:10:07.104,,372,502,411
00:10:07.141,,361,434,335
00:10:07.178,,352,302,226
00:10:07.215,,434,318,161
00:10:07.252,,700,520,152
00:10:07.289,,1103,691,4
00:10:07.327,,1342,814,-61
00:10:07.364,,1217,955,290
00:10:07.401,,1248,840,502
00:10:07.438,,1207,482,186
00:10:07.475,,1055,195,33
00:10:07.512,,972,171,58
00:10:07.549,,867,358,46
00:10:07.586,,780,428,44
00:10:07.623,,724,416,36
00:10:07.660,,614,454,24
00:10:07.697,,558,474,60
00:10:07.734,,583,482,105
00:10:07.771,,664,482,175
00:10:07.808,,787,483,243
00:10:07.846,,974,475,238
00:10:07.883,,1026,342,102
00:10:07.920,,1037,379,150
00:10:07.957,,1212,619,233
00:10:07.994,,1036,622,106
00:10:08.031,,705,501,148
00:10:08.068,,753,464,116
00:10:08.105,,1018,645,52
00:10:08.142,,1089,746,126
00:10:08.179,,1025,611,102
00:10:08.216,,969,447,113
00:10:08.253,,957,422,104
00:10:08.290,,941,463,65
00:10:08.327,,921,501,44
00:10:08.364,,828,488,26
00:10:08.402,,697,463,63
00:10:08.439,,749,472,100
00:10:08.476,,823,454,79
00:10:08.513,,897,386,37
00:10:08.550,,978,447,64
00:10:08.587,,810,521,231
00:10:08.624,,736,499,398
00:10:08.661,,726,380,388
00:10:08.698,,850,133,229
00:10:08.735,,948,147,127
00:10:08.772,,838,543,29
00:10:08.809,,647,759,-7
00:10:08.846,,569,665,26
00:10:08.883,,582,589,13
00:10:08.920,,623,614,3
00:10:08.958,,632,581,20
00:10:08.995,,674,587,86
00:10:09.032,,787,557,56
00:10:09.069,,900,615,3
00:10:09.106,,753,558,-41
00:10:09.143,,1161,736,83
00:10:09.180,,1359,860,1
00:10:09.217,,785,663,86
00:10:09.254,,757,447,270
00:10:09.291,,1055,476,169
00:10:09.328,,1098,633,114
00:10:09.365,,1032,558,160
00:10:09.402,,957,438,195
00:10:09.439,,935,486,180
00:10:09.476,,871,523,133
00:10:09.514,,782,484,127
00:10:09.551,,720,485,121
00:10:09.588,,628,453,110
00:10:09.625,,589,461,154
00:10:09.662,,687,526,213
00:10:09.699,,825,498,234
00:10:09.736,,982,243,21
00:10:09.773,,924,242,-19
00:10:09.810,,864,674,439
00:10:09.847,,1012,614,438
00:10:09.884,,935,327,136
00:10:09.921,,948,147,111
00:10:09.958,,994,328,168
00:10:09.995,,890,435,190
00:10:10.032,,795,384,204
00:10:10.069,,808,372,133
00:10:10.107,,836,445,98
00:10:10.144,,788,479,145
00:10:10.181,,711,441,189
00:10:10.218,,789,396,203
00:10:10.255,,906,334,271
00:10:10.292,,966,282,220
00:10:10.329,,913,88,136
00:10:10.366,,848,58,128
00:10:10.403,,984,268,140
00:10:10.440,,1142,397,122
00:10:10.477,,1104,418,101
00:10:10.514,,1123,441,47
00:10:10.551,,1091,451,-1
00:10:10.588,,1074,461,4
00:10:10.625,,1024,471,0
00:10:10.662,,901,455,-22
00:10:10.700,,857,405,-28
00:10:10.737,,961,369,-51
00:10:10.774,,1015,332,-78
00:10:10.811,,1006,368,-67
00:10:10.848,,959,378,-45
00:10:10.885,,877,362,-25
00:10:10.922,,834,352,-12
00:10:10.959,,788,366,15
00:10:10.996,,757,403,78
00:10:11.033,,758,386,97
00:10:11.070,,1039,376,2
00:10:11.107,,1112,415,-27
00:10:11.144,,943,483,162
00:10:11.181,,923,631,399
00:10:11.218,,932,512,292
00:10:11.256,,931,241,56
00:10:11.293,,1021,258,101
00:10:11.330,,929,343,112
00:10:11.367,,783,390,106
00:10:11.404,,739,405,130
00:10:11.441,,726,409,93
00:10:11.478,,702,428,80
00:10:11.515,,735,438,117
00:10:11.552,,759,409,145
00:10:11.589,,776,370,176
00:10:11.626,,810,312,212
00:10:11.663,,894,261,162
00:10:11.700,,874,232,76
00:10:11.737,,1077,352,89
00:10:11.774,,1362,531,66
00:10:11.811,,1113,449,12
00:10:11.849,,804,383,85
00:10:11.886,,787,446,90
00:10:11.923,,854,488,14
00:10:11.960,,925,474,3
00:10:11.997,,991,493,-17
00:10:12.034,,966,495,-42
00:10:12.071,,917,462,-37
00:10:12.108,,915,431,-25
00:10:12.145,,931,411,-43
00:10:12.182,,934,396,-63
00:10:12.219,,924,412,-72
00:10:12.256,,905,414,-69
00:10:12.293,,872,393,-76
00:10:12.330,,838,395,-56
00:10:12.367,,844,441,5
00:10:12.404,,821,405,3
00:10:12.441,,747,370,12
00:10:12.479,,852,404,14
00:10:12.516,,1202,570,-78
00:10:12.553,,741,629,187
00:10:12.590,,654,658,449
00:10:12.627,,984,635,264
00:10:12.664,,1178,464,-61
00:10:12.701,,970,306,92
00:10:12.738,,808,341,134
00:10:12.775,,724,458,129
00:10:12.812,,732,512,90
00:10:12.849,,731,497,77
00:10:12.886,,661,492,107
00:10:12.923,,660,478,154
00:10:12.960,,741,443,164
00:10:12.997,,861,409,167
00:10:13.034,,992,311,62
00:10:13.071,,966,260,-41
00:10:13.109,,1080,394,-3
00:10:13.146,,1028,539,55
00:10:13.183,,1074,435,-64
00:10:13.220,,951,465,-65
00:10:13.257,,747,499,15
00:10:13.294,,732,505,43
00:10:13.331,,835,572,-5
00:10:13.368,,883,554,-72
00:10:13.405,,829,492,-43
00:10:13.442,,793,500,-14
00:10:13.479,,817,554,-21
00:10:13.516,,827,557,-36
00:10:13.553,,801,563,-40
00:10:13.590,,778,603,-22
00:10:13.627,,745,649,-36
00:10:13.664,,704,694,-19
00:10:13.702,,668,688,7
00:10:13.739,,646,678,21
00:10:13.776,,629,687,43
00:10:13.813,,617,692,58
00:10:13.850,,679,754,32
00:10:13.887,,800,645,-76
00:10:13.924,,802,636,-78
00:10:13.961,,726,631,-6
00:10:13.998,,708,609,111
00:10:14.035,,750,482,158
00:10:14.072,,763,448,76
00:10:14.109,,879,488,21
00:10:14.146,,989,514,19
00:10:14.183,,914,499,83
00:10:14.220,,796,436,115
00:10:14.257,,771,421,64
00:10:14.294,,780,428,40
00:10:14.332,,773,437,21
00:10:14.369,,758,467,63
00:10:14.406,,740,459,89
00:10:14.443,,747,453,105
00:10:14.480,,841,465,143
00:10:14.517,,835,330,33
00:10:14.554,,837,327,-2
00:10:14.591,,1218,503,-29
00:10:14.628,,1333,664,-92
00:10:14.665,,1051,553,-62
00:10:14.702,,762,448,144
00:10:14.739,,768,414,136
00:10:14.776,,889,485,4
00:10:14.813,,914,508,-93
00:10:14.850,,853,570,-12
00:10:14.888,,827,573,77
00:10:14.925,,828,599,48
00:10:14.962,,859,658,8
00:10:14.999,,863,656,14
00:10:15.036,,791,647,0
00:10:15.073,,580,594,2
00:10:15.110,,418,606,74
00:10:15.147,,476,659,103
00:10:15.184,,569,621,95
00:10:15.221,,888,580,12
00:10:15.258,,1035,570,-8
00:10:15.295,,999,520,-15
00:10:15.332,,846,563,212
00:10:15.369,,886,571,324
00:10:15.406,,959,291,72
00:10:15.443,,974,142,9
00:10:15.481,,915,253,74
00:10:15.518,,795,417,138
00:10:15.555,,656,375,149
00:10:15.592,,639,368,131
00:10:15.629,,693,426,85
00:10:15.666,,780,446,71
00:10:15.703,,800,481,96
00:10:15.740,,812,562,212
00:10:15.777,,849,607,291
00:10:15.814,,855,526,192
00:10:15.851,,911,440,76
00:10:15.888,,1141,527,55
00:10:15.925,,1243,612,-16
00:10:15.962,,1339,649,-79
00:10:15.999,,915,566,-15
00:10:16.037,,669,536,60
00:10:16.074,,772,557,36
00:10:16.111,,914,546,-67
00:10:16.148,,990,489,-76
00:10:16.185,,1003,411,-81
00:10:16.222,,1002,424,-100
00:10:16.259,,981,512,-114
00:10:16.296,,942,568,-108
00:10:16.333,,895,800,-123
00:10:16.370,,847,721,-228
00:10:16.407,,788,631,-170
00:10:16.444,,690,318,-6
00:10:16.481,,635,262,169
00:10:16.518,,618,311,316
00:10:16.555,,660,273,292
00:10:16.593,,806,80,273
00:10:16.630,,996,190,295
00:10:16.667,,1032,310,262
00:10:16.704,,1134,441,166
00:10:16.741,,1148,502,10
00:10:16.778,,1098,535,25
00:10:16.815,,966,550,111
00:10:16.852,,820,488,87
00:10:16.889,,788,454,18
00:10:16.926,,762,464,-9
00:10:16.963,,709,455,-9
00:10:17.000,,705,468,35
00:10:17.037,,672,531,124
00:10:17.074,,697,525,171
00:10:17.112,,797,533,196
00:10:17.149,,858,471,126
00:10:17.186,,863,460,110
00:10:17.223,,1056,559,102
00:10:17.260,,1108,589,72
00:10:17.297,,1314,551,-12
00:10:17.334,,1141,499,2
00:10:17.371,,791,454,84
00:10:17.408,,791,574,125
00:10:17.445,,942,536,71
00:10:17.482,,934,440,13
00:10:17.519,,853,475,28
00:10:17.556,,836,500,-34
00:10:17.593,,827,514,-91
00:10:17.630,,787,500,-84
00:10:17.668,,725,295,-180
00:10:17.705,,943,801,-125
00:10:17.742,,691,454,147
00:10:17.779,,744,457,-65
00:10:17.816,,730,494,-1
00:10:17.853,,627,564,72
00:10:17.890,,699,555,197
00:10:17.927,,934,595,22
00:10:17.964,,847,667,132
00:10:18.001,,876,815,294
00:10:18.038,,860,675,294
00:10:18.075,,788,558,201
00:10:18.112,,758,534,165
00:10:18.149,,835,610,129
00:10:18.186,,822,559,115
00:10:18.224,,750,501,109
00:10:18.261,,724,458,98
00:10:18.298,,686,441,68
00:10:18.335,,686,421,75
00:10:18.372,,670,467,133
00:10:18.409,,649,500,171
00:10:18.446,,643,554,244
00:10:18.483,,683,575,298
00:10:18.520,,733,567,330
00:10:18.557,,788,521,352
00:10:18.594,,800,379,227
00:10:18.631,,899,350,156
00:10:18.668,,943,434,101
00:10:18.705,,900,472,28
00:10:18.742,,949,476,-46
00:10:18.779,,1233,587,-65
00:10:18.817,,1039,669,41
00:10:18.854,,579,672,351
00:10:18.891,,728,655,354
00:10:18.928,,1028,607,56
00:10:18.965,,1084,377,19
00:10:19.002,,985,357,49
00:10:19.039,,910,425,16
00:10:19.076,,871,496,-32
00:10:19.113,,831,696,-33
00:10:19.150,,728,696,-48
00:10:19.187,,682,691,-74
00:10:19.224,,681,672,-127
00:10:19.261,,644,671,-138
00:10:19.298,,644,653,-30
00:10:19.335,,592,641,48
00:10:19.372,,558,600,115
00:10:19.410,,712,562,123
00:10:19.447,,1000,628,23
00:10:19.484,,756,663,205
00:10:19.521,,717,598,324
00:10:19.558,,754,571,314
00:10:19.595,,797,444,271
00:10:19.632,,870,310,236
00:10:19.669,,988,401,238
00:10:19.706,,980,450,183
00:10:19.743,,873,458,127
00:10:19.780,,788,452,101
00:10:19.817,,773,458,41
00:10:19.854,,787,493,48
00:10:19.891,,736,513,53
00:10:19.928,,615,537,102
00:10:19.966,,652,552,162
00:10:20.003,,781,504,98
00:10:20.040,,871,408,195
00:10:20.077,,908,258,191
00:10:20.114,,784,221,238
00:10:20.151,,754,280,244
00:10:20.188,,1104,506,194
00:10:20.225,,1333,583,110
00:10:20.262,,984,470,38
00:10:20.299,,800,430,131
00:10:20.336,,845,472,72
00:10:20.373,,927,531,-55
00:10:20.410,,1019,547,-53
00:10:20.447,,1035,516,-69
00:10:20.485,,964,485,-76
00:10:20.522,,953,465,-49
00:10:20.559,,1010,450,-45
00:10:20.596,,1033,478,-89
00:10:20.633,,1024,558,-61
00:10:20.670,,950,578,-72
00:10:20.707,,828,676,-56
00:10:20.744,,652,644,-28
00:10:20.781,,444,612,16
00:10:20.818,,330,663,72
00:10:20.855,,261,679,118
00:10:20.892,,284,648,87
00:10:20.929,,415,652,69
00:10:20.966,,630,702,42
00:10:21.003,,539,723,94
00:10:21.041,,505,659,154
00:10:21.078,,679,724,233
00:10:21.115,,884,701,189
00:10:21.152,,969,530,125
00:10:21.189,,1022,415,104
00:10:21.226,,1037,422,81
00:10:21.263,,934,454,83
00:10:21.300,,846,474,119
00:10:21.337,,794,475,100
00:10:21.374,,773,476,75
00:10:21.411,,743,471,90
00:10:21.448,,723,488,126
00:10:21.485,,696,506,145
00:10:21.522,,734,519,167
00:10:21.560,,781,538,188
00:10:21.597,,805,544,229
00:10:21.634,,822,505,203
00:10:21.671,,856,470,137
00:10:21.708,,1090,554,124
00:10:21.745,,1073,566,96
00:10:21.782,,944,486,45
00:10:21.819,,1049,545,44
00:10:21.856,,958,512,-9
00:10:21.893,,825,413,-46
00:10:21.930,,810,419,-51
00:10:21.967,,867,457,-87
00:10:22.004,,938,448,-132
00:10:22.041,,982,427,-166
00:10:22.078,,1004,426,-183
00:10:22.116,,1005,389,-184
00:10:22.153,,971,351,-184
00:10:22.190,,914,350,-183
00:10:22.227,,839,362,-184
00:10:22.264,,820,376,-208
00:10:22.301,,811,436,-276
00:10:22.338,,790,838,-257
00:10:22.375,,708,836,-328
00:10:22.412,,621,712,-429
00:10:22.449,,549,722,-305
00:10:22.486,,504,839,-164
00:10:22.523,,492,946,-25
00:10:22.560,,453,842,-2
00:10:22.597,,436,876,167
00:10:22.635,,487,895,205
00:10:22.672,,434,834,152
00:10:22.709,,369,974,-23
00:10:22.746,,466,771,-186
00:10:22.783,,577,684,-235
00:10:22.820,,649,594,-211
00:10:22.857,,758,561,-192
00:10:22.894,,922,598,-156
00:10:22.931,,1037,483,-145
00:10:22.968,,1127,385,-156
00:10:23.005,,1140,330,-178
00:10:23.042,,1072,383,-197
00:10:23.079,,927,454,-151
00:10:23.116,,822,452,-115
00:10:23.153,,774,377,-118
00:10:23.191,,748,295,-160
00:10:23.228,,773,307,-237
00:10:23.265,,705,609,-158
00:10:23.302,,637,680,92
00:10:23.339,,638,641,169
00:10:23.376,,702,744,220
00:10:23.413,,739,733,181
00:10:23.450,,1051,796,218
00:10:23.487,,1229,819,163
00:10:23.524,,1103,705,50
00:10:23.561,,937,614,96
00:10:23.598,,764,575,93
00:10:23.635,,769,587,32
00:10:23.672,,924,589,-33
00:10:23.710,,1007,569,-85
00:10:23.747,,956,530,-107
00:10:23.784,,908,509,-92
00:10:23.821,,893,501,-120
00:10:23.858,,886,459,-159
00:10:23.895,,879,405,-155
00:10:23.932,,876,424,-131
00:10:23.969,,879,458,-98
00:10:24.006,,888,438,-57
00:10:24.043,,810,396,21
00:10:24.080,,710,404,121
00:10:24.117,,612,412,220
00:10:24.154,,740,428,224
00:10:24.191,,890,448,205
00:10:24.229,,891,417,222
00:10:24.266,,911,457,253
00:10:24.303,,1043,559,257
00:10:24.340,,1032,579,194
00:10:24.377,,936,530,157
00:10:24.414,,912,522,164
00:10:24.451,,914,487,124
00:10:24.488,,836,442,89
00:10:24.525,,756,449,102
00:10:24.562,,737,443,69
00:10:24.599,,720,472,90
00:10:24.636,,705,469,132
00:10:24.673,,704,484,184
00:10:24.710,,697,498,248
00:10:24.748,,727,507,307
00:10:24.785,,819,422,256
00:10:24.822,,1011,335,133
00:10:24.859,,1189,488,108
00:10:24.896,,927,457,58
00:10:24.933,,1156,534,67
00:10:24.970,,1128,641,38
00:10:25.007,,823,476,22
00:10:25.044,,795,467,81
00:10:25.081,,898,486,59
00:10:25.118,,975,398,4
00:10:25.155,,961,314,14
00:10:25.192,,896,316,44
00:10:25.229,,818,396,-49
00:10:25.267,,775,689,-2
00:10:25.304,,718,707,-71
00:10:25.341,,656,688,-38
00:10:25.378,,593,770,-1
00:10:25.415,,530,833,-24
00:10:25.452,,486,823,50
00:10:25.489,,437,850,46
00:10:25.526,,424,845,68
00:10:25.563,,468,843,78
00:10:25.600,,595,820,31
00:10:25.637,,735,762,38
00:10:25.674,,695,731,122
00:10:25.711,,643,704,191
00:10:25.748,,610,684,266
00:10:25.786,,602,784,229
00:10:25.823,,668,499,26
00:10:25.860,,832,107,103
00:10:25.897,,845,155,275
00:10:25.934,,783,299,266
00:10:25.971,,852,291,190
00:10:26.008,,895,275,103
00:10:26.045,,780,416,198
00:10:26.082,,694,550,332
00:10:26.119,,673,592,384
00:10:26.156,,711,580,458
00:10:26.193,,797,478,449
00:10:26.230,,905,397,436
00:10:26.267,,971,329,313
00:10:26.304,,921,361,212
00:10:26.341,,1051,507,219
00:10:26.379,,1199,640,187
00:10:26.416,,1057,519,112
00:10:26.453,,866,442,109
00:10:26.490,,825,473,85
00:10:26.527,,864,421,-17
00:10:26.564,,1040,447,-41
00:10:26.601,,1129,506,-53
00:10:26.638,,1076,436,-74
00:10:26.675,,991,418,-40
00:10:26.712,,977,351,8
00:10:26.749,,988,323,-1
00:10:26.786,,874,447,39
00:10:26.823,,853,536,84
00:10:26.860,,772,521,101
00:10:26.897,,647,529,137
00:10:26.935,,551,465,159
00:10:26.972,,523,506,197
00:10:27.009,,526,477,222
00:10:27.046,,644,474,192
00:10:27.083,,1007,560,168
00:10:27.120,,1331,572,56
00:10:27.157,,1074,553,78
00:10:27.194,,801,674,267
00:10:27.231,,908,647,152
00:10:27.268,,1002,502,55
00:10:27.305,,909,457,91
00:10:27.342,,738,482,32
00:10:27.379,,710,346,-29
00:10:27.416,,662,407,52
00:10:27.453,,627,422,81
00:10:27.491,,673,447,129
00:10:27.528,,716,500,161
00:10:27.565,,773,546,207
00:10:27.602,,870,552,207
00:10:27.639,,962,557,125
00:10:27.676,,920,678,35
00:10:27.713,,1151,848,-91
00:10:27.750,,1265,884,-193
00:10:27.787,,1098,889,-166
00:10:27.824,,1029,825,-206
00:10:27.861,,926,745,-263
00:10:27.898,,933,617,-249
00:10:27.935,,1100,490,-301
00:10:27.972,,1171,379,-339
00:10:28.009,,805,379,-305
00:10:28.046,,608,482,-251
00:10:28.084,,534,314,-86
00:10:28.121,,504,420,68
00:10:28.158,,439,678,29
00:10:28.195,,373,758,-258
00:10:28.232,,255,648,-275
00:10:28.269,,192,708,-328
00:10:28.306,,239,876,-457
00:10:28.343,,296,872,-585
00:10:28.380,,291,881,-575
00:10:28.417,,401,798,-625
00:10:28.454,,549,683,-719
00:10:28.491,,428,828,-667
00:10:28.528,,393,903,-472
00:10:28.565,,400,863,-339
00:10:28.602,,463,796,-313
00:10:28.640,,576,703,-295
00:10:28.677,,750,460,-336
00:10:28.714,,572,540,-127
00:10:28.751,,384,662,-64
00:10:28.788,,400,662,-24
00:10:28.825,,522,669,19
00:10:28.862,,619,701,89
00:10:28.899,,676,722,159
00:10:28.936,,668,699,176
00:10:28.973,,728,744,210
00:10:29.010,,737,804,199
00:10:29.047,,687,916,121
00:10:29.084,,720,672,202
00:10:29.121,,918,542,-129
00:10:29.158,,770,937,-440
00:10:29.196,,931,760,-231
00:10:29.233,,940,424,-304
00:10:29.270,,579,545,-410
00:10:29.307,,555,453,-347
00:10:29.344,,845,467,-448
00:10:29.381,,879,469,-356
00:10:29.418,,684,432,-210
00:10:29.455,,622,477,-130
00:10:29.492,,656,615,-200
00:10:29.529,,663,662,-263
00:10:29.566,,664,670,-274
00:10:29.603,,667,636,-336
00:10:29.640,,687,571,-288
00:10:29.677,,719,631,-298
00:10:29.714,,695,617,-245
00:10:29.752,,695,704,-211
