Sensors' Acquisition [Hz]: Acc@26.0 
hh:mm:ss.ms, Annotation , AccX [mg], AccY, AccZ
23:56:46.328,,288,373,654
23:56:46.365,,117,589,556
23:56:46.389,>Walk,,,
23:56:46.402,,24,818,592
23:56:46.439,,-142,922,287
23:56:46.476,,-310,1197,688
23:56:46.513,,-123,838,813
23:56:46.550,,104,877,568
23:56:46.587,,231,1137,359
23:56:46.624,,97,850,541
23:56:46.661,,-66,696,558
23:56:46.698,,-103,738,336
23:56:46.735,,-159,860,417
23:56:46.772,,-119,863,410
23:56:46.809,,-53,1041,541
23:56:46.846,,-45,1015,574
23:56:46.883,,-112,929,513
23:56:46.920,,-170,875,544
23:56:46.957,,-156,874,507
23:56:46.994,,-94,856,496
23:56:47.031,,-39,898,514
23:56:47.068,,-45,932,510
23:56:47.105,,-110,909,513
23:56:47.142,,-188,870,484
23:56:47.179,,-265,854,435
23:56:47.216,,-271,837,419
23:56:47.253,,-208,785,400
23:56:47.290,,-125,714,374
23:56:47.327,,36,639,320
23:56:47.364,,129,806,404
23:56:47.401,,256,846,568
23:56:47.438,,473,598,503
23:56:47.475,,684,387,443
23:56:47.512,,765,371,459
23:56:47.549,,842,404,363
23:56:47.586,,884,463,257
23:56:47.623,,910,537,245
23:56:47.660,,934,635,248
23:56:47.697,,915,681,241
23:56:47.734,,889,663,200
23:56:47.771,,858,652,219
23:56:47.809,,869,623,237
23:56:47.846,,841,632,291
23:56:47.883,,918,549,217
23:56:47.920,,1029,768,52
23:56:47.957,,1086,979,-104
23:56:47.994,,801,810,-189
23:56:48.031,,594,994,-353
23:56:48.068,,790,817,-494
23:56:48.105,,928,653,-817
23:56:48.142,,873,913,-850
23:56:48.179,,1012,1124,-1026
23:56:48.216,,1318,1210,-1053
23:56:48.253,,1410,1463,-547
23:56:48.290,,1204,927,-87
23:56:48.327,,824,398,145
23:56:48.364,,418,-55,221
23:56:48.401,,230,-116,269
23:56:48.438,,89,-209,345
23:56:48.475,,32,-157,480
23:56:48.512,,-3,-91,545
23:56:48.549,,111,-117,732
23:56:48.586,,255,0,934
23:56:48.623,,263,85,1237
23:56:48.660,,536,43,1283
23:56:48.697,,596,-30,1074
23:56:48.734,,566,-13,749
23:56:48.771,,554,-4,495
23:56:48.808,,630,41,252
23:56:48.845,,664,237,-21
23:56:48.882,,690,592,47
23:56:48.919,,757,659,-11
23:56:48.956,,878,744,-55
23:56:48.993,,990,819,69
23:56:49.030,,1171,971,115
23:56:49.067,,1254,1131,177
23:56:49.104,,1295,973,79
23:56:49.141,,1101,763,67
23:56:49.178,,1037,494,295
23:56:49.215,,1359,668,511
23:56:49.252,,923,852,139
23:56:49.289,,567,910,73
23:56:49.326,,685,728,136
23:56:49.363,,817,662,117
23:56:49.400,,875,627,118
23:56:49.437,,907,548,168
23:56:49.474,,967,527,155
23:56:49.511,,1048,576,135
23:56:49.548,,1083,617,92
23:56:49.585,,1002,682,132
23:56:49.622,,879,647,163
23:56:49.659,,731,646,194
23:56:49.696,,632,673,234
23:56:49.733,,546,619,195
23:56:49.770,,483,584,227
23:56:49.807,,429,571,269
23:56:49.844,,505,572,240
23:56:49.881,,707,666,248
23:56:49.918,,654,636,305
23:56:49.955,,602,652,437
23:56:49.992,,834,650,398
23:56:50.029,,963,527,254
23:56:50.066,,907,470,243
23:56:50.103,,816,505,249
23:56:50.140,,709,533,189
23:56:50.177,,709,583,181
23:56:50.214,,723,598,147
23:56:50.251,,710,574,143
23:56:50.288,,702,565,160
23:56:50.325,,673,567,163
23:56:50.362,,672,621,221
23:56:50.399,,740,632,230
23:56:50.436,,865,633,238
23:56:50.473,,822,644,252
23:56:50.510,,827,706,297
23:56:50.547,,1055,834,354
23:56:50.584,,995,719,233
23:56:50.621,,702,547,220
23:56:50.658,,753,591,269
23:56:50.695,,943,632,179
23:56:50.732,,987,548,123
23:56:50.770,,880,482,85
23:56:50.807,,821,526,83
23:56:50.844,,828,546,68
23:56:50.881,,823,564,50
23:56:50.918,,747,609,75
23:56:50.955,,658,645,89
23:56:50.992,,581,725,119
23:56:51.029,,504,753,159
23:56:51.066,,433,760,186
23:56:51.103,,402,774,206
23:56:51.140,,407,781,225
23:56:51.177,,424,782,298
23:56:51.214,,646,822,287
23:56:51.251,,777,772,260
23:56:51.288,,481,695,356
23:56:51.325,,644,788,368
23:56:51.362,,779,653,252
23:56:51.399,,723,545,224
23:56:51.436,,670,609,225
23:56:51.473,,592,605,190
23:56:51.510,,573,583,148
23:56:51.547,,603,626,172
23:56:51.584,,615,625,159
23:56:51.621,,627,653,167
23:56:51.658,,615,670,186
23:56:51.695,,562,675,187
23:56:51.732,,561,730,245
23:56:51.769,,666,755,253
23:56:51.806,,773,748,230
23:56:51.843,,826,780,239
23:56:51.880,,999,933,275
23:56:51.917,,861,836,194
23:56:51.954,,666,781,190
23:56:51.991,,663,772,126
23:56:52.028,,732,856,80
23:56:52.065,,815,938,-16
23:56:52.102,,854,1031,-79
23:56:52.139,,798,1150,-71
23:56:52.176,,742,1150,-24
23:56:52.213,,655,1117,10
23:56:52.250,,462,1236,-9
23:56:52.287,,306,1190,94
23:56:52.324,,121,1187,129
23:56:52.361,,-81,1066,213
23:56:52.398,,-265,839,157
23:56:52.435,,-431,638,107
23:56:52.472,,-549,468,79
23:56:52.509,,-666,340,55
23:56:52.546,,-722,293,79
23:56:52.583,,-790,259,13
23:56:52.620,,-900,428,133
23:56:52.657,,-788,428,125
23:56:52.694,,-614,389,91
23:56:52.731,,-574,418,199
23:56:52.768,,-482,313,247
23:56:52.805,,-488,-4,353
23:56:52.842,,-723,204,292
23:56:52.879,,-870,153,316
23:56:52.916,,-950,148,280
23:56:52.953,,-947,147,262
23:56:52.990,,-921,196,211
23:56:53.027,,-918,269,105
23:56:53.064,,-959,296,-58
23:56:53.101,,-1032,343,-87
23:56:53.138,,-1028,255,-128
23:56:53.175,,-1132,298,-67
23:56:53.212,,-1312,362,42
23:56:53.249,,-1230,185,24
23:56:53.286,,-930,-20,-36
23:56:53.323,,-829,-11,-124
23:56:53.360,,-967,88,-117
23:56:53.397,,-920,-77,-101
23:56:53.434,,-946,68,-70
23:56:53.471,,-948,191,-15
23:56:53.508,,-908,193,2
23:56:53.545,,-907,149,-85
23:56:53.582,,-943,126,-49
23:56:53.619,,-970,76,-101
23:56:53.656,,-957,136,-9
23:56:53.693,,-987,148,-17
23:56:53.730,,-1088,103,-33
23:56:53.767,,-1163,120,-36
23:56:53.804,,-1162,57,-44
23:56:53.841,,-1159,198,21
23:56:53.878,,-1220,264,-46
23:56:53.915,,-1192,160,-4
23:56:53.952,,-1088,392,53
23:56:53.989,,-823,439,-2
23:56:54.026,,-697,377,-54
23:56:54.063,,-744,235,-22
23:56:54.101,,-843,317,-13
23:56:54.138,,-829,236,72
23:56:54.175,,-831,309,111
23:56:54.212,,-852,318,213
23:56:54.249,,-812,96,201
23:56:54.286,,-883,388,119
23:56:54.323,,-867,261,186
23:56:54.360,,-875,199,222
23:56:54.397,,-949,453,151
23:56:54.434,,-929,223,135
23:56:54.471,,-988,174,33
23:56:54.508,,-1122,240,24
23:56:54.545,,-1228,383,-128
23:56:54.582,,-1347,308,-373
23:56:54.619,,-1139,230,-436
23:56:54.656,,-1009,125,-382
23:56:54.693,,-933,4,-374
23:56:54.730,,-864,87,-106
23:56:54.767,,-848,-10,-214
23:56:54.804,,-858,126,-122
23:56:54.841,,-866,163,-127
23:56:54.878,,-858,165,-107
23:56:54.915,,-866,157,-157
23:56:54.952,,-846,22,-153
23:56:54.989,,-917,208,-197
23:56:55.026,,-973,59,-142
23:56:55.063,,-1004,165,-97
23:56:55.100,,-1124,85,-179
23:56:55.137,,-1122,9,-90
23:56:55.174,,-1231,174,-227
23:56:55.211,,-1170,236,-80
23:56:55.248,,-1242,330,-88
23:56:55.285,,-1272,209,-210
23:56:55.322,,-1001,284,-186
23:56:55.359,,-789,444,-337
23:56:55.396,,-621,285,-267
23:56:55.433,,-803,358,-236
23:56:55.470,,-840,374,-139
23:56:55.507,,-781,298,-3
23:56:55.544,,-851,439,-20
23:56:55.581,,-824,399,-7
23:56:55.618,,-729,194,109
23:56:55.655,,-793,400,86
23:56:55.692,,-807,319,108
23:56:55.729,,-892,309,151
23:56:55.766,,-945,412,5
23:56:55.803,,-1063,362,-48
23:56:55.840,,-1388,488,-131
23:56:55.877,,-1287,378,-224
23:56:55.914,,-1028,-13,-173
23:56:55.951,,-939,-66,-181
23:56:55.988,,-925,-90,-309
23:56:56.025,,-855,-47,-261
23:56:56.062,,-797,123,-260
23:56:56.099,,-842,263,-151
23:56:56.136,,-862,219,-174
23:56:56.173,,-873,193,-117
23:56:56.210,,-827,127,-214
23:56:56.247,,-822,126,-130
23:56:56.284,,-892,148,-226
23:56:56.321,,-1129,137,-339
23:56:56.358,,-1121,89,-306
23:56:56.395,,-1264,65,-368
23:56:56.432,,-1182,207,-281
23:56:56.469,,-1168,203,-405
23:56:56.506,,-1109,225,-454
23:56:56.543,,-864,348,-442
23:56:56.580,,-701,371,-496
23:56:56.617,,-663,379,-552
23:56:56.655,,-695,242,-440
23:56:56.692,,-655,346,-289
23:56:56.729,,-544,352,-167
23:56:56.766,,-389,291,-89
23:56:56.803,,-329,367,-99
23:56:56.840,,-337,411,-61
23:56:56.877,,-268,341,-39
23:56:56.914,,-289,440,-256
23:56:56.951,,-383,380,-457
23:56:56.988,,-493,820,-832
23:56:57.025,,-465,1254,-990
23:56:57.062,,-434,1121,-997
23:56:57.099,,-399,1260,-863
23:56:57.136,,-236,1297,-629
23:56:57.173,,-212,1106,-485
23:56:57.210,,-188,867,-454
23:56:57.247,,-137,1128,-419
23:56:57.284,,-51,1258,-485
23:56:57.321,,32,957,-447
23:56:57.358,,2,901,-349
23:56:57.395,,-38,860,-291
23:56:57.432,,-11,787,-337
23:56:57.469,,-61,904,-403
23:56:57.506,,-114,920,-440
23:56:57.543,,-106,923,-401
23:56:57.580,,-104,918,-434
23:56:57.617,,-90,975,-428
23:56:57.654,,-94,1010,-476
23:56:57.691,,-139,1010,-489
23:56:57.728,,-167,1067,-496
23:56:57.765,,-234,1068,-585
23:56:57.802,,-240,930,-518
23:56:57.839,,-202,786,-562
23:56:57.876,,-130,744,-555
23:56:57.913,,-97,616,-531
23:56:57.950,,-173,617,-390
23:56:57.987,,-207,581,-328
23:56:58.024,,-299,524,-321
23:56:58.061,,-369,656,-195
23:56:58.098,,-409,670,-238
23:56:58.135,,-419,761,-154
23:56:58.172,,-451,791,-162
23:56:58.209,,-465,766,-197
23:56:58.246,,-506,894,-179
23:56:58.283,,-487,862,-262
23:56:58.320,,-460,881,-309
23:56:58.357,,-529,906,-336
23:56:58.394,,-624,897,-387
23:56:58.431,,-587,965,-432
23:56:58.468,,-456,959,-388
23:56:58.505,,-506,777,-387
23:56:58.542,,-499,745,-428
23:56:58.579,,-368,749,-383
23:56:58.616,,-293,778,-328
23:56:58.653,,-348,745,-214
23:56:58.690,,-377,600,-185
23:56:58.727,,-422,686,-113
23:56:58.764,,-475,644,-61
23:56:58.801,,-501,695,-85
23:56:58.838,,-544,897,107
23:56:58.876,,-548,904,141
23:56:58.913,,-563,923,171
23:56:58.950,,-568,919,137
23:56:58.987,,-573,1019,89
23:56:59.024,,-561,1134,34
23:56:59.061,,-537,1298,5
23:56:59.098,,-373,1161,2
23:56:59.135,,-331,1014,52
23:56:59.172,,-217,1036,92
23:56:59.209,,-68,870,-14
23:56:59.246,,-116,788,-12
23:56:59.283,,-167,792,71
23:56:59.320,,-188,697,15
23:56:59.357,,-271,727,65
23:56:59.394,,-318,747,68
23:56:59.431,,-326,701,44
23:56:59.468,,-382,740,37
23:56:59.505,,-396,777,59
23:56:59.542,,-373,906,116
23:56:59.579,,-313,1068,188
23:56:59.616,,-241,1034,94
23:56:59.653,,-312,992,-17
23:56:59.690,,-461,1040,-37
23:56:59.727,,-563,1236,-147
23:56:59.764,,-451,1349,-135
23:56:59.801,,-367,1125,-131
23:56:59.838,,-520,1142,-147
23:56:59.875,,-484,1002,-180
23:56:59.912,,-531,1086,-79
23:56:59.949,,-568,937,79
23:56:59.986,,-572,804,56
23:57:00.023,,-548,677,119
23:57:00.060,,-568,516,52
23:57:00.097,,-643,502,20
23:57:00.134,,-790,466,-63
23:57:00.171,,-836,526,-44
23:57:00.208,,-985,445,-206
23:57:00.245,,-925,397,-184
23:57:00.282,,-838,224,-181
23:57:00.319,,-841,260,-126
23:57:00.356,,-825,273,-63
23:57:00.393,,-787,316,55
23:57:00.430,,-939,594,-180
23:57:00.467,,-826,389,-340
23:57:00.504,,-698,477,-288
23:57:00.541,,-824,322,-271
23:57:00.578,,-826,314,-204
23:57:00.615,,-802,360,-91
23:57:00.652,,-781,317,-67
23:57:00.689,,-740,327,-96
23:57:00.726,,-747,438,-124
23:57:00.764,,-726,532,-93
23:57:00.801,,-703,481,-179
23:57:00.838,,-641,454,-178
23:57:00.875,,-534,536,-84
23:57:00.912,,-567,381,-229
23:57:00.949,,-534,453,-226
23:57:00.986,,-868,296,-409
23:57:01.023,,-975,97,-687
23:57:01.060,,-1066,509,-779
23:57:01.097,,-1024,537,-822
23:57:01.134,,-877,566,-737
23:57:01.171,,-651,860,-587
23:57:01.208,,-451,1011,-430
23:57:01.245,,-334,1035,-127
23:57:01.282,,-306,1076,109
23:57:01.319,,-98,644,38
23:57:01.356,,-637,1118,649
23:57:01.393,,-420,382,317
23:57:01.430,,-505,807,784
23:57:01.467,,-452,581,484
23:57:01.504,,-430,563,474
23:57:01.541,,-413,636,680
23:57:01.578,,-304,772,705
23:57:01.615,,-361,895,833
23:57:01.652,,-428,766,820
23:57:01.689,,-471,850,725
23:57:01.726,,-378,872,806
23:57:01.763,,-351,915,767
23:57:01.800,,-195,770,689
23:57:01.837,,-50,555,566
23:57:01.874,,-31,581,563
23:57:01.911,,16,511,525
23:57:01.948,,-64,679,445
23:57:01.985,,-107,758,401
23:57:02.022,,-120,587,442
23:57:02.059,,-133,626,609
23:57:02.096,,-107,672,678
23:57:02.133,,-134,711,581
23:57:02.170,,-187,797,452
23:57:02.207,,-253,1094,437
23:57:02.244,,-214,1006,231
23:57:02.281,,-158,1020,-52
23:57:02.318,,-160,1075,-215
23:57:02.355,,-162,956,-352
23:57:02.392,,-210,1145,-694
23:57:02.429,,-139,972,-799
23:57:02.466,,-266,728,-742
23:57:02.503,,-276,438,-805
23:57:02.540,,-188,116,-870
23:57:02.577,,-160,375,-899
23:57:02.614,,-41,212,-942
23:57:02.651,,-78,245,-872
23:57:02.688,,-112,201,-739
23:57:02.725,,-60,135,-832
23:57:02.762,,-162,109,-900
23:57:02.799,,-303,355,-918
23:57:02.836,,-292,319,-821
23:57:02.873,,-283,540,-920
23:57:02.911,,-354,303,-719
23:57:02.948,,-507,447,-746
23:57:02.985,,-447,373,-1011
23:57:03.022,,-190,472,-1111
23:57:03.059,,-528,326,-1117
23:57:03.096,,-153,829,-723
23:57:03.133,,-118,658,-1172
23:57:03.170,,-52,740,-944
23:57:03.207,,28,495,-699
23:57:03.244,,1,566,-705
23:57:03.281,,-5,433,-592
23:57:03.318,,-47,549,-557
23:57:03.355,,-157,543,-629
23:57:03.392,,-189,581,-534
23:57:03.429,,-218,691,-458
23:57:03.466,,-225,728,-498
23:57:03.503,,-238,776,-438
23:57:03.540,,-273,802,-470
23:57:03.577,,-296,829,-473
23:57:03.614,,-261,934,-489
23:57:03.651,,-205,941,-479
23:57:03.688,,-292,1012,-502
23:57:03.725,,-325,1100,-477
23:57:03.762,,-265,1095,-519
23:57:03.799,,-247,1051,-390
23:57:03.836,,-319,1042,-184
23:57:03.873,,-451,756,-237
23:57:03.910,,-349,796,-61
23:57:03.947,,-330,889,114
23:57:03.984,,-238,684,106
23:57:04.021,,-308,715,383
23:57:04.058,,-272,316,296
23:57:04.095,,-248,693,635
23:57:04.132,,-277,862,737
23:57:04.169,,-331,697,625
23:57:04.206,,-165,853,617
23:57:04.243,,-242,642,739
23:57:04.280,,-319,917,707
23:57:04.317,,-263,838,650
23:57:04.354,,-194,996,808
23:57:04.391,,-186,1114,985
23:57:04.428,,-49,725,740
23:57:04.465,,-9,369,547
23:57:04.502,,-33,352,511
23:57:04.539,,-20,484,589
23:57:04.576,,-96,866,661
23:57:04.613,,-69,901,638
23:57:04.650,,-101,707,626
23:57:04.687,,-136,560,696
23:57:04.724,,-160,522,770
23:57:04.761,,-121,509,660
23:57:04.798,,-123,595,704
23:57:04.835,,-136,623,694
23:57:04.873,,-170,588,710
23:57:04.910,,-149,657,646
23:57:04.947,,-141,671,625
23:57:04.984,,-201,766,667
23:57:05.021,,-193,716,578
23:57:05.058,,-278,691,529
23:57:05.095,,-420,692,453
23:57:05.132,,-458,768,263
23:57:05.169,,-490,1244,290
23:57:05.206,,-303,1259,102
23:57:05.243,,-208,924,-78
23:57:05.280,,-291,1122,-29
23:57:05.317,,-124,1024,-345
23:57:05.354,,-1,1139,-286
23:57:05.391,,88,977,-115
23:57:05.428,,57,1004,-165
23:57:05.465,,11,881,-144
23:57:05.502,,1,841,-205
23:57:05.539,,-63,900,-289
23:57:05.576,,-104,920,-362
23:57:05.613,,-103,858,-494
23:57:05.650,,-173,828,-552
23:57:05.687,,-252,817,-620
23:57:05.724,,-310,689,-707
23:57:05.761,,-261,751,-778
23:57:05.798,,-170,801,-727
23:57:05.835,,-59,1070,-674
23:57:05.872,,-28,899,-582
23:57:05.909,,-142,638,-561
23:57:05.946,,-118,569,-545
23:57:05.983,,-88,442,-651
23:57:06.020,,-150,581,-630
23:57:06.057,,-217,701,-629
23:57:06.094,,-257,709,-624
23:57:06.131,,-284,778,-519
23:57:06.168,,-333,928,-424
23:57:06.205,,-397,886,-426
23:57:06.242,,-465,939,-499
23:57:06.279,,-611,966,-583
23:57:06.316,,-615,1061,-408
23:57:06.353,,-619,765,-772
23:57:06.390,,-701,677,-917
23:57:06.427,,-856,517,-958
23:57:06.464,,-971,349,-988
23:57:06.501,,-739,243,-624
23:57:06.538,,-707,-31,-486
23:57:06.576,,-638,2,-268
23:57:06.613,,-583,47,-175
23:57:06.650,,-559,139,65
23:57:06.687,,-625,294,204
23:57:06.724,,-645,131,305
23:57:06.761,,-916,48,145
23:57:06.798,,-1105,-32,55
23:57:06.835,,-1119,-25,104
23:57:06.872,,-1054,-18,123
23:57:06.909,,-1041,34,109
23:57:06.946,,-1039,-28,-39
23:57:06.983,,-1085,61,-45
23:57:07.020,,-910,140,32
23:57:07.057,,-1069,-19,-134
23:57:07.094,,-1167,62,-257
23:57:07.131,,-948,222,-138
23:57:07.168,,-997,221,-148
23:57:07.205,,-892,160,-365
23:57:07.242,,-751,77,-515
23:57:07.279,,-828,88,-436
23:57:07.316,,-945,165,-355
23:57:07.353,,-1138,234,-293
23:57:07.390,,-999,202,-208
23:57:07.427,,-849,144,-261
23:57:07.464,,-778,178,-310
23:57:07.501,,-864,188,-453
23:57:07.538,,-970,193,-469
23:57:07.575,,-828,328,-131
23:57:07.612,,-790,289,-181
23:57:07.649,,-734,30,-452
23:57:07.686,,-868,273,-317
23:57:07.723,,-1038,112,-401
23:57:07.760,,-1319,344,-170
23:57:07.797,,-1263,182,32
23:57:07.834,,-979,156,-137
23:57:07.871,,-924,208,-392
23:57:07.908,,-909,349,-254
23:57:07.945,,-894,365,-186
23:57:07.982,,-742,219,-118
23:57:08.019,,-652,37,-51
23:57:08.056,,-489,113,40
23:57:08.093,,-378,75,183
23:57:08.130,,-432,155,-61
23:57:08.167,,-214,161,-201
23:57:08.204,,-106,446,-401
23:57:08.241,,88,696,-478
23:57:08.278,,289,1007,-431
23:57:08.315,,448,1494,-350
23:57:08.353,,784,1377,-327
23:57:08.390,,1002,1533,-140
23:57:08.427,,1263,1121,-156
23:57:08.464,,1367,1078,-44
23:57:08.501,,1274,1082,30
23:57:08.538,,1088,915,-47
23:57:08.575,,830,850,-3
23:57:08.612,,693,773,8
23:57:08.649,,574,710,-50
23:57:08.686,,501,762,-45
23:57:08.723,,570,683,-33
23:57:08.760,,671,657,-69
23:57:08.797,,661,615,-59
23:57:08.834,,929,716,33
23:57:08.871,,1410,773,-58
23:57:08.908,,1422,559,-130
23:57:08.945,,1455,717,18
23:57:08.982,,1236,640,-53
23:57:09.019,,923,462,-61
23:57:09.056,,838,440,-17
23:57:09.093,,814,361,-74
23:57:09.130,,747,277,-122
23:57:09.167,,638,273,-118
23:57:09.204,,563,285,-104
23:57:09.241,,650,368,-109
23:57:09.278,,685,337,-158
23:57:09.315,,693,399,-123
23:57:09.352,,774,536,-45
23:57:09.389,,963,584,-52
23:57:09.426,,905,784,121
23:57:09.463,,975,1043,425
23:57:09.500,,1454,1075,363
23:57:09.537,,1172,563,196
23:57:09.574,,881,455,392
23:57:09.611,,702,584,334
23:57:09.648,,548,582,179
23:57:09.685,,481,478,117
23:57:09.722,,465,502,104
23:57:09.759,,485,481,51
23:57:09.796,,561,398,96
23:57:09.833,,717,425,103
23:57:09.870,,883,381,21
23:57:09.907,,852,426,6
23:57:09.944,,998,523,54
23:57:09.981,,1081,645,52
23:57:10.018,,1184,709,5
23:57:10.055,,1342,838,15
23:57:10.092,,1300,879,32
23:57:10.130,,899,657,33
23:57:10.167,,630,588,126
23:57:10.204,,619,584,94
23:57:10.241,,629,516,46
23:57:10.278,,609,467,51
23:57:10.315,,600,379,21
23:57:10.352,,660,421,19
23:57:10.389,,759,433,-12
23:57:10.426,,676,387,-36
23:57:10.463,,629,462,143
23:57:10.500,,767,489,98
23:57:10.537,,990,329,40
23:57:10.574,,1079,468,5
23:57:10.611,,1472,863,-80
23:57:10.648,,1332,953,-299
23:57:10.685,,1070,863,-252
23:57:10.722,,721,756,-163
23:57:10.759,,578,567,-336
23:57:10.796,,456,832,-406
23:57:10.833,,441,968,-453
23:57:10.870,,380,681,-445
23:57:10.907,,451,97,-46
23:57:10.944,,655,-336,20
23:57:10.981,,570,584,-431
23:57:11.018,,426,955,-306
23:57:11.055,,1166,1186,-144
23:57:11.092,,1390,858,-274
23:57:11.129,,1560,339,-158
23:57:11.166,,1726,500,51
23:57:11.203,,1402,536,-57
23:57:11.240,,1010,452,-17
23:57:11.277,,782,498,17
23:57:11.314,,772,438,-25
23:57:11.351,,740,372,-35
23:57:11.388,,625,323,-7
23:57:11.425,,592,310,18
23:57:11.462,,664,391,30
23:57:11.499,,775,459,30
23:57:11.536,,764,460,99
23:57:11.573,,727,498,240
23:57:11.611,,913,606,318
23:57:11.648,,1077,1112,313
23:57:11.685,,715,937,188
23:57:11.722,,1043,111,504
23:57:11.759,,1305,-214,414
23:57:11.796,,1149,204,163
23:57:11.833,,858,456,-104
23:57:11.870,,682,746,-263
23:57:11.907,,500,1035,-205
23:57:11.944,,467,490,-174
23:57:11.981,,606,308,-13
23:57:12.018,,594,687,-212
23:57:12.055,,638,815,-243
23:57:12.092,,692,699,-137
23:57:12.129,,698,558,-148
23:57:12.166,,1107,773,-47
23:57:12.203,,1380,834,-118
23:57:12.240,,1154,701,-157
23:57:12.277,,1228,732,-64
23:57:12.314,,1352,770,-65
23:57:12.351,,1133,587,-97
23:57:12.388,,885,411,-35
23:57:12.425,,849,416,-1
23:57:12.462,,930,416,-17
23:57:12.499,,910,372,-20
23:57:12.536,,772,322,-12
23:57:12.573,,653,305,2
23:57:12.610,,670,315,-19
23:57:12.647,,665,274,-55
23:57:12.684,,510,293,12
23:57:12.721,,679,522,180
23:57:12.758,,1048,706,281
23:57:12.795,,1071,747,392
23:57:12.832,,1070,521,479
23:57:12.869,,1368,529,496
23:57:12.906,,1317,367,353
23:57:12.943,,1060,409,186
23:57:12.980,,889,554,106
23:57:13.018,,803,577,-37
23:57:13.055,,788,543,-80
23:57:13.092,,826,533,-166
23:57:13.129,,575,650,-100
23:57:13.166,,379,589,-4
23:57:13.203,,422,742,86
23:57:13.240,,610,821,30
23:57:13.277,,675,662,-106
23:57:13.314,,1014,788,24
23:57:13.351,,1261,836,-17
23:57:13.388,,884,694,128
23:57:13.425,,1137,823,151
23:57:13.462,,1397,942,-63
23:57:13.499,,1080,651,-105
23:57:13.536,,881,344,18
23:57:13.573,,876,453,36
23:57:13.610,,1162,546,35
23:57:13.647,,1095,278,-92
23:57:13.684,,799,323,-29
23:57:13.721,,661,419,82
23:57:13.758,,718,404,3
23:57:13.795,,806,340,-25
23:57:13.832,,958,502,173
23:57:13.869,,1288,512,235
23:57:13.906,,982,378,368
23:57:13.943,,663,553,687
23:57:13.980,,1088,515,680
23:57:14.017,,1260,192,470
23:57:14.054,,1123,228,275
23:57:14.091,,1040,558,230
23:57:14.128,,981,713,158
23:57:14.165,,934,768,93
23:57:14.202,,839,753,43
23:57:14.239,,698,604,-45
23:57:14.276,,605,584,37
23:57:14.313,,595,628,75
23:57:14.350,,710,747,42
23:57:14.387,,744,637,23
23:57:14.424,,1100,757,109
23:57:14.461,,1045,785,58
23:57:14.499,,959,721,147
23:57:14.536,,1196,763,164
23:57:14.573,,1388,823,159
23:57:14.610,,1378,619,154
23:57:14.647,,1226,376,173
23:57:14.684,,1270,393,155
23:57:14.721,,1196,460,106
23:57:14.758,,1048,456,116
23:57:14.795,,840,356,79
23:57:14.832,,646,308,84
23:57:14.869,,580,320,123
23:57:14.906,,537,287,117
23:57:14.943,,510,305,156
23:57:14.980,,685,465,244
23:57:15.017,,790,567,380
23:57:15.054,,840,550,482
23:57:15.091,,1144,619,515
23:57:15.128,,1403,510,415
23:57:15.165,,1292,526,341
23:57:15.202,,1109,606,322
23:57:15.239,,957,645,229
23:57:15.276,,906,649,91
23:57:15.313,,854,682,39
23:57:15.350,,711,651,5
23:57:15.387,,589,653,31
23:57:15.424,,510,687,66
23:57:15.461,,527,789,105
23:57:15.498,,623,817,102
23:57:15.535,,720,736,150
23:57:15.572,,1211,910,188
23:57:15.609,,965,666,57
23:57:15.646,,1079,726,145
23:57:15.683,,1376,821,106
23:57:15.720,,1467,798,126
23:57:15.757,,1401,561,196
23:57:15.794,,1280,376,182
23:57:15.831,,1228,435,203
23:57:15.869,,1128,524,205
23:57:15.906,,922,420,168
23:57:15.943,,654,266,144
23:57:15.980,,480,245,122
23:57:16.017,,405,257,102
23:57:16.054,,374,205,49
23:57:16.091,,374,226,0
23:57:16.128,,616,409,36
23:57:16.165,,1024,713,288
23:57:16.202,,1153,922,687
23:57:16.239,,1548,778,749
23:57:16.276,,1600,402,555
23:57:16.313,,1304,339,410
23:57:16.350,,1054,528,240
23:57:16.387,,858,596,42
23:57:16.424,,766,616,-15
23:57:16.461,,704,643,-54
23:57:16.498,,587,587,-101
23:57:16.535,,496,516,-121
23:57:16.572,,531,644,-48
23:57:16.609,,587,737,-66
23:57:16.646,,555,614,-184
23:57:16.683,,1291,944,59
23:57:16.720,,1244,686,-74
23:57:16.757,,1268,768,143
23:57:16.794,,1592,829,144
23:57:16.831,,1527,928,55
23:57:16.868,,1417,601,86
23:57:16.905,,1235,480,131
23:57:16.942,,1136,464,128
23:57:16.979,,965,397,110
23:57:17.016,,790,366,100
23:57:17.053,,636,330,112
23:57:17.090,,579,303,104
23:57:17.127,,629,312,90
23:57:17.164,,632,365,122
23:57:17.201,,609,413,220
23:57:17.238,,712,604,409
23:57:17.276,,903,730,512
23:57:17.313,,888,536,616
23:57:17.350,,1045,332,536
23:57:17.387,,1278,401,443
23:57:17.424,,1333,616,266
23:57:17.461,,1137,763,198
23:57:17.498,,938,766,158
23:57:17.535,,789,729,82
23:57:17.572,,710,633,1
23:57:17.609,,604,645,-13
23:57:17.646,,487,642,-32
23:57:17.683,,417,722,65
23:57:17.720,,698,825,76
23:57:17.757,,1100,817,129
23:57:17.794,,1361,776,122
23:57:17.831,,1068,618,113
23:57:17.868,,1157,692,207
23:57:17.905,,1292,779,227
23:57:17.942,,1337,755,188
23:57:17.979,,1254,561,178
23:57:18.016,,1125,475,168
23:57:18.053,,998,427,131
23:57:18.090,,799,419,79
23:57:18.127,,613,424,70
23:57:18.164,,516,440,60
23:57:18.201,,485,448,42
23:57:18.238,,488,450,35
23:57:18.275,,549,501,52
23:57:18.312,,557,573,117
23:57:18.349,,556,615,199
23:57:18.386,,712,684,287
23:57:18.423,,987,832,370
23:57:18.460,,955,809,555
23:57:18.497,,893,757,617
23:57:18.534,,906,644,469
23:57:18.571,,966,533,307
23:57:18.608,,952,601,265
23:57:18.645,,826,619,207
23:57:18.683,,710,648,183
23:57:18.720,,709,613,135
23:57:18.757,,725,557,94
23:57:18.794,,671,550,113
23:57:18.831,,617,574,159
23:57:18.868,,602,603,228
23:57:18.905,,602,597,252
23:57:18.942,,632,604,307
23:57:18.979,,691,537,276
23:57:19.016,,726,474,252
23:57:19.053,,698,459,256
23:57:19.090,,698,486,231
23:57:19.127,,835,551,199
23:57:19.164,,966,595,166
23:57:19.201,,956,541,106
23:57:19.238,,1074,564,103
23:57:19.275,,1131,616,152
23:57:19.312,,1113,590,151
23:57:19.349,,1071,507,152
23:57:19.386,,1012,452,157
23:57:19.423,,978,370,128
23:57:19.460,,968,355,105
23:57:19.497,,895,393,92
23:57:19.534,,828,400,81
23:57:19.571,,811,423,33
23:57:19.608,,785,441,-12
23:57:19.645,,711,513,-6
23:57:19.682,,636,538,3
23:57:19.719,,595,428,-10
23:57:19.756,,619,470,-58
23:57:19.793,,711,558,-163
23:57:19.830,,907,817,-204
23:57:19.867,,958,828,-221
23:57:19.904,,818,696,-133
23:57:19.942,,817,560,-95
23:57:19.979,,862,520,-96
23:57:20.016,,852,581,-93
23:57:20.053,,814,640,-68
23:57:20.090,,818,639,-40
23:57:20.127,,828,602,-15
23:57:20.164,,843,533,-3
23:57:20.201,,871,473,5
23:57:20.238,,922,442,14
23:57:20.275,,942,438,11
23:57:20.312,,934,442,29
23:57:20.349,,915,441,44
23:57:20.386,,892,438,77
23:57:20.423,,853,441,116
23:57:20.460,,831,446,148
23:57:20.497,,766,437,193
23:57:20.534,,757,453,247
23:57:20.571,,827,517,315
23:57:20.608,,794,490,331
23:57:20.645,,748,457,297
23:57:20.682,,748,468,260
23:57:20.719,,720,520,274
23:57:20.756,,719,529,284
23:57:20.793,,729,532,294
23:57:20.830,,712,567,270
23:57:20.867,,694,453,264
23:57:20.904,,699,419,200
23:57:20.941,,699,433,160
23:57:20.978,,695,458,167
23:57:21.015,,657,479,185
23:57:21.052,,737,511,205
23:57:21.089,,1075,658,247
23:57:21.126,,1143,646,159
23:57:21.163,,853,570,146
23:57:21.200,,725,619,293
23:57:21.237,,758,620,208
23:57:21.274,,893,649,164
23:57:21.311,,1038,595,154
23:57:21.348,,1000,519,167
23:57:21.386,,926,459,176
23:57:21.423,,872,504,178
23:57:21.460,,851,531,157
23:57:21.497,,817,513,132
23:57:21.534,,751,498,120
23:57:21.571,,695,498,118
23:57:21.608,,699,510,99
23:57:21.645,,729,542,118
23:57:21.682,,689,526,134
23:57:21.719,,687,531,136
23:57:21.756,,867,604,143
23:57:21.793,,1066,667,159
23:57:21.830,,879,683,252
23:57:21.867,,766,702,348
23:57:21.904,,772,570,260
23:57:21.941,,822,467,173
23:57:21.978,,816,537,215
23:57:22.015,,781,580,230
23:57:22.052,,696,547,219
23:57:22.089,,659,501,192
23:57:22.126,,677,517,191
23:57:22.163,,663,545,225
23:57:22.200,,597,557,252
23:57:22.237,,596,589,300
23:57:22.274,,537,559,306
23:57:22.311,,596,540,295
23:57:22.348,,764,580,267
23:57:22.385,,681,558,235
23:57:22.422,,834,626,246
23:57:22.459,,1222,728,201
23:57:22.496,,1182,607,106
23:57:22.533,,876,511,84
23:57:22.570,,851,577,152
23:57:22.607,,990,657,106
23:57:22.644,,1043,591,65
23:57:22.681,,948,530,77
23:57:22.718,,899,462,85
23:57:22.756,,890,500,70
23:57:22.793,,845,539,59
23:57:22.830,,752,516,61
23:57:22.867,,676,496,70
23:57:22.904,,645,476,61
23:57:22.941,,631,489,54
23:57:22.978,,607,516,83
23:57:23.015,,595,586,176
23:57:23.052,,724,631,249
23:57:23.089,,904,632,266
23:57:23.126,,977,638,311
23:57:23.163,,876,659,400
23:57:23.200,,807,671,426
23:57:23.237,,789,547,351
23:57:23.274,,820,450,266
23:57:23.311,,896,499,273
23:57:23.348,,839,526,236
23:57:23.385,,721,549,242
23:57:23.422,,676,519,198
23:57:23.459,,654,505,168
23:57:23.496,,627,513,182
23:57:23.533,,588,570,206
23:57:23.570,,546,584,238
23:57:23.607,,542,640,319
23:57:23.644,,643,683,351
23:57:23.681,,800,606,284
23:57:23.718,,874,487,236
23:57:23.755,,1072,694,338
23:57:23.792,,1084,720,231
23:57:23.829,,834,576,170
23:57:23.866,,805,593,182
23:57:23.903,,919,630,92
23:57:23.940,,1074,654,66
23:57:23.977,,1117,633,61
23:57:24.015,,1078,532,41
23:57:24.052,,1033,446,76
23:57:24.089,,1041,480,92
23:57:24.126,,998,541,74
23:57:24.163,,842,524,64
23:57:24.200,,649,466,102
23:57:24.237,,490,442,161
23:57:24.274,,390,414,184
23:57:24.311,,350,371,196
23:57:24.348,,358,422,266
23:57:24.385,,537,525,387
23:57:24.422,,970,605,383
23:57:24.459,,1310,543,333
23:57:24.496,,1195,588,372
23:57:24.533,,1192,700,480
23:57:24.570,,1202,627,308
23:57:24.607,,1033,455,143
23:57:24.644,,933,431,109
23:57:24.681,,802,497,29
23:57:24.718,,711,455,-35
23:57:24.755,,630,506,-10
23:57:24.792,,617,491,0
23:57:24.829,,597,492,58
23:57:24.866,,576,495,117
23:57:24.903,,625,545,158
23:57:24.940,,857,612,169
23:57:24.977,,932,604,145
23:57:25.014,,1111,704,259
23:57:25.051,,1159,716,231
23:57:25.088,,1015,608,100
23:57:25.125,,1084,615,139
23:57:25.162,,1289,722,181
23:57:25.199,,1286,593,99
23:57:25.236,,1094,393,15
23:57:25.273,,933,401,2
23:57:25.311,,911,432,-6
23:57:25.348,,915,421,-19
23:57:25.385,,873,404,-47
23:57:25.422,,805,400,-41
23:57:25.459,,758,396,-25
23:57:25.496,,735,347,-38
23:57:25.533,,697,336,-38
23:57:25.570,,707,451,33
23:57:25.607,,997,672,39
23:57:25.644,,1030,788,111
23:57:25.681,,797,836,445
23:57:25.718,,860,703,368
23:57:25.755,,1059,680,268
23:57:25.792,,899,455,460
23:57:25.829,,659,702,361
23:57:25.866,,444,1075,532
23:57:25.903,,264,1154,482
23:57:25.940,,394,731,-197
23:57:25.977,,242,874,-14
23:57:26.014,,231,712,-59
23:57:26.051,,256,705,26
23:57:26.088,,261,699,209
23:57:26.125,,494,703,159
23:57:26.162,,815,783,297
23:57:26.199,,1072,900,-49
23:57:26.236,,815,1060,-305
23:57:26.273,,770,743,-144
23:57:26.310,,826,878,33
23:57:26.347,,785,708,108
23:57:26.384,,649,472,8
23:57:26.421,,589,324,-68
23:57:26.458,,545,709,-58
23:57:26.495,,421,749,-36
23:57:26.532,,347,777,28
23:57:26.569,,379,705,56
23:57:26.607,,574,648,0
23:57:26.644,,729,489,-59
23:57:26.681,,1063,649,-149
23:57:26.718,,1215,972,62
23:57:26.755,,1013,628,-74
23:57:26.792,,953,181,85
23:57:26.829,,927,153,152
23:57:26.866,,973,241,-112
23:57:26.903,,950,604,84
23:57:26.940,,908,386,266
23:57:26.977,,838,71,338
23:57:27.014,,768,255,359
23:57:27.051,,739,250,-14
23:57:27.088,,654,306,-81
23:57:27.125,,565,351,-113
23:57:27.162,,608,586,97
23:57:27.199,,1019,599,79
23:57:27.236,,945,644,203
23:57:27.273,,1013,417,350
23:57:27.310,,1306,488,285
23:57:27.347,,1160,359,98
23:57:27.384,,1166,302,-202
23:57:27.421,,1345,361,-663
23:57:27.458,,1094,89,-702
23:57:27.495,,704,33,-343
23:57:27.532,,688,251,-127
23:57:27.569,,632,371,-32
23:57:27.606,,584,482,182
23:57:27.643,,572,399,-122
23:57:27.680,,684,249,-69
23:57:27.717,,880,483,-190
23:57:27.754,,1083,367,-118
23:57:27.791,,1088,248,-46
23:57:27.828,,1235,502,-199
23:57:27.865,,1162,203,-277
23:57:27.903,,903,-34,-63
23:57:27.940,,1182,-84,150
23:57:27.977,,1437,278,-123
23:57:28.014,,1103,263,0
23:57:28.051,,794,172,21
23:57:28.088,,672,277,-43
23:57:28.125,,632,194,-1
23:57:28.162,,608,318,-81
23:57:28.199,,478,408,-44
23:57:28.236,,605,299,134
23:57:28.273,,869,462,45
23:57:28.310,,1089,644,-101
23:57:28.347,,1547,659,74
23:57:28.384,,1224,483,-302
23:57:28.421,,903,105,-230
23:57:28.458,,1019,27,-147
23:57:28.495,,1150,271,-419
23:57:28.532,,1066,301,-520
23:57:28.569,,968,94,-306
23:57:28.606,,805,99,-80
23:57:28.643,,572,289,-125
23:57:28.680,,577,302,-137
23:57:28.717,,652,513,-168
23:57:28.754,,784,480,-91
23:57:28.791,,937,409,-53
23:57:28.828,,1017,606,44
23:57:28.865,,1327,597,-422
23:57:28.902,,1111,179,-260
23:57:28.939,,1038,114,-45
23:57:28.976,,1202,29,-208
23:57:29.013,,963,148,-142
23:57:29.050,,773,388,17
23:57:29.087,,650,543,65
23:57:29.124,,700,476,63
23:57:29.161,,758,418,95
23:57:29.198,,759,610,113
23:57:29.235,,570,663,333
23:57:29.273,,577,517,475
23:57:29.310,,780,773,410
23:57:29.347,,907,1181,133
23:57:29.384,,979,1396,-82
23:57:29.421,,911,1267,-108
23:57:29.458,,782,1311,313
23:57:29.495,,885,1388,525
23:57:29.532,,958,1389,382
23:57:29.569,,861,1602,269
23:57:29.606,,847,1616,149
23:57:29.643,,739,1405,137
23:57:29.680,,561,1136,112
23:57:29.717,,285,788,88
23:57:29.754,,12,526,45
23:57:29.791,,-168,242,62
23:57:29.828,,-283,38,230
23:57:29.865,,-518,-13,289
23:57:29.902,,-637,20,532
23:57:29.939,,-658,-21,494
23:57:29.976,,-746,153,718
23:57:30.013,,-728,-41,589
23:57:30.050,,-881,-28,688
23:57:30.087,,-918,-87,703
23:57:30.124,,-818,-116,494
23:57:30.161,,-707,-90,408
23:57:30.198,,-723,-121,393
23:57:30.235,,-816,-83,356
23:57:30.272,,-819,-10,364
23:57:30.309,,-828,77,352
23:57:30.346,,-834,-20,330
23:57:30.383,,-773,-83,278
23:57:30.420,,-901,-138,170
23:57:30.457,,-1016,-65,193
23:57:30.495,,-1250,-165,156
23:57:30.532,,-1478,-314,25
23:57:30.569,,-1467,-231,-32
23:57:30.606,,-1247,71,-38
23:57:30.643,,-1008,184,-111
23:57:30.680,,-856,221,-81
23:57:30.717,,-683,207,-14
23:57:30.754,,-642,-32,-81
23:57:30.791,,-690,-77,-2
23:57:30.828,,-866,-115,-47
23:57:30.865,,-1034,-221,-52
23:57:30.902,,-1302,72,11
23:57:30.939,,-1596,-7,41
23:57:30.976,,-1330,-47,296
23:57:31.013,,-1041,95,454
23:57:31.050,,-1049,313,405
23:57:31.087,,-1011,266,233
23:57:31.124,,-1064,139,241
23:57:31.161,,-911,-94,197
23:57:31.198,,-751,-185,245
23:57:31.235,,-656,-216,307
23:57:31.272,,-692,-224,374
23:57:31.309,,-687,-250,442
23:57:31.346,,-693,-200,491
23:57:31.383,,-905,-236,451
23:57:31.420,,-923,-335,438
23:57:31.457,,-865,-219,467
23:57:31.494,,-997,-381,458
23:57:31.531,,-1016,-449,319
23:57:31.568,,-1034,-483,120
23:57:31.605,,-1104,-418,59
23:57:31.642,,-994,-317,95
23:57:31.679,,-883,72,467
23:57:31.717,,-832,-42,635
23:57:31.754,,-880,91,427
23:57:31.791,,-1108,73,385
23:57:31.828,,-1238,-71,18
23:57:31.865,,-1194,38,-110
23:57:31.902,,-1091,-82,-93
23:57:31.939,,-934,-204,-118
23:57:31.976,,-855,-280,52
23:57:32.013,,-848,-453,231
23:57:32.050,,-902,-489,332
23:57:32.087,,-1050,-186,412
23:57:32.124,,-1038,-377,373
23:57:32.161,,-976,-162,563
23:57:32.198,,-955,-137,490
23:57:32.235,,-969,-220,377
23:57:32.272,,-849,-315,281
23:57:32.309,,-719,-555,200
23:57:32.346,,-668,-517,163
23:57:32.383,,-637,-466,182
23:57:32.420,,-652,-436,231
23:57:32.457,,-753,-429,231
23:57:32.494,,-830,-455,297
23:57:32.531,,-904,-463,308
23:57:32.568,,-1066,-379,333
23:57:32.605,,-1064,-584,279
23:57:32.642,,-999,-579,47
23:57:32.679,,-1081,-452,-143
23:57:32.716,,-1089,-472,9
23:57:32.753,,-1070,-322,208
23:57:32.790,,-921,-286,264
23:57:32.827,,-781,-368,243
23:57:32.864,,-744,-288,216
23:57:32.901,,-777,-276,111
23:57:32.938,,-795,-301,114
23:57:32.976,,-908,-275,86
23:57:33.013,,-969,-286,109
23:57:33.050,,-992,-366,84
23:57:33.087,,-1086,-387,89
23:57:33.124,,-1197,-427,213
23:57:33.161,,-1151,-555,427
23:57:33.198,,-951,-596,387
23:57:33.235,,-855,-490,358
23:57:33.272,,-848,-293,357
23:57:33.309,,-829,-294,362
23:57:33.346,,-859,-351,285
23:57:33.383,,-847,-437,244
23:57:33.420,,-795,-482,212
23:57:33.457,,-700,-452,228
23:57:33.494,,-670,-430,234
23:57:33.531,,-663,-458,299
23:57:33.568,,-716,-498,290
23:57:33.605,,-824,-466,338
23:57:33.642,,-871,-441,381
23:57:33.679,,-919,-514,357
23:57:33.716,,-1034,-624,326
23:57:33.753,,-1022,-639,146
23:57:33.790,,-1091,-424,-82
23:57:33.827,,-1144,-267,-39
23:57:33.864,,-1078,-335,1
23:57:33.901,,-985,-399,47
23:57:33.938,,-918,-361,98
23:57:33.975,,-814,-244,96
23:57:34.012,,-759,-177,49
23:57:34.049,,-799,-162,74
23:57:34.086,,-822,-224,-11
23:57:34.123,,-937,-299,29
23:57:34.161,,-1012,-376,130
23:57:34.198,,-1083,-470,116
23:57:34.235,,-1187,-523,159
23:57:34.272,,-1166,-543,380
23:57:34.309,,-970,-590,426
23:57:34.346,,-831,-465,364
23:57:34.383,,-856,-357,398
23:57:34.420,,-859,-333,434
23:57:34.457,,-821,-384,360
23:57:34.494,,-806,-527,275
23:57:34.531,,-737,-514,197
23:57:34.568,,-638,-425,237
23:57:34.605,,-601,-409,350
23:57:34.642,,-618,-455,337
23:57:34.679,,-715,-516,324
23:57:34.716,,-836,-519,364
23:57:34.753,,-831,-521,408
23:57:34.790,,-917,-542,404
23:57:34.827,,-1091,-649,382
23:57:34.864,,-1019,-657,122
23:57:34.901,,-990,-522,-105
23:57:34.938,,-1008,-422,-16
23:57:34.975,,-989,-351,163
23:57:35.012,,-903,-395,273
23:57:35.049,,-852,-432,322
23:57:35.086,,-775,-331,271
23:57:35.123,,-705,-247,206
23:57:35.160,,-704,-210,208
23:57:35.197,,-835,-249,112
23:57:35.234,,-917,-356,85
23:57:35.271,,-952,-429,76
23:57:35.308,,-1013,-547,143
23:57:35.345,,-1183,-471,239
23:57:35.382,,-1174,-478,384
23:57:35.419,,-1092,-434,434
23:57:35.457,,-1019,-421,422
23:57:35.494,,-890,-384,393
23:57:35.531,,-824,-313,424
23:57:35.568,,-856,-295,351
23:57:35.605,,-855,-328,250
23:57:35.642,,-804,-449,211
23:57:35.679,,-808,-350,252
23:57:35.716,,-724,-487,239
23:57:35.753,,-676,-490,333
23:57:35.790,,-744,-244,426
23:57:35.827,,-798,-354,358
23:57:35.864,,-913,-274,473
23:57:35.901,,-871,-346,468
23:57:35.938,,-1061,-449,346
23:57:35.975,,-1051,-471,345
23:57:36.012,,-1064,-433,184
23:57:36.049,,-1086,-382,34
23:57:36.086,,-1093,-386,92
23:57:36.123,,-1058,-287,377
23:57:36.160,,-911,-308,434
23:57:36.197,,-742,-331,315
23:57:36.234,,-632,-206,240
23:57:36.271,,-610,-215,155
23:57:36.308,,-682,-167,182
23:57:36.345,,-703,-257,172
23:57:36.382,,-662,-491,79
23:57:36.419,,-684,-476,250
23:57:36.456,,-536,-464,213
23:57:36.493,,-382,-34,480
23:57:36.530,,-247,254,717
23:57:36.567,,-106,356,691
23:57:36.604,,39,760,800
23:57:36.641,,239,734,896
23:57:36.678,,664,447,556
23:57:36.715,,1101,786,356
23:57:36.752,,1356,966,137
23:57:36.789,,1469,1221,-175
23:57:36.826,,1861,1227,-457
23:57:36.863,,1441,1513,-476
23:57:36.900,,714,1049,-336
23:57:36.937,,689,915,-61
23:57:36.974,,759,1041,-99
23:57:37.011,,632,896,-255
23:57:37.049,,768,893,-165
23:57:37.086,,978,921,-225
23:57:37.123,,867,909,-178
23:57:37.160,,1011,984,-156
23:57:37.197,,1175,989,-158
23:57:37.234,,1198,826,-94
23:57:37.271,,1157,678,-1
23:57:37.308,,1146,649,51
23:57:37.345,,1137,626,36
23:57:37.382,,1056,566,49
23:57:37.419,,912,441,77
23:57:37.456,,730,349,116
23:57:37.493,,626,291,147
23:57:37.530,,607,247,161
23:57:37.567,,515,171,171
23:57:37.604,,678,382,267
23:57:37.641,,779,401,319
23:57:37.678,,720,417,367
23:57:37.715,,1100,557,389
23:57:37.752,,1481,606,273
23:57:37.789,,1597,651,118
23:57:37.826,,1434,766,73
23:57:37.863,,1093,817,-68
23:57:37.900,,848,881,-55
23:57:37.937,,759,856,-57
23:57:37.974,,633,840,-134
23:57:38.011,,480,801,-159
23:57:38.048,,404,847,-102
23:57:38.085,,604,819,-207
23:57:38.122,,624,756,-181
23:57:38.159,,1003,946,-143
23:57:38.196,,969,841,-200
23:57:38.233,,1113,839,-108
23:57:38.270,,1509,1011,-93
23:57:38.307,,1629,978,-144
23:57:38.345,,1588,764,-92
23:57:38.382,,1389,593,-27
23:57:38.419,,1213,512,0
23:57:38.456,,1048,493,35
23:57:38.493,,873,464,91
23:57:38.530,,712,405,99
23:57:38.567,,644,406,165
23:57:38.604,,615,392,210
23:57:38.641,,530,270,216
23:57:38.678,,421,297,365
23:57:38.715,,506,343,461
23:57:38.752,,507,268,528
23:57:38.789,,648,338,558
23:57:38.826,,920,442,492
23:57:38.863,,1178,503,361
23:57:38.900,,1349,623,178
23:57:38.937,,1327,769,41
23:57:38.974,,1152,877,-5
23:57:39.011,,989,888,-48
23:57:39.048,,870,875,-57
23:57:39.085,,765,831,-84
23:57:39.122,,609,825,-77
23:57:39.159,,466,881,-8
23:57:39.196,,553,949,-37
23:57:39.233,,605,896,-121
23:57:39.270,,740,923,-71
23:57:39.307,,1144,1039,-169
23:57:39.344,,1068,893,-181
23:57:39.381,,1223,940,-173
23:57:39.418,,1493,1029,-290
23:57:39.455,,1586,940,-351
23:57:39.492,,1680,819,-333
23:57:39.529,,1639,1007,-243
23:57:39.566,,1583,1146,-266
23:57:39.603,,984,911,-174
23:57:39.640,,575,797,-134
23:57:39.677,,240,748,-68
23:57:39.715,,-36,589,-59
23:57:39.752,,-302,494,-55
23:57:39.789,,-441,447,-14
23:57:39.826,,-699,616,-33
23:57:39.863,,-651,571,120
23:57:39.900,,-583,853,101
23:57:39.937,,-558,410,155
23:57:39.974,,-561,453,153
23:57:40.011,,-604,395,330
23:57:40.048,,-520,394,278
23:57:40.085,,-508,273,268
23:57:40.122,,-574,231,327
23:57:40.159,,-704,289,131
23:57:40.196,,-942,413,132
23:57:40.233,,-1001,589,163
23:57:40.270,,-926,536,101
23:57:40.307,,-867,425,-13
23:57:40.344,,-934,416,27
23:57:40.381,,-1152,555,145
23:57:40.418,,-1012,345,347
23:57:40.455,,-989,-31,319
23:57:40.492,,-1130,-123,129
23:57:40.529,,-1135,171,50
23:57:40.566,,-1032,466,96
23:57:40.603,,-839,400,60
23:57:40.640,,-675,303,65
23:57:40.677,,-595,284,-12
23:57:40.714,,-763,220,-265
23:57:40.751,,-856,229,-93
23:57:40.788,,-961,267,-29
23:57:40.825,,-991,369,53
23:57:40.862,,-1153,482,79
23:57:40.899,,-1363,421,-373
23:57:40.936,,-1202,620,-359
23:57:40.973,,-879,831,-306
23:57:41.010,,-804,650,-458
23:57:41.047,,-863,503,-413
23:57:41.084,,-734,348,-200
23:57:41.121,,-609,362,9
23:57:41.159,,-571,284,-5
23:57:41.196,,-423,335,-32
23:57:41.233,,-132,248,-184
23:57:41.270,,90,500,95
23:57:41.307,,99,538,-120
23:57:41.344,,-184,589,-314
23:57:41.381,,-288,502,-262
23:57:41.418,,-177,318,-519
23:57:41.455,,-248,567,-805
23:57:41.492,,-229,921,-795
23:57:41.529,,225,1929,-1286
23:57:41.566,,329,1989,-1414
23:57:41.603,,38,1997,-799
23:57:41.640,,101,1789,-376
23:57:41.677,,103,1295,-74
23:57:41.714,,75,1158,187
23:57:41.751,,160,1122,266
23:57:41.788,,100,969,124
23:57:41.825,,207,81,-55
23:57:41.862,,225,51,129
23:57:41.899,,305,133,112
23:57:41.936,,644,324,34
23:57:41.973,,939,813,112
23:57:42.010,,932,942,261
23:57:42.047,,1286,1019,423
23:57:42.084,,1806,1018,198
23:57:42.121,,1349,857,130
23:57:42.158,,1002,140,133
23:57:42.195,,923,369,114
23:57:42.232,,766,783,16
23:57:42.269,,593,813,89
23:57:42.306,,515,828,61
23:57:42.343,,393,789,48
23:57:42.380,,371,783,74
23:57:42.417,,513,740,-81
23:57:42.454,,642,552,-81
23:57:42.491,,1131,833,-6
23:57:42.528,,1542,663,-157
23:57:42.566,,1973,828,-98
23:57:42.603,,1968,715,-71
23:57:42.640,,1564,600,207
23:57:42.677,,1236,447,328
23:57:42.714,,975,331,318
23:57:42.751,,808,240,295
23:57:42.788,,573,245,273
23:57:42.825,,379,90,167
23:57:42.862,,281,-134,-27
23:57:42.899,,296,-55,-236
23:57:42.936,,435,74,-461
23:57:42.973,,710,464,-1166
23:57:43.010,,365,1061,-1693
23:57:43.047,,1200,371,-1263
23:57:43.084,,794,542,-1407
23:57:43.121,,601,202,-1277
23:57:43.158,,343,360,-657
23:57:43.195,,274,422,-513
23:57:43.232,,289,143,-256
23:57:43.269,,108,461,-35
23:57:43.306,,349,24,-844
23:57:43.343,,453,13,-698
23:57:43.380,,576,30,-1016
23:57:43.417,,649,-58,-1176
23:57:43.454,,669,-129,-1040
23:57:43.491,,808,-75,-1032
23:57:43.528,,693,-62,-900
23:57:43.565,,764,-62,-835
23:57:43.602,,997,-19,-1053
23:57:43.639,,1044,271,-1107
23:57:43.676,,933,610,-895
23:57:43.713,,745,686,-966
23:57:43.750,,432,937,-863
23:57:43.787,,306,859,-576
23:57:43.824,,277,323,-313
23:57:43.861,,202,-203,-195
23:57:43.898,,304,-349,-180
23:57:43.935,,550,-208,-328
23:57:43.972,,606,-143,-540
23:57:44.009,,947,130,-546
23:57:44.046,,1144,646,-381
23:57:44.083,,1230,1248,60
23:57:44.121,,1580,1508,194
23:57:44.158,,1429,290,-280
23:57:44.195,,1045,89,429
23:57:44.232,,855,127,475
23:57:44.269,,701,669,377
23:57:44.306,,554,1062,350
23:57:44.343,,396,944,311
23:57:44.380,,293,687,251
23:57:44.417,,446,610,162
23:57:44.454,,685,650,27
23:57:44.491,,829,721,-7
23:57:44.528,,1507,944,32
23:57:44.565,,1256,643,-70
23:57:44.602,,1501,599,8
23:57:44.639,,1725,810,-142
23:57:44.676,,1343,826,-72
23:57:44.713,,1089,608,44
23:57:44.750,,916,606,116
23:57:44.787,,880,484,140
23:57:44.824,,794,337,173
23:57:44.861,,633,271,160
23:57:44.898,,556,241,126
23:57:44.935,,500,282,86
23:57:44.972,,294,227,89
23:57:45.009,,473,363,-6
23:57:45.046,,606,537,218
23:57:45.083,,763,794,516
23:57:45.120,,1150,917,505
23:57:45.157,,1385,842,301
23:57:45.194,,1251,414,383
23:57:45.231,,928,489,434
23:57:45.268,,757,615,400
23:57:45.305,,630,661,274
23:57:45.342,,555,616,278
23:57:45.379,,493,598,305
23:57:45.416,,353,564,289
23:57:45.453,,452,544,183
23:57:45.490,,792,695,23
23:57:45.527,,679,654,-133
23:57:45.564,,1175,796,133
23:57:45.602,,1274,770,99
23:57:45.639,,1486,859,-31
23:57:45.676,,1885,850,-108
23:57:45.713,,1491,782,26
23:57:45.750,,1057,655,216
23:57:45.787,,845,507,214
23:57:45.824,,818,499,219
23:57:45.861,,734,391,215
23:57:45.898,,533,283,168
23:57:45.935,,353,289,167
23:57:45.972,,195,397,122
23:57:46.009,,142,457,117
23:57:46.046,,222,517,129
23:57:46.083,,401,517,175
23:57:46.120,,736,596,222
23:57:46.157,,1127,790,241
23:57:46.194,,1185,756,344
23:57:46.231,,1188,659,423
23:57:46.268,,1368,527,282
23:57:46.305,,1163,484,219
23:57:46.342,,887,462,172
23:57:46.379,,676,411,71
23:57:46.416,,669,482,22
23:57:46.453,,675,596,16
23:57:46.490,,678,671,60
23:57:46.527,,615,671,76
23:57:46.564,,452,661,91
23:57:46.601,,571,750,158
23:57:46.638,,789,741,-28
23:57:46.675,,1143,798,13
23:57:46.712,,1144,732,206
23:57:46.749,,1197,765,70
23:57:46.786,,1438,848,0
23:57:46.823,,1446,772,25
23:57:46.860,,1213,570,52
23:57:46.897,,1049,533,52
23:57:46.934,,987,486,16
23:57:46.971,,918,435,-33
23:57:47.008,,855,437,-3
23:57:47.045,,780,432,4
23:57:47.082,,750,434,15
23:57:47.119,,745,433,57
23:57:47.156,,787,355,84
23:57:47.194,,768,293,149
23:57:47.231,,940,423,283
23:57:47.268,,865,496,385
23:57:47.305,,671,416,454
23:57:47.342,,912,385,409
23:57:47.379,,1192,498,343
23:57:47.416,,1035,470,311
23:57:47.453,,925,507,278
23:57:47.490,,885,576,223
23:57:47.527,,868,617,112
23:57:47.564,,851,672,119
23:57:47.601,,769,708,110
23:57:47.638,,534,752,128
23:57:47.675,,536,802,151
23:57:47.712,,744,874,15
23:57:47.749,,722,699,-43
23:57:47.786,,1234,955,96
23:57:47.823,,1141,824,-113
23:57:47.860,,1443,978,-102
23:57:47.897,,1556,882,16
23:57:47.934,,1357,722,40
23:57:47.971,,1243,648,28
23:57:48.008,,1085,517,-26
23:57:48.045,,966,441,-52
23:57:48.082,,854,491,-77
23:57:48.119,,751,452,-162
23:57:48.156,,661,470,25
23:57:48.193,,616,304,-50
23:57:48.230,,538,217,-126
23:57:48.267,,551,79,-170
23:57:48.304,,566,129,-209
23:57:48.341,,967,434,-538
23:57:48.378,,773,1510,-326
23:57:48.415,,862,1159,-20
23:57:48.452,,1274,997,-306
23:57:48.489,,1394,1067,-444
23:57:48.527,,1216,873,-335
23:57:48.564,,998,805,-386
23:57:48.601,,852,714,-420
23:57:48.638,,776,560,-348
23:57:48.675,,704,536,-290
23:57:48.712,,528,608,-231
23:57:48.749,,339,661,-144
23:57:48.786,,426,698,-186
23:57:48.823,,443,606,-321
23:57:48.860,,899,771,-177
23:57:48.897,,1404,846,-299
23:57:48.934,,1574,810,-292
23:57:48.971,,1800,846,-148
23:57:49.008,,1592,922,-190
23:57:49.045,,1321,420,-234
23:57:49.082,,962,467,-130
23:57:49.119,,791,592,-411
23:57:49.156,,540,730,-239
23:57:49.193,,531,523,-281
23:57:49.230,,450,255,-186
23:57:49.267,,480,225,-169
23:57:49.304,,502,226,-146
23:57:49.341,,484,286,-187
23:57:49.378,,721,564,-199
23:57:49.415,,866,854,-281
23:57:49.452,,876,1148,-135
23:57:49.489,,1109,1016,-147
23:57:49.526,,1421,441,-222
23:57:49.563,,1329,39,147
23:57:49.600,,1243,97,219
23:57:49.637,,1079,534,69
23:57:49.674,,867,864,0
23:57:49.711,,737,909,34
23:57:49.748,,597,863,34
23:57:49.786,,500,717,51
23:57:49.823,,461,680,83
23:57:49.860,,676,793,-46
23:57:49.897,,727,785,-119
23:57:49.934,,1245,966,18
23:57:49.971,,1155,869,-147
23:57:50.008,,1291,953,-170
23:57:50.045,,1529,1030,-246
23:57:50.082,,1649,1048,-266
23:57:50.119,,1616,1186,-167
23:57:50.156,,1597,1350,-133
23:57:50.193,,1466,1171,-74
23:57:50.230,,1172,914,28
23:57:50.267,,833,668,37
23:57:50.304,,502,491,47
23:57:50.341,,107,662,200
23:57:50.378,,-203,580,264
23:57:50.415,,-477,665,357
23:57:50.452,,-720,454,319
23:57:50.489,,-796,-136,345
23:57:50.526,,-633,-294,316
23:57:50.563,,-617,-213,305
23:57:50.600,,-636,-186,310
23:57:50.637,,-593,-279,301
23:57:50.674,,-454,-421,230
23:57:50.711,,-579,-537,215
23:57:50.748,,-732,-363,223
23:57:50.785,,-782,-220,300
23:57:50.822,,-768,-340,344
23:57:50.859,,-780,-460,310
23:57:50.896,,-822,-603,202
23:57:50.933,,-877,-596,119
23:57:50.971,,-1056,-688,91
23:57:51.007,,-1073,-786,62
23:57:51.045,,-1041,-680,-124
23:57:51.082,,-1023,-493,-213
23:57:51.119,,-949,-422,-90
23:57:51.156,,-841,-427,78
23:57:51.193,,-837,-407,301
23:57:51.230,,-817,-404,211
23:57:51.267,,-758,-307,135
23:57:51.304,,-717,-295,83
23:57:51.341,,-795,-356,56
23:57:51.378,,-882,-411,29
23:57:51.415,,-983,-475,-51
23:57:51.452,,-1053,-517,-48
23:57:51.489,,-1142,-559,74
23:57:51.526,,-1136,-671,146
23:57:51.563,,-1023,-653,310
23:57:51.600,,-836,-751,273
23:57:51.637,,-821,-539,303
23:57:51.674,,-830,-526,276
23:57:51.711,,-734,-671,136
23:57:51.748,,-725,-572,152
23:57:51.785,,-742,-424,265
23:57:51.822,,-641,-498,140
23:57:51.859,,-588,-540,66
23:57:51.896,,-648,-505,78
23:57:51.933,,-714,-533,140
23:57:51.970,,-735,-634,219
23:57:52.007,,-831,-628,237
23:57:52.044,,-898,-628,234
23:57:52.081,,-1030,-672,291
23:57:52.118,,-968,-737,268
23:57:52.155,,-963,-651,52
23:57:52.192,,-1028,-452,-32
23:57:52.229,,-957,-416,131
23:57:52.266,,-818,-473,334
23:57:52.303,,-756,-469,281
23:57:52.341,,-698,-396,178
23:57:52.378,,-701,-282,123
23:57:52.415,,-777,-265,80
23:57:52.452,,-806,-389,68
23:57:52.489,,-901,-376,88
23:57:52.526,,-1005,-379,99
23:57:52.563,,-1097,-434,213
23:57:52.600,,-1165,-512,444
23:57:52.637,,-1118,-526,634
23:57:52.674,,-978,-494,722
23:57:52.711,,-770,-489,673
23:57:52.748,,-770,-312,598
23:57:52.785,,-817,-223,560
23:57:52.822,,-592,-359,367
23:57:52.859,,-216,-541,150
23:57:52.896,,-262,-354,318
23:57:52.933,,-271,-182,334
23:57:52.970,,-339,-160,265
23:57:53.007,,-415,-74,318
23:57:53.044,,-505,-83,455
23:57:53.081,,-796,9,390
23:57:53.118,,-989,548,367
23:57:53.155,,-1060,652,119
23:57:53.192,,-1185,1158,170
23:57:53.229,,-1047,1258,292
23:57:53.266,,-927,1162,191
23:57:53.303,,-804,1633,427
23:57:53.340,,-545,1668,630
23:57:53.377,,-279,1333,735
23:57:53.414,,-156,822,568
23:57:53.451,,0,252,360
23:57:53.488,,-228,326,497
23:57:53.525,,-293,424,367
23:57:53.563,,-292,370,252
23:57:53.600,,-260,121,96
23:57:53.637,,-119,-53,-137
23:57:53.674,,0,23,-293
23:57:53.711,,325,94,-542
23:57:53.748,,850,1266,-1090
23:57:53.785,,585,1591,-1126
23:57:53.822,,1062,1416,-207
23:57:53.859,,1709,963,-635
23:57:53.896,,1827,668,-636
23:57:53.933,,1316,959,-404
23:57:53.970,,861,881,-175
23:57:54.007,,703,764,-156
23:57:54.044,,669,776,-247
23:57:54.081,,575,802,-298
23:57:54.118,,431,718,-242
23:57:54.155,,391,749,-206
23:57:54.192,,528,905,-209
23:57:54.229,,527,808,-281
23:57:54.266,,831,950,-136
23:57:54.303,,1158,947,-214
23:57:54.340,,1345,899,-278
23:57:54.377,,1611,1028,-289
23:57:54.414,,1700,1038,-410
23:57:54.451,,1601,1173,-406
23:57:54.488,,1417,1218,-362
23:57:54.525,,1188,1339,-280
23:57:54.562,,934,1121,-181
23:57:54.599,,646,981,-130
23:57:54.636,,423,873,-9
23:57:54.673,,193,682,33
23:57:54.710,,-44,539,-109
23:57:54.747,,-254,332,124
23:57:54.784,,-541,168,119
23:57:54.821,,-782,126,199
23:57:54.859,,-611,9,410
23:57:54.896,,-588,-131,572
23:57:54.933,,-640,-117,545
23:57:54.970,,-611,-88,610
23:57:55.007,,-660,-199,750
23:57:55.044,,-730,-213,529
23:57:55.081,,-813,-329,390
23:57:55.118,,-728,-416,345
23:57:55.155,,-650,-410,396
23:57:55.192,,-662,-347,498
23:57:55.229,,-747,-243,535
23:57:55.266,,-792,-316,373
23:57:55.303,,-903,-321,221
23:57:55.340,,-999,-440,146
23:57:55.377,,-1171,-554,48
23:57:55.414,,-964,-572,-45
23:57:55.451,,-1041,-559,-217
23:57:55.488,,-1148,-469,-205
23:57:55.525,,-1090,-456,-87
23:57:55.562,,-924,-349,107
23:57:55.599,,-853,-266,126
23:57:55.636,,-795,-234,19
23:57:55.673,,-796,-172,18
23:57:55.710,,-856,-237,-4
23:57:55.747,,-917,-230,75
23:57:55.784,,-909,-255,55
23:57:55.821,,-987,-339,-29
23:57:55.858,,-1056,-352,132
23:57:55.895,,-1259,-323,196
23:57:55.932,,-1236,-240,306
23:57:55.969,,-1119,-247,521
23:57:56.006,,-953,-210,502
23:57:56.043,,-938,-138,372
23:57:56.080,,-930,-95,263
23:57:56.117,,-885,-144,291
23:57:56.154,,-870,-323,314
23:57:56.191,,-778,-390,263
23:57:56.229,,-718,-303,273
23:57:56.266,,-708,-258,289
23:57:56.303,,-748,-284,328
23:57:56.340,,-809,-300,331
23:57:56.377,,-905,-266,295
23:57:56.414,,-953,-292,285
23:57:56.451,,-982,-337,318
23:57:56.488,,-1227,-384,254
23:57:56.525,,-1138,-426,193
23:57:56.562,,-1075,-478,-14
23:57:56.599,,-1084,-363,-58
23:57:56.636,,-1079,-303,-30
23:57:56.673,,-1042,-227,34
23:57:56.710,,-926,-208,210
23:57:56.747,,-849,-198,264
23:57:56.784,,-732,-300,73
23:57:56.821,,-778,-35,130
23:57:56.858,,-912,-47,92
23:57:56.895,,-961,-244,-116
23:57:56.932,,-1011,-202,-63
23:57:56.969,,-1170,-298,-45
23:57:57.006,,-1221,-208,84
23:57:57.043,,-1197,-188,194
23:57:57.080,,-1070,-183,402
23:57:57.117,,-828,-83,521
23:57:57.154,,-654,-1,497
23:57:57.191,,-690,-60,520
23:57:57.228,,-734,-116,502
23:57:57.265,,-726,22,447
23:57:57.302,,-690,125,414
23:57:57.339,,-690,119,444
23:57:57.376,,-663,404,392
23:57:57.413,,-695,350,481
23:57:57.450,,-712,320,402
23:57:57.487,,-871,369,427
23:57:57.524,,-1043,386,338
23:57:57.561,,-1088,446,278
23:57:57.598,,-1116,615,145
23:57:57.636,,-1306,792,5
23:57:57.673,,-1130,657,-46
23:57:57.710,,-956,333,-151
23:57:57.747,,-1117,494,-152
23:57:57.784,,-927,674,-33
23:57:57.821,,-692,991,289
23:57:57.858,,-472,861,218
23:57:57.895,,-407,588,332
23:57:57.932,,-486,457,159
23:57:57.969,,-541,530,181
23:57:58.006,,-555,494,138
23:57:58.043,,-578,406,101
23:57:58.080,,-599,340,65
23:57:58.117,,-621,409,-125
23:57:58.154,,-755,806,-490
23:57:58.191,,-664,1255,-870
23:57:58.228,,-498,1231,-988
23:57:58.265,,-341,852,-1035
23:57:58.302,,-162,592,-1089
23:57:58.339,,-114,333,-1027
23:57:58.376,,-157,288,-922
23:57:58.413,,-196,204,-787
23:57:58.450,,-267,110,-808
23:57:58.487,,-305,167,-679
23:57:58.524,,-364,169,-792
23:57:58.561,,-378,281,-715
23:57:58.598,,-502,297,-772
23:57:58.635,,-457,262,-891
23:57:58.672,,-444,369,-893
23:57:58.709,,-384,214,-1113
23:57:58.746,,-419,291,-1091
23:57:58.783,,-379,167,-947
23:57:58.820,,-482,0,-943
23:57:58.857,,-454,39,-943
23:57:58.894,,-268,107,-988
23:57:58.931,,-249,249,-802
23:57:58.968,,-275,142,-784
23:57:59.005,,-324,223,-650
23:57:59.043,,-315,140,-757
23:57:59.080,,-386,209,-674
23:57:59.117,,-393,142,-800
23:57:59.154,,-375,190,-823
23:57:59.191,,-383,106,-938
23:57:59.228,,-387,263,-1033
23:57:59.265,,-81,353,-1271
23:57:59.302,,18,658,-1116
23:57:59.339,,145,802,-1005
23:57:59.376,,240,677,-935
23:57:59.413,,128,576,-857
23:57:59.450,,41,373,-845
23:57:59.487,,-55,394,-765
23:57:59.524,,-94,366,-714
23:57:59.561,,-116,287,-731
23:57:59.598,,-159,326,-740
23:57:59.635,,-232,291,-813
23:57:59.672,,-301,240,-815
23:57:59.709,,-340,279,-897
23:57:59.746,,-189,276,-1003
23:57:59.783,,-158,337,-883
23:57:59.820,,-137,243,-946
23:57:59.857,,-42,179,-917
23:57:59.894,,102,326,-1100
23:57:59.931,,413,678,-1480
23:57:59.968,,532,797,-1306
23:58:00.005,,497,646,-1009
23:58:00.042,,225,552,-833
23:58:00.079,,110,515,-669
23:58:00.116,,146,304,-649
23:58:00.153,,49,207,-753
23:58:00.190,,-50,163,-832
23:58:00.227,,-145,322,-1118
23:58:00.264,,-150,239,-1341
23:58:00.301,,-147,487,-1208
23:58:00.338,,-81,385,-1345
23:58:00.375,,-43,587,-1003
23:58:00.412,,58,391,-956
23:58:00.449,,81,420,-884
23:58:00.487,,-20,424,-718
23:58:00.524,,-87,331,-692
23:58:00.561,,-168,380,-611
23:58:00.598,,-301,337,-549
23:58:00.635,,-363,235,-578
23:58:00.672,,-447,386,-527
23:58:00.709,,-415,365,-623
23:58:00.746,,-409,358,-708
23:58:00.783,,-501,436,-832
23:58:00.820,,-530,480,-934
23:58:00.857,,-551,218,-827
23:58:00.894,,-511,446,-954
23:58:00.931,,-81,206,193
23:58:00.968,,-140,1518,-1139
23:58:01.005,,-518,338,-1195
23:58:01.042,,-524,146,-1180
23:58:01.079,,-555,615,-918
23:58:01.116,,-608,855,-264
23:58:01.153,,-487,1086,-219
23:58:01.190,,-469,793,-627
23:58:01.227,,-483,718,-463
23:58:01.264,,-468,846,-198
23:58:01.301,,-257,729,-83
23:58:01.338,,-106,694,35
23:58:01.375,,-93,28,182
23:58:01.412,,306,792,96
23:58:01.449,,457,953,191
23:58:01.486,,658,1080,300
23:58:01.523,,970,889,147
23:58:01.560,,1183,812,-36
23:58:01.597,,1185,743,-141
23:58:01.634,,1215,859,-223
23:58:01.671,,1056,840,-249
23:58:01.708,,899,813,-226
23:58:01.745,,825,772,-284
23:58:01.782,,705,751,-277
23:58:01.819,,667,844,-260
23:58:01.856,,739,971,-281
23:58:01.893,,648,892,-358
23:58:01.931,,827,977,-254
23:58:01.968,,984,981,-239
23:58:02.005,,1114,917,-236
23:58:02.042,,1285,962,-223
23:58:02.079,,1263,908,-230
23:58:02.116,,1211,703,-217
23:58:02.153,,1123,575,-163
23:58:02.190,,1139,467,-171
23:58:02.227,,1102,519,-140
23:58:02.264,,1070,504,-92
23:58:02.301,,983,479,-90
23:58:02.338,,894,486,5
23:58:02.375,,786,458,110
23:58:02.412,,681,282,155
23:58:02.449,,604,123,198
23:58:02.486,,818,218,265
23:58:02.523,,685,344,527
23:58:02.560,,577,451,629
23:58:02.597,,1011,506,495
23:58:02.634,,1324,429,394
23:58:02.671,,1355,544,332
23:58:02.708,,1317,712,267
23:58:02.745,,1177,811,67
23:58:02.782,,989,860,-6
23:58:02.819,,889,895,-25
23:58:02.856,,768,902,-137
23:58:02.893,,561,943,-164
23:58:02.930,,444,1044,-149
23:58:02.967,,580,992,-255
23:58:03.004,,650,770,-245
23:58:03.041,,973,927,-106
23:58:03.078,,1339,923,-244
23:58:03.115,,1269,914,-178
23:58:03.152,,1440,899,-163
23:58:03.189,,1659,874,-252
23:58:03.226,,1610,634,-325
23:58:03.263,,1486,563,-302
23:58:03.301,,1418,642,-241
23:58:03.338,,1300,601,-318
23:58:03.375,,942,512,-228
23:58:03.412,,585,396,-193
23:58:03.449,,340,582,-73
23:58:03.486,,119,369,-126
23:58:03.523,,35,428,-104
23:58:03.560,,-154,610,-70
23:58:03.597,,-339,748,-100
23:58:03.634,,-237,1102,-147
23:58:03.671,,-175,1011,17
23:58:03.708,,-99,1378,212
23:58:03.745,,864,505,833
23:58:03.782,,-853,1760,-245
23:58:03.819,,-204,1388,-196
23:58:03.856,,-234,594,-342
23:58:03.893,,-226,242,-294
23:58:03.930,,-182,543,-280
23:58:03.967,,-211,448,-58
23:58:04.004,,-268,964,-9
23:58:04.041,,-303,897,36
23:58:04.078,,-389,1021,-4
23:58:04.115,,-453,1018,-113
23:58:04.152,,-528,907,-86
23:58:04.189,,-472,995,4
23:58:04.226,,-659,764,-129
23:58:04.263,,-585,1140,-57
23:58:04.300,,-543,1370,-181
23:58:04.337,,-453,1181,71
23:58:04.374,,-201,780,-3
23:58:04.411,,-217,843,134
23:58:04.448,,-295,683,339
23:58:04.485,,-278,726,295
23:58:04.522,,-427,663,528
23:58:04.560,,-528,349,464
23:58:04.597,,-454,425,418
23:58:04.634,,-442,591,782
23:58:04.671,,-438,467,1286
23:58:04.708,,-244,156,1198
23:58:04.745,,-131,410,801
23:58:04.782,,-15,105,900
23:58:04.819,,-127,411,1362
23:58:04.856,,-102,781,1064
23:58:04.893,,-169,448,799
23:58:04.930,,-241,465,837
23:58:04.967,,-303,252,662
23:58:05.004,,-259,364,634
23:58:05.041,,-150,201,510
23:58:05.078,,-233,165,879
23:58:05.115,,-326,298,828
23:58:05.152,,-451,282,836
23:58:05.189,,-532,375,817
23:58:05.226,,-670,413,689
23:58:05.263,,-625,568,986
23:58:05.300,,-745,715,807
23:58:05.337,,-698,693,900
23:58:05.374,,-525,630,1013
23:58:05.411,,-277,690,723
23:58:05.448,,-98,483,700
23:58:05.485,,-33,407,643
23:58:05.522,,-16,485,513
23:58:05.559,,-189,255,619
23:58:05.596,,-525,396,987
23:58:05.633,,-712,300,970
23:58:05.670,,-692,332,911
23:58:05.707,,-685,495,859
23:58:05.745,,-573,514,749
23:58:05.782,,-420,556,771
23:58:05.819,,-215,771,916
23:58:05.856,,-171,815,862
23:58:05.893,,-189,781,714
23:58:05.930,,-197,853,474
23:58:05.967,,-297,961,68
23:58:06.004,,-414,908,-79
23:58:06.041,,-488,629,-169
23:58:06.078,,-508,505,-207
23:58:06.115,,-544,478,-117
23:58:06.152,,-528,371,-146
23:58:06.189,,-546,462,-302
23:58:06.226,,-555,425,-356
23:58:06.263,,-635,784,-490
23:58:06.300,,-475,511,-976
23:58:06.337,,-537,331,-1006
23:58:06.374,,-416,340,-1222
23:58:06.411,,-337,406,-1244
23:58:06.448,,-306,164,-1380
23:58:06.485,,-145,307,-1282
23:58:06.522,,-185,297,-1023
23:58:06.559,,-208,385,-774
23:58:06.596,,-282,247,-713
23:58:06.633,,-152,214,-496
23:58:06.670,,-270,411,-574
23:58:06.707,,-325,211,-690
23:58:06.744,,-321,140,-804
23:58:06.781,,-124,586,-1172
23:58:06.818,,-522,458,-1048
23:58:06.855,,-231,495,-793
23:58:06.892,,-54,1362,-783
23:58:06.929,,-112,696,-980
23:58:06.966,,25,908,-680
23:58:07.003,,32,682,-773
23:58:07.040,,-51,682,-775
23:58:07.077,,-99,632,-665
23:58:07.115,,-220,587,-507
23:58:07.152,,-270,641,-446
23:58:07.189,,-307,578,-440
23:58:07.226,,-319,679,-243
23:58:07.263,,-321,763,-143
23:58:07.300,,-368,814,-188
23:58:07.337,,-394,864,-219
23:58:07.374,,-428,916,-281
23:58:07.411,,-518,845,-365
23:58:07.448,,-510,1023,-299
23:58:07.485,,-499,985,-301
23:58:07.522,,-575,913,-226
23:58:07.559,,-502,1174,-1
23:58:07.596,,-374,1134,146
23:58:07.633,,-239,1073,441
23:58:07.670,,-204,496,559
23:58:07.707,,-277,505,500
23:58:07.744,,-346,365,504
23:58:07.781,,-440,390,406
23:58:07.818,,-372,212,589
23:58:07.855,,-388,222,857
23:58:07.892,,-169,211,1084
23:58:07.929,,-461,744,1319
23:58:07.966,,-315,591,816
23:58:08.003,,-341,558,1156
23:58:08.040,,-168,440,926
23:58:08.077,,-139,423,836
23:58:08.114,,-12,503,1011
23:58:08.151,,-44,658,1000
23:58:08.188,,-168,815,762
23:58:08.225,,-244,531,763
23:58:08.262,,-284,306,730
23:58:08.299,,-330,260,567
23:58:08.336,,-325,196,586
23:58:08.373,,-358,189,680
23:58:08.410,,-383,285,694
23:58:08.448,,-478,567,716
23:58:08.485,,-396,701,705
23:58:08.522,,-468,757,612
23:58:08.559,,-563,820,651
23:58:08.596,,-636,1181,470
23:58:08.633,,-643,1044,336
23:58:08.670,,-463,1145,246
23:58:08.707,,-250,1203,191
23:58:08.744,,-70,971,110
23:58:08.781,,-38,830,123
23:58:08.818,,-106,695,155
23:58:08.855,,-151,607,64
23:58:08.892,,-260,650,48
23:58:08.929,,-354,610,-180
23:58:08.966,,-492,797,-395
23:58:09.003,,-449,771,-576
23:58:09.040,,-417,815,-829
23:58:09.077,,-251,974,-1139
23:58:09.114,,19,475,-1026
23:58:09.151,,143,425,-1021
23:58:09.188,,277,335,-1183
23:58:09.225,,324,261,-968
23:58:09.262,,152,175,-1148
23:58:09.299,,86,46,-869
23:58:09.336,,-42,100,-761
23:58:09.373,,-157,51,-823
23:58:09.410,,-213,60,-626
23:58:09.447,,-262,46,-719
23:58:09.484,,-346,-17,-748
23:58:09.521,,-391,72,-774
23:58:09.558,,-305,114,-903
23:58:09.595,,-421,189,-892
23:58:09.633,,-347,2,-1214
23:58:09.670,,-239,25,-1441
23:58:09.707,,-155,52,-1685
23:58:09.744,,73,205,-1545
23:58:09.781,,229,337,-987
23:58:09.818,,220,276,-706
23:58:09.855,,132,280,-542
23:58:09.892,,57,143,-476
23:58:09.929,,38,384,-421
23:58:09.966,,3,527,-571
23:58:10.003,,7,598,-648
23:58:10.040,,80,585,-898
23:58:10.077,,52,679,-951
23:58:10.114,,-23,934,-1219
23:58:10.151,,19,721,-1187
23:58:10.188,,208,518,-1116
23:58:10.225,,302,427,-1189
23:58:10.262,,305,423,-1129
23:58:10.299,,291,192,-1053
23:58:10.336,,178,228,-817
23:58:10.373,,55,202,-617
23:58:10.410,,-53,158,-582
23:58:10.447,,-144,154,-602
23:58:10.484,,-206,190,-627
23:58:10.521,,-269,371,-626
23:58:10.558,,-250,413,-717
23:58:10.595,,-190,316,-812
23:58:10.632,,-109,201,-1029
23:58:10.669,,22,102,-1336
23:58:10.706,,-25,114,-1146
23:58:10.743,,-33,64,-1422
23:58:10.780,,-95,535,-1526
23:58:10.817,,-36,619,-1151
23:58:10.854,,-74,649,-769
23:58:10.891,,-123,622,-411
23:58:10.929,,-106,663,-219
23:58:10.966,,-71,486,-308
23:58:11.003,,-10,497,-251
23:58:11.040,,109,453,-138
23:58:11.077,,345,415,-252
23:58:11.114,,506,350,-293
23:58:11.151,,680,847,-310
23:58:11.188,,935,1003,-287
23:58:11.225,,968,944,-175
23:58:11.262,,1094,1079,170
23:58:11.299,,1604,1142,89
23:58:11.336,,1334,674,0
23:58:11.373,,1067,513,222
23:58:11.410,,778,538,150
23:58:11.447,,586,647,53
23:58:11.484,,458,673,12
23:58:11.521,,364,599,10
23:58:11.558,,247,561,71
23:58:11.595,,230,579,103
23:58:11.632,,455,517,134
23:58:11.669,,1005,562,169
23:58:11.706,,1547,841,178
23:58:11.743,,1246,368,324
23:58:11.780,,1622,686,399
23:58:11.817,,1508,819,233
23:58:11.854,,1062,557,341
23:58:11.891,,843,506,308
23:58:11.928,,728,416,151
23:58:11.965,,603,415,160
23:58:12.002,,623,397,116
23:58:12.039,,637,365,93
23:58:12.076,,792,350,75
23:58:12.113,,932,337,-23
23:58:12.150,,769,367,1
23:58:12.187,,879,377,-72
23:58:12.224,,586,603,88
23:58:12.262,,384,406,503
23:58:12.299,,1340,696,682
23:58:12.336,,1276,273,713
23:58:12.373,,1072,505,542
23:58:12.410,,743,651,244
23:58:12.447,,496,723,104
23:58:12.484,,293,964,-128
23:58:12.521,,227,763,-210
23:58:12.558,,253,646,-331
23:58:12.595,,357,588,-588
23:58:12.632,,274,1009,-773
23:58:12.669,,787,1129,-539
23:58:12.706,,1358,1242,-530
23:58:12.743,,1514,1381,-434
23:58:12.780,,1409,1467,-73
23:58:12.817,,1184,1483,94
23:58:12.854,,869,1345,300
23:58:12.891,,580,1050,406
23:58:12.928,,500,718,299
23:58:12.965,,458,9,172
23:58:13.002,,252,18,302
23:58:13.039,,283,63,153
23:58:13.076,,240,68,62
23:58:13.113,,194,225,60
23:58:13.150,,329,374,-48
23:58:13.187,,386,627,93
23:58:13.224,,878,1540,414
23:58:13.261,,1332,1710,221
23:58:13.298,,1216,1330,300
23:58:13.335,,1026,681,379
23:58:13.372,,990,468,428
23:58:13.409,,828,685,436
23:58:13.446,,646,959,296
23:58:13.483,,298,1040,187
23:58:13.520,,438,1120,-118
23:58:13.558,,422,1436,-784
23:58:13.595,,361,1463,-940
23:58:13.632,,1735,1814,-581
23:58:13.669,,1998,1427,-306
23:58:13.706,,1998,1061,89
23:58:13.743,,1921,793,286
23:58:13.780,,1353,502,329
23:58:13.817,,890,488,307
23:58:13.854,,581,521,274
23:58:13.891,,390,449,282
23:58:13.928,,282,316,154
23:58:13.965,,223,208,66
23:58:14.002,,159,134,27
23:58:14.039,,104,209,44
23:58:14.076,,269,367,-11
23:58:14.113,,634,456,-227
23:58:14.150,,568,740,-21
23:58:14.187,,854,1364,557
23:58:14.224,,1179,1622,464
23:58:14.261,,1182,1138,-25
23:58:14.298,,1189,338,193
23:58:14.335,,1183,151,586
23:58:14.372,,1105,405,474
23:58:14.409,,797,710,437
23:58:14.446,,585,694,428
23:58:14.483,,389,799,279
23:58:14.520,,283,791,81
23:58:14.557,,76,720,56
23:58:14.594,,228,578,-36
23:58:14.631,,1789,1070,65
23:58:14.668,,1673,363,-125
23:58:14.705,,1571,514,522
23:58:14.742,,1356,1008,350
23:58:14.779,,1360,1114,279
23:58:14.817,,1181,398,353
23:58:14.854,,863,-91,367
23:58:14.891,,595,-139,480
23:58:14.928,,427,75,378
23:58:14.965,,158,104,354
23:58:15.002,,277,191,181
23:58:15.039,,1115,653,247
23:58:15.076,,1529,933,614
23:58:15.113,,1773,679,387
23:58:15.150,,1352,321,95
23:58:15.187,,827,481,198
23:58:15.224,,464,415,41
23:58:15.261,,204,510,-136
23:58:15.298,,2,673,-137
23:58:15.335,,-138,592,-62
23:58:15.372,,-191,393,-146
23:58:15.409,,710,597,-11
23:58:15.446,,1909,1002,110
23:58:15.483,,1814,-14,-157
23:58:15.520,,633,-45,609
23:58:15.557,,986,432,605
23:58:15.594,,1046,145,171
23:58:15.631,,683,102,122
23:58:15.668,,557,155,38
23:58:15.705,,557,205,-172
23:58:15.742,,1625,416,-307
23:58:15.779,,1161,1141,318
23:58:15.816,,1262,1030,920
23:58:15.853,,1401,-957,450
23:58:15.890,,1011,-273,905
23:58:15.927,,536,-63,741
23:58:15.964,,479,101,365
23:58:16.001,,380,438,77
23:58:16.038,,316,500,110
23:58:16.075,,111,505,118
23:58:16.113,,638,488,-79
23:58:16.150,,1783,1192,-380
23:58:16.187,,1900,861,-225
23:58:16.224,,1859,573,177
23:58:16.261,,1584,469,496
23:58:16.298,,1183,510,631
23:58:16.335,,916,529,723
23:58:16.372,,651,341,633
23:58:16.409,,453,202,517
23:58:16.446,,366,179,401
23:58:16.483,,383,164,243
23:58:16.520,,325,206,172
23:58:16.557,,409,280,124
23:58:16.594,,990,466,127
23:58:16.631,,912,882,498
23:58:16.668,,1425,896,683
23:58:16.705,,1666,434,455
23:58:16.742,,1128,44,392
23:58:16.779,,931,170,396
23:58:16.816,,863,596,141
23:58:16.853,,636,834,-13
23:58:16.890,,341,768,31
23:58:16.927,,228,349,-227
23:58:16.964,,404,532,-639
23:58:17.001,,292,1023,-697
23:58:17.038,,85,739,-383
23:58:17.075,,1239,971,-394
23:58:17.112,,1726,908,-915
23:58:17.149,,1732,743,-484
23:58:17.186,,1645,992,-279
23:58:17.223,,1484,978,-349
23:58:17.260,,1342,893,-209
23:58:17.297,,1160,780,-187
23:58:17.335,,828,720,-28
23:58:17.372,,558,550,3
23:58:17.409,,532,450,-38
23:58:17.446,,497,439,-28
23:58:17.483,,358,588,-126
23:58:17.520,,-8,854,-141
23:58:17.557,,-287,1313,113
23:58:17.594,,-423,1756,152
23:58:17.631,,-393,1622,79
23:58:17.668,,-604,1273,268
23:58:17.705,,-569,1035,317
23:58:17.742,,-565,754,282
23:58:17.779,,-400,447,322
23:58:17.816,,-224,316,155
23:58:17.853,,-149,288,85
23:58:17.890,,-200,316,40
23:58:17.927,,-197,27,39
23:58:17.964,,-583,-112,355
23:58:18.001,,-609,-131,400
23:58:18.038,,-1080,-354,809
23:58:18.075,,-1399,-198,781
23:58:18.112,,-1517,-275,482
23:58:18.149,,-1266,-428,333
23:58:18.186,,-867,-328,220
23:58:18.223,,-722,-207,167
23:58:18.260,,-567,-222,150
23:58:18.297,,-548,-235,187
23:58:18.334,,-671,-293,197
23:58:18.371,,-909,-190,310
23:58:18.408,,-1119,-286,390
23:58:18.445,,-1221,-235,435
23:58:18.482,,-1276,-281,531
23:58:18.520,,-1270,-245,537
23:58:18.557,,-1167,-151,344
23:58:18.594,,-1106,-63,408
23:58:18.631,,-823,-180,357
23:58:18.668,,-593,-294,303
23:58:18.705,,-515,-278,252
23:58:18.742,,-532,-267,187
23:58:18.779,,-561,-111,397
23:58:18.816,,-740,-147,492
23:58:18.853,,-909,-127,520
23:58:18.890,,-931,-244,499
23:58:18.927,,-847,-286,592
23:58:18.964,,-991,-301,510
23:58:19.001,,-1060,-285,351
23:58:19.038,,-1187,-278,191
23:58:19.075,,-1501,-132,218
23:58:19.112,,-1222,-25,456
23:58:19.149,,-941,-235,466
23:58:19.186,,-666,-396,303
23:58:19.223,,-557,23,238
23:58:19.260,,-577,34,-14
23:58:19.297,,-637,-122,-22
23:58:19.334,,-819,-88,99
23:58:19.371,,-801,-195,226
23:58:19.408,,-576,-280,407
23:58:19.445,,-604,28,576
23:58:19.482,,-469,15,686
23:58:19.519,,-322,180,625
23:58:19.556,,-115,672,767
23:58:19.593,,247,733,671
23:58:19.630,,543,1065,275
23:58:19.667,,480,908,240
23:58:19.704,,837,1258,187
23:58:19.741,,780,1203,-177
23:58:19.779,,915,1347,-122
23:58:19.816,,499,1566,211
23:58:19.853,,822,1207,-43
23:58:19.890,,1166,1170,-289
23:58:19.927,,1119,1147,-372
23:58:19.964,,957,1029,-53
23:58:20.001,,1131,897,-68
23:58:20.038,,872,799,20
23:58:20.075,,652,851,155
23:58:20.112,,622,805,151
23:58:20.149,,656,668,79
23:58:20.186,,633,685,130
23:58:20.223,,639,711,101
23:58:20.260,,629,739,96
23:58:20.297,,590,719,105
23:58:20.334,,636,665,61
23:58:20.371,,702,575,6
23:58:20.408,,721,484,77
23:58:20.445,,966,445,12
23:58:20.482,,874,477,100
23:58:20.519,,641,473,407
23:58:20.556,,1087,613,297
23:58:20.593,,1179,586,100
23:58:20.630,,926,479,198
23:58:20.667,,755,568,276
23:58:20.704,,675,631,183
23:58:20.741,,762,645,34
23:58:20.778,,823,797,41
23:58:20.815,,786,813,-29
23:58:20.852,,626,877,3
23:58:20.890,,570,820,100
23:58:20.927,,854,908,15
23:58:20.964,,815,864,-1
23:58:21.001,,1257,931,-41
23:58:21.038,,1000,742,-98
23:58:21.075,,983,641,-92
23:58:21.112,,1535,830,-278
23:58:21.149,,1487,672,-469
23:58:21.186,,1258,486,-513
23:58:21.223,,1259,441,-433
23:58:21.260,,1126,409,-502
23:58:21.297,,794,397,-434
23:58:21.334,,404,535,-235
23:58:21.371,,155,542,-145
23:58:21.408,,64,557,-201
23:58:21.445,,48,720,-252
23:58:21.482,,-27,842,-255
23:58:21.519,,-86,922,-362
23:58:21.556,,-21,1192,-439
23:58:21.593,,28,1182,-433
23:58:21.630,,64,878,-279
23:58:21.667,,117,853,-295
23:58:21.704,,73,937,-350
23:58:21.741,,-101,967,-241
23:58:21.778,,-67,941,-322
23:58:21.815,,-91,767,-313
23:58:21.852,,-162,710,-160
23:58:21.889,,-256,680,-132
23:58:21.926,,-345,652,-144
23:58:21.963,,-508,625,-55
23:58:22.000,,-468,655,124
23:58:22.037,,-541,897,-105
23:58:22.074,,-650,894,-375
23:58:22.112,,-922,1137,-434
23:58:22.149,,-756,1151,-491
23:58:22.186,,-723,673,-375
23:58:22.223,,-927,1047,-206
23:58:22.260,,-530,1014,-158
23:58:22.297,,-287,723,-7
23:58:22.334,,-178,514,217
23:58:22.371,,-380,577,321
23:58:22.408,,-385,563,420
23:58:22.445,,-316,479,681
23:58:22.482,,-579,717,846
23:58:22.519,,-583,816,1115
23:58:22.556,,-599,371,1177
23:58:22.593,,-636,490,850
23:58:22.630,,-725,313,646
23:58:22.667,,-639,332,850
23:58:22.704,,-384,322,847
23:58:22.741,,-416,369,837
23:58:22.778,,-487,504,709
23:58:22.815,,-506,461,528
23:58:22.852,,-608,324,358
23:58:22.889,,-575,9,251
23:58:22.926,,-747,94,241
23:58:22.963,,-855,199,160
23:58:23.000,,-960,288,298
23:58:23.037,,-935,60,492
23:58:23.074,,-956,-132,521
23:58:23.111,,-1018,32,345
23:58:23.148,,-1188,316,515
23:58:23.185,,-1072,230,374
23:58:23.222,,-1353,419,504
23:58:23.259,,-1138,255,166
23:58:23.297,,-1083,161,-116
23:58:23.334,,-1012,269,-105
23:58:23.371,,-852,229,-109
23:58:23.408,,-581,268,-81
23:58:23.445,,-571,189,45
23:58:23.482,,-606,236,142
23:58:23.519,,-749,208,109
23:58:23.556,,-917,210,150
23:58:23.593,,-993,82,224
23:58:23.630,,-954,237,207
23:58:23.667,,-958,520,184
23:58:23.704,,-861,564,116
23:58:23.741,,-1027,790,61
23:58:23.778,,-779,705,80
23:58:23.815,,-768,857,189
23:58:23.852,,-643,971,71
23:58:23.889,,-688,848,-116
23:58:23.926,,-737,724,-115
23:58:23.963,,-647,520,-110
23:58:24.000,,-680,383,-124
23:58:24.037,,-697,231,-188
23:58:24.074,,-717,238,-120
23:58:24.111,,-743,201,-154
23:58:24.148,,-907,312,-150
23:58:24.185,,-875,514,-139
23:58:24.222,,-902,524,-296
23:58:24.259,,-1131,602,-472
23:58:24.296,,-1331,615,-317
23:58:24.333,,-1139,194,-102
23:58:24.370,,-1027,228,53
23:58:24.407,,-921,319,216
23:58:24.445,,-717,359,298
23:58:24.482,,-526,536,343
23:58:24.519,,-404,562,292
23:58:24.556,,-284,351,352
23:58:24.593,,-239,205,341
23:58:24.630,,-79,288,345
23:58:24.667,,54,729,460
23:58:24.704,,320,778,378
23:58:24.741,,550,308,342
23:58:24.778,,835,423,521
23:58:24.815,,1436,1246,613
23:58:24.852,,1621,892,622
23:58:24.889,,1400,471,605
23:58:24.926,,1465,405,573
23:58:24.963,,1305,635,308
23:58:25.000,,943,633,255
23:58:25.037,,700,505,184
23:58:25.074,,546,463,68
23:58:25.111,,524,498,74
23:58:25.148,,563,522,40
23:58:25.185,,588,615,77
23:58:25.222,,653,684,206
23:58:25.259,,880,671,248
23:58:25.296,,1089,583,126
23:58:25.333,,913,478,144
23:58:25.370,,1083,642,217
23:58:25.407,,1093,735,39
23:58:25.444,,805,636,36
23:58:25.481,,932,703,97
23:58:25.518,,1133,759,46
23:58:25.556,,1048,505,-45
23:58:25.593,,955,334,14
23:58:25.630,,1015,431,65
23:58:25.667,,1039,479,34
23:58:25.704,,975,481,35
23:58:25.741,,827,506,101
23:58:25.778,,715,477,76
23:58:25.815,,667,419,28
23:58:25.852,,635,336,-23
23:58:25.889,,580,333,-17
23:58:25.926,,727,469,90
23:58:25.963,,970,572,136
23:58:26.000,,893,533,231
23:58:26.037,,981,484,289
23:58:26.074,,1291,577,282
23:58:26.111,,1064,520,232
23:58:26.148,,781,474,243
23:58:26.185,,681,506,198
23:58:26.222,,679,471,103
23:58:26.259,,702,498,92
23:58:26.296,,736,558,111
23:58:26.333,,735,605,102
23:58:26.370,,676,650,186
23:58:26.407,,799,664,244
23:58:26.444,,917,635,147
23:58:26.481,,1107,639,125
23:58:26.518,,1279,736,124
23:58:26.555,,987,646,48
23:58:26.592,,928,612,60
23:58:26.629,,1104,652,58
23:58:26.666,,1121,580,8
23:58:26.704,,991,405,-38
23:58:26.741,,928,397,-12
23:58:26.778,,947,439,-5
23:58:26.815,,981,470,-16
23:58:26.852,,916,485,7
23:58:26.889,,788,444,8
23:58:26.926,,631,376,27
23:58:26.963,,559,347,33
23:58:27.000,,559,353,7
23:58:27.037,,598,420,75
23:58:27.074,,865,506,137
23:58:27.111,,1077,516,109
23:58:27.148,,1000,529,178
23:58:27.185,,1061,602,358
23:58:27.222,,1289,578,255
23:58:27.259,,1091,449,158
23:58:27.296,,858,440,219
23:58:27.333,,761,523,170
23:58:27.370,,714,513,98
23:58:27.407,,681,492,82
23:58:27.444,,650,545,94
23:58:27.481,,643,567,146
23:58:27.518,,609,586,190
23:58:27.555,,783,657,290
23:58:27.592,,996,558,154
23:58:27.629,,1222,544,112
23:58:27.666,,1257,650,156
23:58:27.703,,940,523,83
23:58:27.740,,984,572,120
23:58:27.777,,1149,606,77
23:58:27.814,,1037,500,8
23:58:27.851,,884,364,58
23:58:27.889,,814,355,104
23:58:27.926,,835,345,78
23:58:27.963,,850,389,98
23:58:28.000,,828,413,90
23:58:28.037,,786,403,83
23:58:28.074,,756,389,64
23:58:28.111,,783,359,41
23:58:28.148,,847,386,29
23:58:28.185,,938,468,113
23:58:28.222,,1128,505,98
23:58:28.259,,953,427,128
23:58:28.296,,837,484,174
23:58:28.333,,1060,583,281
23:58:28.370,,1128,537,250
23:58:28.407,,921,533,299
23:58:28.444,,781,515,269
23:58:28.481,,626,459,201
23:58:28.518,,544,464,173
23:58:28.555,,540,509,169
23:58:28.592,,569,525,192
23:58:28.629,,562,515,218
23:58:28.666,,655,565,275
23:58:28.703,,946,618,289
23:58:28.740,,949,432,137
23:58:28.777,,1134,577,199
23:58:28.814,,1191,737,170
23:58:28.851,,843,644,106
23:58:28.888,,762,610,148
23:58:28.925,,1028,613,134
23:58:28.962,,1072,518,94
23:58:28.999,,916,422,92
23:58:29.036,,875,391,147
23:58:29.073,,967,397,119
23:58:29.110,,942,380,95
23:58:29.148,,796,363,111
23:58:29.185,,639,342,117
23:58:29.222,,618,346,97
23:58:29.259,,715,381,93
23:58:29.296,,786,449,149
23:58:29.333,,970,566,215
23:58:29.370,,1207,571,265
23:58:29.407,,1018,574,427
23:58:29.444,,967,480,525
23:58:29.481,,1190,426,393
23:58:29.518,,976,369,330
23:58:29.555,,733,341,289
23:58:29.592,,575,350,182
23:58:29.629,,545,322,139
23:58:29.666,,547,381,87
23:58:29.703,,590,414,138
23:58:29.740,,614,396,167
23:58:29.777,,611,357,256
23:58:29.814,,839,429,329
23:58:29.851,,1050,393,288
23:58:29.888,,1000,403,298
23:58:29.925,,1229,575,364
23:58:29.962,,1142,523,255
23:58:29.999,,743,399,289
23:58:30.036,,910,499,336
23:58:30.073,,1213,548,287
23:58:30.110,,1047,374,289
23:58:30.147,,849,380,307
23:58:30.184,,801,383,301
23:58:30.221,,770,337,278
23:58:30.258,,757,437,153
23:58:30.295,,750,418,138
23:58:30.332,,650,432,135
23:58:30.369,,704,502,104
23:58:30.406,,818,493,140
23:58:30.444,,762,471,127
23:58:30.481,,897,602,178
23:58:30.518,,964,550,208
23:58:30.555,,860,515,222
23:58:30.592,,962,653,387
23:58:30.629,,1015,587,419
23:58:30.666,,858,484,420
23:58:30.703,,692,384,358
23:58:30.740,,521,363,286
23:58:30.777,,433,374,233
23:58:30.814,,490,457,194
23:58:30.851,,595,459,204
23:58:30.888,,606,484,222
23:58:30.925,,639,486,305
23:58:30.962,,820,515,316
23:58:30.999,,976,537,267
23:58:31.036,,909,526,257
23:58:31.073,,1067,674,335
23:58:31.110,,1014,620,252
23:58:31.147,,794,537,157
23:58:31.184,,1118,720,264
23:58:31.221,,1269,686,215
23:58:31.258,,964,414,223
23:58:31.295,,722,417,362
23:58:31.332,,771,544,292
23:58:31.369,,828,555,216
23:58:31.406,,756,430,225
23:58:31.443,,638,509,122
23:58:31.480,,512,447,107
23:58:31.517,,505,525,41
23:58:31.554,,591,589,44
23:58:31.591,,689,597,113
23:58:31.628,,924,598,129
23:58:31.666,,1162,570,162
23:58:31.703,,881,490,204
23:58:31.740,,925,643,277
23:58:31.777,,1214,685,272
23:58:31.814,,891,467,249
23:58:31.851,,696,423,271
23:58:31.888,,637,404,145
23:58:31.925,,650,408,122
23:58:31.962,,719,468,140
23:58:31.999,,757,511,146
23:58:32.036,,563,494,237
23:58:32.073,,676,551,273
23:58:32.110,,977,600,153
23:58:32.147,,863,675,180
23:58:32.184,,855,763,183
23:58:32.221,,1160,893,80
23:58:32.258,,1139,812,48
23:58:32.295,,1228,749,-37
23:58:32.332,,1382,553,-142
23:58:32.369,,1082,215,-158
23:58:32.406,,826,332,-80
23:58:32.443,,785,351,-150
23:58:32.480,,825,309,-197
23:58:32.517,,945,310,-199
23:58:32.554,,1136,510,-162
23:58:32.591,,1585,702,-31
23:58:32.628,,1576,487,-39
23:58:32.665,,1361,436,96
23:58:32.702,,1145,365,146
23:58:32.739,,796,214,31
23:58:32.776,,652,404,185
23:58:32.813,,720,462,205
23:58:32.850,,797,338,230
23:58:32.887,,803,396,214
23:58:32.925,,713,410,191
23:58:32.962,,619,436,274
23:58:32.999,,601,441,232
23:58:33.036,,601,437,168
23:58:33.073,,609,400,138
23:58:33.110,,700,363,126
23:58:33.147,,788,410,187
23:58:33.184,,800,360,167
23:58:33.221,,747,363,233
23:58:33.258,,807,217,185
23:58:33.295,,1051,227,121
23:58:33.332,,979,299,101
23:58:33.369,,1273,616,208
23:58:33.406,,1008,592,167
23:58:33.443,,1185,490,123
23:58:33.480,,1225,473,8
23:58:33.517,,950,492,55
23:58:33.554,,761,506,118
23:58:33.591,,713,442,52
23:58:33.628,,705,459,23
23:58:33.665,,716,449,36
23:58:33.702,,740,467,35
23:58:33.739,,761,492,18
23:58:33.776,,818,515,19
23:58:33.813,,939,475,32
23:58:33.850,,994,421,24
23:58:33.887,,1035,379,77
23:58:33.924,,1135,424,70
23:58:33.961,,898,379,103
23:58:33.998,,951,562,317
23:58:34.035,,1205,512,225
23:58:34.072,,907,374,174
23:58:34.109,,665,337,183
23:58:34.146,,580,465,148
23:58:34.183,,684,532,163
23:58:34.221,,699,472,204
23:58:34.258,,685,481,271
23:58:34.295,,780,452,290
23:58:34.332,,971,424,209
23:58:34.369,,949,442,133
23:58:34.406,,950,582,180
23:58:34.443,,987,714,162
23:58:34.480,,867,574,33
23:58:34.517,,1138,627,16
23:58:34.554,,1304,595,23
23:58:34.591,,1035,335,-52
23:58:34.628,,773,422,65
23:58:34.665,,797,513,63
23:58:34.702,,887,608,-27
23:58:34.739,,942,837,-41
23:58:34.776,,820,1039,-123
23:58:34.813,,587,1000,-165
23:58:34.850,,419,321,-58
23:58:34.887,,221,362,72
23:58:34.924,,193,531,135
23:58:34.961,,338,499,319
23:58:34.998,,696,556,479
23:58:35.035,,907,696,318
23:58:35.072,,794,268,372
23:58:35.109,,924,550,426
23:58:35.146,,1055,598,251
23:58:35.183,,909,554,168
23:58:35.220,,771,583,125
23:58:35.257,,827,563,31
23:58:35.294,,860,621,-42
23:58:35.331,,841,732,-6
23:58:35.368,,737,716,-40
23:58:35.405,,713,696,66
23:58:35.442,,765,810,88
23:58:35.479,,915,733,53
23:58:35.516,,1047,663,135
23:58:35.553,,1200,803,107
23:58:35.590,,939,626,40
23:58:35.628,,970,612,88
23:58:35.665,,1260,726,70
23:58:35.702,,1106,485,34
23:58:35.739,,867,346,69
23:58:35.776,,836,421,68
23:58:35.813,,910,432,39
23:58:35.850,,880,508,20
23:58:35.887,,796,538,36
23:58:35.924,,684,548,6
23:58:35.961,,609,552,26
23:58:35.998,,579,430,9
23:58:36.035,,576,439,-28
23:58:36.072,,579,506,8
23:58:36.109,,767,587,15
23:58:36.146,,922,639,130
23:58:36.183,,920,636,228
23:58:36.220,,959,605,308
23:58:36.257,,1248,573,335
23:58:36.294,,1112,502,281
23:58:36.331,,808,501,302
23:58:36.368,,721,487,209
23:58:36.405,,685,427,131
23:58:36.442,,643,467,123
23:58:36.479,,626,505,149
23:58:36.516,,576,546,177
23:58:36.553,,623,531,231
23:58:36.590,,738,540,297
23:58:36.627,,1000,569,326
23:58:36.664,,972,471,222
23:58:36.701,,1015,513,260
23:58:36.738,,1159,660,243
23:58:36.775,,955,574,124
23:58:36.812,,816,513,144
23:58:36.849,,1076,708,207
23:58:36.886,,1109,655,154
23:58:36.924,,902,408,125
23:58:36.961,,774,405,201
23:58:36.998,,795,526,212
23:58:37.035,,805,546,194
23:58:37.072,,767,499,164
23:58:37.109,,683,470,149
23:58:37.146,,631,472,123
23:58:37.183,,652,464,86
23:58:37.220,,691,463,48
23:58:37.257,,836,464,28
23:58:37.294,,982,526,10
23:58:37.331,,817,566,205
23:58:37.368,,828,563,384
23:58:37.405,,1150,569,237
23:58:37.442,,1163,514,268
23:58:37.479,,945,446,419
23:58:37.516,,723,540,428
23:58:37.553,,622,395,279
23:58:37.590,,578,399,226
23:58:37.627,,606,449,249
23:58:37.664,,686,507,311
23:58:37.701,,691,575,402
23:58:37.738,,806,615,545
23:58:37.775,,976,502,521
23:58:37.812,,876,325,331
23:58:37.849,,915,507,359
23:58:37.886,,1052,753,330
23:58:37.923,,908,618,208
23:58:37.960,,1045,534,175
23:58:37.997,,1140,523,101
23:58:38.034,,912,360,164
23:58:38.071,,826,339,208
23:58:38.108,,944,466,220
23:58:38.146,,899,516,236
23:58:38.183,,808,451,257
23:58:38.220,,710,470,279
23:58:38.257,,663,604,401
23:58:38.294,,652,755,528
23:58:38.331,,838,784,526
23:58:38.368,,950,826,614
23:58:38.405,,856,633,873
23:58:38.442,,696,327,599
23:58:38.479,,1138,116,221
23:58:38.516,,888,439,158
23:58:38.553,,818,192,22
23:58:38.590,,888,391,23
23:58:38.627,,686,625,215
23:58:38.664,,556,576,272
23:58:38.701,,569,547,286
23:58:38.738,,639,556,274
23:58:38.775,,565,584,281
23:58:38.812,,448,679,395
23:58:38.849,,448,692,419
23:58:38.886,,528,587,279
23:58:38.923,,1057,678,266
23:58:38.960,,1497,939,346
23:58:38.997,,1761,791,331
23:58:39.034,,1914,640,401
23:58:39.071,,1632,649,323
23:58:39.108,,1372,747,304
23:58:39.145,,1208,616,288
23:58:39.182,,1068,297,181
23:58:39.219,,1033,271,80
23:58:39.256,,971,258,156
23:58:39.293,,990,106,86
23:58:39.331,,838,113,-16
23:58:39.368,,722,87,-49
23:58:39.405,,560,308,-23
23:58:39.442,,636,444,41
23:58:39.479,,890,556,-11
23:58:39.516,,904,745,293
23:58:39.553,,1682,613,603
23:58:39.590,,1981,731,324
23:58:39.627,,1304,493,283
23:58:39.664,,811,677,409
23:58:39.701,,657,763,152
23:58:39.738,,671,617,123
23:58:39.775,,650,605,160
23:58:39.812,,554,627,179
23:58:39.849,,455,660,287
23:58:39.886,,583,548,292
23:58:39.923,,919,473,200
23:58:39.960,,1033,425,78
23:58:39.997,,1248,656,131
23:58:40.034,,1246,736,86
23:58:40.071,,1151,631,62
23:58:40.108,,1512,704,124
23:58:40.145,,1511,576,143
23:58:40.182,,1271,450,225
23:58:40.219,,1099,353,227
23:58:40.256,,1033,366,239
23:58:40.293,,877,437,219
23:58:40.330,,651,366,168
23:58:40.367,,462,291,191
23:58:40.404,,288,241,240
23:58:40.441,,337,307,103
23:58:40.479,,411,361,82
23:58:40.516,,540,538,193
23:58:40.553,,806,566,185
23:58:40.590,,1026,643,288
23:58:40.627,,1124,763,516
23:58:40.664,,1479,844,480
23:58:40.701,,1296,580,298
23:58:40.738,,969,414,312
23:58:40.775,,826,479,261
23:58:40.812,,739,516,164
23:58:40.849,,684,549,129
23:58:40.886,,645,592,155
23:58:40.923,,588,543,155
23:58:40.960,,515,575,236
23:58:40.997,,636,590,281
23:58:41.034,,891,594,254
23:58:41.071,,940,473,199
23:58:41.108,,1136,610,307
23:58:41.145,,1178,674,263
23:58:41.182,,981,611,215
23:58:41.219,,1099,662,257
23:58:41.256,,1152,707,260
23:58:41.293,,1005,554,217
23:58:41.330,,839,461,200
23:58:41.367,,800,423,195
23:58:41.404,,790,422,172
23:58:41.441,,799,464,147
23:58:41.478,,772,465,149
23:58:41.516,,727,450,131
23:58:41.553,,726,446,129
23:58:41.590,,736,416,109
23:58:41.627,,791,414,135
23:58:41.664,,1062,479,132
23:58:41.701,,961,467,178
23:58:41.738,,795,464,333
23:58:41.775,,1063,508,286
23:58:41.812,,1166,499,228
23:58:41.849,,965,488,315
23:58:41.886,,795,554,350
23:58:41.923,,657,523,267
23:58:41.960,,638,518,240
23:58:41.997,,678,610,276
23:58:42.034,,709,652,288
23:58:42.071,,673,671,322
23:58:42.108,,592,612,355
23:58:42.145,,733,598,336
23:58:42.182,,943,605,250
23:58:42.219,,1252,703,266
23:58:42.256,,1125,695,202
23:58:42.293,,933,599,160
23:58:42.330,,1170,688,215
23:58:42.367,,1310,712,160
23:58:42.404,,1149,515,150
23:58:42.441,,941,432,142
23:58:42.478,,823,433,158
23:58:42.515,,782,436,147
23:58:42.553,,811,440,117
23:58:42.590,,813,435,104
23:58:42.627,,809,432,97
23:58:42.664,,877,420,63
23:58:42.701,,917,359,17
23:58:42.738,,780,295,78
23:58:42.775,,987,434,239
23:58:42.812,,989,470,275
23:58:42.849,,647,393,353
23:58:42.886,,838,510,413
23:58:42.923,,1180,634,402
23:58:42.960,,1080,474,367
23:58:42.997,,912,431,384
23:58:43.034,,813,482,291
23:58:43.071,,702,526,205
23:58:43.108,,684,625,298
23:58:43.145,,678,773,302
23:58:43.182,,632,633,295
23:58:43.219,,518,690,316
23:58:43.256,,652,679,298
23:58:43.293,,857,694,140
23:58:43.330,,905,820,63
23:58:43.367,,1326,1063,3
23:58:43.404,,1015,854,-200
23:58:43.441,,1071,755,-147
23:58:43.478,,1458,885,-300
23:58:43.515,,1362,741,-416
23:58:43.553,,1031,642,-289
23:58:43.590,,842,582,-273
23:58:43.627,,668,693,-222
23:58:43.664,,508,628,-223
23:58:43.701,,322,613,-221
23:58:43.738,,191,471,-249
23:58:43.775,,-18,679,-275
23:58:43.812,,-52,741,-486
23:58:43.849,,-76,739,-565
23:58:43.886,,-132,872,-775
23:58:43.923,,-164,982,-707
23:58:43.960,,-226,1040,-636
23:58:43.997,,-214,856,-378
23:58:44.034,,-290,861,-208
23:58:44.071,,-219,892,-135
23:58:44.108,,-293,743,54
23:58:44.145,,-305,628,151
23:58:44.182,,-341,611,220
23:58:44.219,,-327,473,207
23:58:44.256,,-354,527,297
23:58:44.293,,-249,638,388
23:58:44.330,,-270,293,1128
23:58:44.367,,-325,109,1296
23:58:44.404,,-578,685,845
23:58:44.441,,-558,899,506
23:58:44.478,,-477,1230,37
23:58:44.515,,-456,1167,177
23:58:44.552,,-452,980,219
23:58:44.589,,-396,775,160
23:58:44.626,,-417,714,467
23:58:44.664,,-412,501,927
23:58:44.701,,-443,588,962
23:58:44.738,,-310,685,482
23:58:44.775,,-379,695,343
23:58:44.812,,-393,592,298
23:58:44.849,,-447,633,358
23:58:44.886,,-524,370,394
23:58:44.923,,-331,282,777
23:58:44.960,,-428,554,858
23:58:44.997,,-431,533,1093
23:58:45.034,,-338,462,1048
23:58:45.071,,-141,474,1196
23:58:45.108,,-111,368,974
23:58:45.145,,-24,563,949
23:58:45.182,,-88,785,936
23:58:45.219,,-162,732,656
23:58:45.256,,-167,592,511
23:58:45.293,,-207,544,435
23:58:45.330,,-231,411,317
23:58:45.367,,-365,460,421
23:58:45.404,,-346,309,455
23:58:45.441,,-379,524,356
23:58:45.478,,-409,898,414
23:58:45.515,,-382,1066,319
23:58:45.552,,-329,1203,-10
23:58:45.589,,-317,1372,-131
23:58:45.626,,-219,1404,-272
23:58:45.663,,-234,1316,-390
23:58:45.700,,-179,919,-366
23:58:45.737,,-193,850,-508
23:58:45.775,,-143,774,-558
23:58:45.812,,-61,653,-508
23:58:45.849,,-48,667,-424
23:58:45.886,,-38,491,-378
23:58:45.923,,-101,640,-473
23:58:45.960,,-137,531,-571
23:58:45.997,,-166,629,-663
23:58:46.034,,-196,593,-784
23:58:46.071,,-150,577,-828
23:58:46.108,,-145,724,-998
23:58:46.145,,-66,585,-1158
23:58:46.182,,65,445,-1293
23:58:46.219,,-53,620,-1003
23:58:46.256,,52,500,-901
23:58:46.293,,223,373,-943
23:58:46.330,,268,395,-921
23:58:46.367,,177,229,-937
23:58:46.404,,140,197,-838
23:58:46.441,,23,111,-905
23:58:46.478,,-58,251,-750
23:58:46.515,,-87,244,-705
23:58:46.552,,-147,379,-635
23:58:46.589,,-212,530,-652
23:58:46.626,,-260,490,-802
23:58:46.663,,-249,417,-861
23:58:46.700,,-179,298,-960
23:58:46.737,,-111,263,-1068
23:58:46.774,,-170,479,-1185
23:58:46.811,,-179,561,-1092
23:58:46.848,,-228,407,-852
23:58:46.886,,-260,308,-956
23:58:46.923,,-152,316,-1101
23:58:46.960,,-73,313,-993
23:58:46.997,,-59,441,-769
23:58:47.034,,-75,419,-673
23:58:47.071,,-117,412,-585
23:58:47.108,,-191,565,-661
23:58:47.145,,-243,552,-704
23:58:47.182,,-275,670,-620
23:58:47.219,,-353,715,-635
23:58:47.256,,-310,686,-548
23:58:47.293,,-318,837,-513
23:58:47.330,,-291,854,-498
23:58:47.367,,-232,1003,-623
23:58:47.404,,-136,1105,-728
23:58:47.441,,-111,989,-554
23:58:47.478,,-27,759,-425
23:58:47.515,,-19,780,-547
23:58:47.552,,4,771,-572
23:58:47.589,,-37,652,-524
23:58:47.626,,-100,584,-520
23:58:47.663,,-137,584,-484
23:58:47.700,,-189,643,-475
23:58:47.737,,-246,734,-479
23:58:47.774,,-261,725,-372
23:58:47.811,,-267,851,-326
23:58:47.848,,-247,894,-407
23:58:47.885,,-214,911,-479
23:58:47.922,,-100,852,-479
23:58:47.959,,-186,849,-602
23:58:47.997,,-354,837,-720
23:58:48.033,,-313,1081,-787
23:58:48.071,,-317,805,-620
23:58:48.108,,-375,635,-634
23:58:48.145,,-315,900,-688
23:58:48.182,,-154,922,-641
23:58:48.219,,-76,688,-519
23:58:48.256,,-86,622,-454
23:58:48.293,,-96,582,-423
23:58:48.330,,-130,758,-354
23:58:48.367,,-160,812,-350
23:58:48.404,,-231,759,-381
23:58:48.441,,-329,841,-381
23:58:48.478,,-384,880,-423
23:58:48.515,,-313,1115,-434
23:58:48.552,,-103,1153,-362
23:58:48.589,,83,1226,-422
23:58:48.626,,156,1119,-362
23:58:48.663,,96,955,-182
23:58:48.700,,179,894,-126
23:58:48.737,,191,913,-190
23:58:48.774,,159,956,-255
23:58:48.811,,118,896,-295
23:58:48.848,,6,747,-269
23:58:48.885,,-45,650,-257
23:58:48.922,,-109,727,-254
23:58:48.959,,-135,673,-317
23:58:48.997,,-162,767,-369
23:58:49.034,,-191,818,-259
23:58:49.071,,-208,874,-377
23:58:49.108,,-121,944,-580
23:58:49.145,,-94,999,-523
23:58:49.182,,-195,900,-531
23:58:49.219,,-215,933,-455
23:58:49.256,,-69,866,-411
23:58:49.293,,-108,991,-425
23:58:49.330,,13,1200,-542
23:58:49.367,,250,1305,-568
23:58:49.404,,226,1174,-498
23:58:49.441,,124,845,-323
23:58:49.478,,90,622,-213
23:58:49.515,,76,641,-204
23:58:49.552,,92,694,-196
23:58:49.589,,39,857,-241
23:58:49.626,,-22,1099,-218
23:58:49.663,,-112,1117,-279
23:58:49.700,,-203,1038,-271
23:58:49.737,,-300,1106,-192
23:58:49.774,,-271,1048,-97
23:58:49.811,,-177,1132,7
23:58:49.848,,-44,1100,64
23:58:49.885,,0,951,201
23:58:49.922,,49,1031,217
23:58:49.959,,215,1040,57
23:58:49.996,,142,832,-43
23:58:50.033,,-12,829,-40
23:58:50.071,,-87,770,-119
23:58:50.108,,-162,699,-195
23:58:50.145,,-223,755,-168
23:58:50.182,,-217,765,-241
23:58:50.219,,-178,797,-305
23:58:50.256,,-243,1092,-273
23:58:50.293,,-290,985,-372
23:58:50.330,,-173,922,-341
23:58:50.367,,-188,998,-414
23:58:50.404,,41,1510,-648
23:58:50.441,,234,1005,-339
23:58:50.478,,-64,699,-292
23:58:50.515,,-118,747,-457
23:58:50.552,,-26,974,-535
23:58:50.589,,17,880,-281
23:58:50.626,,19,787,-147
23:58:50.663,,12,646,-233
23:58:50.700,,32,877,-322
23:58:50.737,,43,870,-318
23:58:50.774,,22,848,-287
23:58:50.811,,69,826,-193
23:58:50.848,,175,749,-80
23:58:50.885,,306,750,-14
23:58:50.922,,539,679,-51
23:58:50.959,,774,570,36
23:58:50.996,,847,658,292
23:58:51.033,,1188,889,491
23:58:51.070,,1577,841,356
23:58:51.107,,1303,607,271
23:58:51.144,,955,578,315
23:58:51.182,,728,557,215
23:58:51.219,,604,610,146
23:58:51.256,,584,700,155
23:58:51.293,,566,699,163
23:58:51.330,,531,658,211
23:58:51.367,,473,622,242
23:58:51.404,,628,630,319
23:58:51.441,,871,409,209
23:58:51.478,,920,419,285
23:58:51.515,,1366,812,464
23:58:51.552,,1035,414,191
23:58:51.589,,868,477,304
23:58:51.626,,1183,719,343
23:58:51.663,,1171,571,183
23:58:51.700,,896,464,176
23:58:51.737,,750,522,235
23:58:51.774,,694,581,189
23:58:51.811,,672,601,150
23:58:51.848,,624,524,153
23:58:51.885,,495,582,174
23:58:51.922,,477,669,106
23:58:51.959,,576,640,22
23:58:51.996,,698,646,-37
23:58:52.033,,749,683,-17
23:58:52.070,,967,743,-14
23:58:52.107,,947,692,-27
23:58:52.144,,762,730,123
23:58:52.181,,816,681,206
23:58:52.219,,1007,654,193
23:58:52.256,,959,511,177
23:58:52.293,,786,428,181
23:58:52.330,,619,445,157
23:58:52.367,,583,457,102
23:58:52.404,,603,512,110
23:58:52.441,,636,573,144
23:58:52.478,,619,613,246
23:58:52.515,,568,551,385
23:58:52.552,,609,392,476
23:58:52.589,,1009,356,326
23:58:52.626,,946,449,397
23:58:52.663,,1199,759,519
23:58:52.700,,1261,645,298
23:58:52.737,,658,469,314
23:58:52.774,,791,533,313
23:58:52.811,,1079,616,175
23:58:52.848,,992,499,224
23:58:52.885,,885,463,250
23:58:52.922,,843,495,194
23:58:52.959,,836,491,176
23:58:52.996,,858,520,128
23:58:53.033,,877,571,89
23:58:53.070,,842,578,61
23:58:53.107,,719,540,69
23:58:53.144,,647,513,71
23:58:53.181,,687,483,69
23:58:53.218,,669,471,168
23:58:53.255,,665,503,320
23:58:53.292,,911,520,315
23:58:53.330,,879,521,382
23:58:53.367,,837,469,603
23:58:53.404,,1224,532,597
23:58:53.441,,1088,468,470
23:58:53.478,,799,367,429
23:58:53.515,,700,457,338
23:58:53.552,,704,560,222
23:58:53.589,,687,647,218
23:58:53.626,,667,670,224
23:58:53.663,,565,559,157
23:58:53.700,,600,558,275
23:58:53.737,,833,574,220
23:58:53.774,,818,610,209
23:58:53.811,,1408,954,349
23:58:53.848,,1097,633,127
23:58:53.885,,792,557,316
23:58:53.922,,1264,864,406
23:58:53.959,,1309,668,417
23:58:53.996,,1043,386,427
23:58:54.033,,895,357,482
23:58:54.070,,787,382,411
23:58:54.107,,685,368,325
23:58:54.144,,611,382,257
23:58:54.181,,532,529,314
23:58:54.218,,447,615,151
23:58:54.255,,462,505,80
23:58:54.292,,463,434,137
23:58:54.329,,581,477,122
23:58:54.366,,717,703,251
23:58:54.403,,607,676,429
23:58:54.440,,822,440,658
23:58:54.477,,1169,484,767
23:58:54.515,,1014,480,684
23:58:54.552,,847,413,580
23:58:54.589,,801,428,461
23:58:54.626,,676,445,349
23:58:54.663,,636,445,262
23:58:54.700,,625,499,276
23:58:54.737,,630,453,236
23:58:54.774,,602,533,293
23:58:54.811,,532,547,274
23:58:54.848,,571,513,313
23:58:54.885,,689,405,378
23:58:54.922,,827,336,324
23:58:54.959,,825,426,297
23:58:54.996,,1063,600,337
23:58:55.033,,1209,886,496
23:58:55.070,,878,546,239
23:58:55.107,,940,558,346
23:58:55.144,,1242,732,320
23:58:55.181,,1045,545,221
23:58:55.218,,732,473,245
23:58:55.255,,733,519,210
23:58:55.292,,774,488,116
23:58:55.329,,724,554,124
23:58:55.366,,698,538,77
23:58:55.403,,699,529,52
23:58:55.440,,715,641,115
23:58:55.477,,699,581,125
23:58:55.514,,679,550,162
23:58:55.551,,768,634,284
23:58:55.589,,1105,636,185
23:58:55.626,,870,466,120
23:58:55.663,,470,574,390
23:58:55.700,,962,817,410
23:58:55.737,,1027,659,161
23:58:55.774,,759,364,223
23:58:55.811,,697,539,297
23:58:55.848,,658,533,202
23:58:55.885,,607,555,192
23:58:55.922,,637,615,249
23:58:55.959,,562,559,294
23:58:55.996,,543,500,309
23:58:56.033,,689,481,266
23:58:56.070,,732,404,151
23:58:56.107,,643,432,95
23:58:56.144,,891,677,140
23:58:56.181,,1081,766,118
23:58:56.218,,1026,599,27
23:58:56.255,,1200,703,191
23:58:56.292,,1317,731,144
23:58:56.329,,1059,567,163
23:58:56.366,,843,466,235
23:58:56.403,,706,430,264
23:58:56.440,,617,398,251
23:58:56.477,,581,454,287
23:58:56.514,,607,425,274
23:58:56.551,,656,383,198
23:58:56.588,,652,411,161
23:58:56.626,,728,487,147
23:58:56.663,,945,575,187
23:58:56.700,,1217,574,177
23:58:56.737,,1204,416,109
23:58:56.774,,902,462,173
23:58:56.811,,829,665,399
23:58:56.848,,1202,617,269
23:58:56.885,,878,385,257
23:58:56.922,,528,403,363
23:58:56.959,,467,465,285
23:58:56.996,,436,509,291
23:58:57.033,,466,581,333
23:58:57.070,,466,585,359
23:58:57.107,,421,601,444
23:58:57.144,,632,590,401
23:58:57.181,,791,516,297
23:58:57.218,,1240,767,404
23:58:57.255,,1443,720,253
23:58:57.292,,1164,543,158
23:58:57.329,,1367,710,322
23:58:57.366,,1256,609,137
23:58:57.403,,867,310,159
23:58:57.440,,672,340,209
23:58:57.477,,757,367,163
23:58:57.514,,802,374,107
23:58:57.551,,714,340,74
23:58:57.588,,702,350,70
23:58:57.625,,732,359,41
23:58:57.662,,725,382,6
23:58:57.700,,672,489,129
23:58:57.737,,949,599,154
23:58:57.774,,741,734,444
23:58:57.811,,1065,676,544
23:58:57.848,,1564,683,439
23:58:57.885,,913,671,617
23:58:57.922,,413,431,593
23:58:57.959,,529,-6,258
23:58:57.996,,626,168,220
23:58:58.033,,694,385,294
23:58:58.070,,739,362,438
23:58:58.107,,651,328,499
23:58:58.144,,792,423,456
23:58:58.181,,946,444,391
23:58:58.218,,764,362,334
23:58:58.255,,973,555,345
23:58:58.292,,1171,773,309
23:58:58.329,,921,532,230
23:58:58.366,,1196,506,318
23:58:58.403,,1261,505,351
23:58:58.440,,998,430,347
23:58:58.477,,838,403,347
23:58:58.514,,865,413,312
23:58:58.551,,871,397,297
23:58:58.588,,811,366,282
23:58:58.625,,676,318,198
23:58:58.662,,583,301,114
23:58:58.699,,616,318,75
23:58:58.736,,630,461,86
23:58:58.773,,563,619,169
23:58:58.810,,869,573,242
23:58:58.848,,836,660,437
23:58:58.885,,875,549,502
23:58:58.922,,1435,333,432
23:58:58.959,,1171,399,330
23:58:58.996,,750,564,317
23:58:59.033,,609,614,305
23:58:59.070,,617,668,160
23:58:59.107,,622,746,166
23:58:59.144,,628,619,166
23:58:59.181,,561,538,218
23:58:59.218,,689,530,248
23:58:59.255,,895,474,92
23:58:59.292,,734,467,60
23:58:59.329,,958,613,139
23:58:59.366,,1169,772,44
23:58:59.403,,875,628,53
23:58:59.440,,1044,730,244
23:58:59.477,,1204,715,120
23:58:59.514,,907,509,157
23:58:59.551,,681,505,268
23:58:59.588,,721,522,224
23:58:59.625,,805,604,179
23:58:59.662,,821,611,126
23:58:59.699,,712,546,54
23:58:59.736,,606,531,-28
23:58:59.773,,527,537,-45
23:58:59.810,,523,639,0
23:58:59.847,,621,816,156
23:58:59.884,,842,795,313
23:58:59.921,,1075,759,294
23:58:59.959,,819,610,372
23:58:59.996,,785,432,585
23:59:00.033,,1029,477,484
23:59:00.070,,854,306,433
23:59:00.107,,566,293,457
23:59:00.144,,562,373,315
23:59:00.181,,592,435,167
23:59:00.218,,587,498,141
23:59:00.255,,574,559,120
23:59:00.292,,695,827,207
23:59:00.329,,791,993,313
23:59:00.366,,900,657,375
23:59:00.403,,887,746,601
23:59:00.440,,841,995,802
23:59:00.477,,568,921,693
23:59:00.514,,586,1005,708
23:59:00.551,,708,1087,764
23:59:00.588,,686,1000,635
23:59:00.625,,678,901,622
23:59:00.662,,774,805,499
23:59:00.699,,775,751,524
23:59:00.736,,619,697,419
23:59:00.773,,391,658,344
23:59:00.810,,85,626,350
23:59:00.847,,-44,657,417
23:59:00.884,,-104,543,357
23:59:00.921,,-88,638,394
23:59:00.958,,-41,758,317
23:59:00.995,,270,1227,353
23:59:01.032,,647,255,1753
23:59:01.070,,149,486,1390
23:59:01.107,,-65,241,797
23:59:01.144,,-211,497,475
23:59:01.181,,-480,972,174
23:59:01.218,,-270,1218,-182
23:59:01.255,,-40,690,536
23:59:01.292,,-166,597,798
23:59:01.329,,-219,272,966
23:59:01.366,,-307,668,595
23:59:01.403,,-60,76,1331
23:59:01.440,,-139,200,1125
23:59:01.477,,-247,311,462
23:59:01.514,,-676,1241,-381
23:59:01.551,,-678,1638,-679
23:59:01.588,,-217,1638,261
23:59:01.625,,-387,1388,1436
23:59:01.662,,-614,553,625
23:59:01.699,,-527,367,-75
23:59:01.736,,-420,475,11
23:59:01.773,,-239,124,-220
23:59:01.810,,50,739,-463
23:59:01.847,,-216,1364,-63
23:59:01.884,,-271,825,-211
23:59:01.921,,-561,872,579
23:59:01.958,,-791,585,641
23:59:01.995,,-710,807,328
23:59:02.032,,-515,72,835
23:59:02.069,,-420,231,373
23:59:02.107,,-233,75,252
23:59:02.144,,28,172,221
23:59:02.181,,30,1480,1581
23:59:02.218,,407,1221,1737
23:59:02.255,,263,971,1472
23:59:02.292,,121,497,1029
23:59:02.329,,22,461,617
23:59:02.366,,54,508,458
23:59:02.403,,-359,459,987
23:59:02.440,,-411,337,568
23:59:02.477,,-364,372,710
23:59:02.514,,-295,-135,806
23:59:02.551,,-127,-526,580
23:59:02.588,,460,431,1052
23:59:02.625,,55,438,1377
23:59:02.662,,-274,731,758
23:59:02.699,,-282,1049,636
23:59:02.736,,-341,463,559
23:59:02.773,,-483,408,884
23:59:02.810,,-594,294,791
23:59:02.847,,-552,637,661
23:59:02.884,,-715,546,595
23:59:02.921,,-468,713,780
23:59:02.958,,-287,886,595
23:59:02.995,,-109,412,523
23:59:03.032,,-149,386,569
23:59:03.069,,-323,730,427
23:59:03.106,,-335,749,306
23:59:03.144,,-301,904,250
23:59:03.181,,-266,922,150
23:59:03.218,,-222,1099,123
23:59:03.255,,-118,995,26
23:59:03.292,,-62,630,-519
23:59:03.329,,-60,1563,-999
23:59:03.366,,67,1154,-1114
23:59:03.403,,212,1635,-1077
23:59:03.440,,298,963,-527
23:59:03.477,,47,570,-392
23:59:03.514,,-103,417,-475
23:59:03.551,,-190,266,-604
23:59:03.588,,-235,61,-743
23:59:03.625,,-286,37,-954
23:59:03.662,,-240,1127,305
23:59:03.699,,-445,738,-416
23:59:03.736,,-572,866,-215
23:59:03.773,,-528,854,93
23:59:03.810,,-504,1155,26
23:59:03.847,,-492,767,-542
23:59:03.884,,-377,1026,-650
23:59:03.921,,-793,893,-399
23:59:03.958,,-673,442,-220
23:59:03.995,,-665,611,-274
23:59:04.032,,-719,579,-322
23:59:04.069,,-678,941,173
23:59:04.106,,-433,693,112
23:59:04.144,,-679,900,305
23:59:04.181,,-753,721,251
23:59:04.218,,-536,576,55
23:59:04.255,,-448,484,-240
23:59:04.292,,-716,408,-256
23:59:04.329,,-834,922,161
23:59:04.366,,-713,724,-67
23:59:04.403,,-527,614,67
23:59:04.440,,-650,574,108
23:59:04.477,,-761,1191,841
23:59:04.514,,-726,1051,1390
23:59:04.551,,-514,944,842
23:59:04.588,,-292,1138,366
23:59:04.625,,-449,618,7
23:59:04.662,,-176,377,-563
23:59:04.699,,-377,434,-284
23:59:04.736,,-389,304,-115
23:59:04.773,,-575,483,328
23:59:04.810,,-413,735,1106
23:59:04.847,,47,432,1129
23:59:04.884,,14,524,643
23:59:04.921,,-237,1064,257
23:59:04.958,,-564,318,378
23:59:04.995,,-915,1072,655
23:59:05.032,,-727,1440,509
23:59:05.069,,-798,1211,-88
23:59:05.106,,-786,1146,51
23:59:05.144,,-581,1339,271
23:59:05.181,,-324,933,107
23:59:05.218,,-372,951,322
23:59:05.255,,-331,704,390
23:59:05.292,,-366,651,374
23:59:05.329,,-399,719,342
23:59:05.366,,-474,1059,416
23:59:05.403,,-576,1266,456
23:59:05.440,,-539,707,266
23:59:05.477,,-557,542,313
23:59:05.514,,-586,420,612
23:59:05.551,,-675,478,895
23:59:05.588,,-416,284,914
23:59:05.625,,-297,265,668
23:59:05.662,,-322,515,469
23:59:05.699,,-275,858,396
23:59:05.736,,-351,724,50
23:59:05.773,,-463,727,-241
23:59:05.810,,-620,770,-283
23:59:05.847,,-660,741,-474
23:59:05.884,,-769,732,-526
23:59:05.921,,-646,488,-683
23:59:05.958,,-490,350,-569
23:59:05.996,,-415,358,-620
23:59:06.033,,-421,294,-755
23:59:06.070,,31,463,-311
23:59:06.107,,-385,703,-1000
23:59:06.144,,-542,286,-1663
23:59:06.181,,-328,421,-1171
23:59:06.218,,-316,179,-1260
23:59:06.255,,-320,309,-1267
23:59:06.292,,-262,397,-1108
23:59:06.329,,-185,303,-775
23:59:06.366,,-259,357,-606
23:59:06.403,,-333,312,-530
23:59:06.440,,-79,222,-303
23:59:06.477,,-432,885,-347
23:59:06.514,,-782,831,-322
23:59:06.551,,-804,687,-360
23:59:06.588,,-451,677,-767
23:59:06.625,,-548,1024,-466
23:59:06.662,,-568,914,-295
23:59:06.699,,-387,992,-181
23:59:06.736,,-342,1185,140
23:59:06.773,,-219,961,122
23:59:06.810,,-368,908,-290
23:59:06.847,,-432,700,-335
23:59:06.884,,-524,635,-298
23:59:06.921,,-611,478,-254
23:59:06.958,,-738,559,-139
23:59:06.996,,-594,552,156
23:59:07.033,,-567,973,271
23:59:07.070,,-458,858,95
23:59:07.107,,-460,915,153
23:59:07.144,,-631,801,-138
23:59:07.181,,-719,797,-385
23:59:07.218,,-767,750,-439
23:59:07.255,,-662,723,-490
23:59:07.292,,-801,558,-694
23:59:07.329,,-782,680,-341
23:59:07.366,,-678,796,-90
23:59:07.403,,-559,728,-163
23:59:07.440,,-415,1030,-225
23:59:07.477,,-408,706,-253
23:59:07.514,,-359,609,-188
23:59:07.551,,-375,396,226
23:59:07.588,,-414,326,680
23:59:07.625,,-545,364,824
23:59:07.662,,-599,277,884
23:59:07.699,,-456,390,852
23:59:07.736,,-236,422,1004
23:59:07.773,,-84,751,1481
23:59:07.810,,-185,644,1325
23:59:07.847,,-5,543,1003
23:59:07.884,,-87,521,1005
23:59:07.921,,-137,580,661
23:59:07.959,,-173,544,584
23:59:07.996,,-187,487,621
23:59:08.033,,-313,515,603
23:59:08.070,,-348,369,652
23:59:08.107,,-410,387,814
23:59:08.144,,-439,311,817
23:59:08.181,,-405,337,704
23:59:08.218,,-459,510,994
23:59:08.255,,-519,492,876
23:59:08.292,,-524,569,748
23:59:08.329,,-635,707,826
23:59:08.366,,-599,973,773
23:59:08.403,,-549,670,514
23:59:08.440,,-508,599,422
23:59:08.477,,-437,836,489
23:59:08.514,,-241,815,396
23:59:08.551,,-150,578,535
23:59:08.588,,-186,617,582
23:59:08.625,,-131,596,302
23:59:08.662,,-261,721,489
23:59:08.699,,-363,690,368
23:59:08.736,,-538,812,307
23:59:08.773,,-550,863,327
23:59:08.810,,-463,941,-9
23:59:08.847,,-442,1240,33
23:59:08.885,,-248,1118,-85
23:59:08.922,,-154,1158,-223
23:59:08.959,,-81,1049,-216
23:59:08.996,,14,878,-192
23:59:09.033,,-63,905,-439
23:59:09.070,,-144,793,-691
23:59:09.107,,-259,722,-693
23:59:09.144,,-323,682,-658
23:59:09.181,,-292,480,-661
23:59:09.218,,-292,397,-494
23:59:09.255,,-320,187,-607
23:59:09.292,,-393,199,-703
23:59:09.329,,-435,321,-431
23:59:09.366,,-421,262,-681
23:59:09.403,,-330,30,-1006
23:59:09.440,,-274,38,-862
23:59:09.477,,-51,-249,-1108
23:59:09.514,,4,-357,-1248
23:59:09.551,,-16,-174,-1314
23:59:09.588,,5,-115,-1534
23:59:09.625,,26,10,-1376
23:59:09.662,,-54,80,-1389
23:59:09.699,,-75,74,-1212
23:59:09.736,,-83,53,-1057
23:59:09.773,,-60,122,-710
23:59:09.811,,19,44,-533
23:59:09.848,,44,-47,-500
23:59:09.885,,130,-63,-457
23:59:09.922,,183,88,-801
23:59:09.959,,455,-29,-577
23:59:09.996,,1217,-525,-1139
23:59:10.033,,636,913,-930
23:59:10.070,,513,1744,-19
23:59:10.107,,1317,1074,-1200
23:59:10.144,,1056,1047,-670
23:59:10.181,,1146,487,-369
23:59:10.218,,1178,448,-60
23:59:10.255,,1332,709,-277
23:59:10.292,,1022,1090,-327
23:59:10.329,,562,1032,-210
23:59:10.366,,318,866,-128
23:59:10.403,,308,797,-195
23:59:10.440,,616,748,-311
23:59:10.477,,729,308,-499
23:59:10.514,,1142,694,-679
23:59:10.551,,1004,864,-621
23:59:10.588,,1118,800,-339
23:59:10.625,,1552,952,-401
23:59:10.662,,1463,749,-513
23:59:10.699,,1200,906,-318
23:59:10.736,,997,1067,-379
23:59:10.774,,978,1010,-466
23:59:10.811,,1129,717,-507
23:59:10.848,,1037,63,-402
23:59:10.885,,655,-191,-122
23:59:10.922,,424,-46,32
23:59:10.959,,346,265,74
23:59:10.996,,410,410,-2
23:59:11.033,,346,351,-17
23:59:11.070,,554,408,67
23:59:11.107,,982,554,144
23:59:11.144,,1729,850,243
23:59:11.181,,1998,1471,-367
23:59:11.218,,1218,1674,-454
23:59:11.255,,621,1072,-209
23:59:11.292,,595,726,-251
23:59:11.329,,683,551,-352
23:59:11.366,,733,415,-326
23:59:11.403,,613,207,-264
23:59:11.440,,523,180,-316
23:59:11.477,,446,254,-302
23:59:11.514,,565,368,-257
23:59:11.551,,627,428,-356
23:59:11.588,,382,391,-319
23:59:11.625,,451,495,-289
23:59:11.663,,943,645,-470
23:59:11.700,,1291,793,-387
23:59:11.737,,1680,1040,-278
23:59:11.774,,1529,1180,-109
23:59:11.811,,1108,1125,67
23:59:11.848,,928,1074,187
23:59:11.885,,948,872,86
23:59:11.922,,933,645,114
23:59:11.959,,870,546,191
23:59:11.996,,709,441,156
23:59:12.033,,542,185,3
23:59:12.070,,369,212,-96
23:59:12.107,,377,393,-125
23:59:12.144,,432,496,-218
23:59:12.181,,497,727,-116
23:59:12.218,,732,810,-120
23:59:12.255,,695,833,-86
23:59:12.292,,823,728,-22
23:59:12.329,,1350,808,-50
23:59:12.366,,1569,622,-94
23:59:12.403,,1416,509,-142
23:59:12.440,,983,675,-109
23:59:12.477,,691,820,28
23:59:12.514,,686,927,57
23:59:12.551,,663,968,74
23:59:12.589,,490,912,112
23:59:12.626,,396,700,72
23:59:12.663,,650,653,-82
23:59:12.700,,575,696,-193
23:59:12.737,,689,916,-141
23:59:12.774,,1150,882,-266
23:59:12.811,,986,695,-255
23:59:12.848,,1429,849,-418
23:59:12.885,,1376,694,-415
23:59:12.922,,988,986,-87
23:59:12.959,,937,1124,-134
23:59:12.996,,985,1183,-225
23:59:13.033,,982,1346,-114
23:59:13.070,,854,1169,-81
23:59:13.107,,648,777,-57
23:59:13.144,,435,440,43
23:59:13.181,,256,249,75
23:59:13.218,,132,-2,57
23:59:13.255,,40,-48,130
23:59:13.292,,121,212,198
23:59:13.329,,193,712,332
23:59:13.366,,233,1801,354
23:59:13.403,,-130,1997,358
23:59:13.440,,-459,1935,148
23:59:13.477,,-507,1605,0
23:59:13.514,,-318,955,-228
23:59:13.551,,-161,365,-338
23:59:13.589,,-179,33,-236
23:59:13.626,,-201,-159,-228
23:59:13.663,,-261,-261,-239
23:59:13.700,,-457,-457,-325
23:59:13.737,,-672,-366,-564
23:59:13.774,,-355,-6,-530
23:59:13.811,,-187,-315,-193
23:59:13.848,,48,-590,-700
23:59:13.885,,179,-3,-915
23:59:13.922,,1133,1505,-1857
23:59:13.959,,390,1863,-1244
23:59:13.996,,7,1837,-782
23:59:14.033,,-74,1500,-422
23:59:14.070,,-32,1230,-195
23:59:14.107,,72,824,-124
23:59:14.144,,191,448,-173
23:59:14.181,,220,458,-160
23:59:14.218,,294,428,-171
23:59:14.255,,407,337,-211
23:59:14.292,,500,296,-280
23:59:14.329,,616,452,-250
23:59:14.366,,985,925,42
23:59:14.403,,1101,1361,330
23:59:14.440,,1285,1140,324
23:59:14.477,,1484,398,326
23:59:14.514,,1187,180,453
23:59:14.552,,933,517,298
23:59:14.589,,746,863,113
23:59:14.626,,627,851,69
23:59:14.663,,544,720,44
23:59:14.700,,509,675,46
23:59:14.737,,401,675,65
23:59:14.774,,360,646,28
23:59:14.811,,584,730,-73
23:59:14.848,,754,686,-193
23:59:14.885,,1060,847,10
23:59:14.922,,1326,826,-106
23:59:14.959,,973,764,-149
23:59:14.996,,1377,720,-147
23:59:15.033,,1330,909,-82
23:59:15.070,,1186,643,45
23:59:15.107,,1026,519,124
23:59:15.144,,1007,452,83
23:59:15.181,,970,574,137
23:59:15.218,,920,435,78
23:59:15.255,,726,305,58
23:59:15.292,,616,303,79
23:59:15.329,,578,203,-10
23:59:15.366,,510,310,93
23:59:15.403,,586,426,117
23:59:15.440,,813,637,291
23:59:15.477,,762,640,465
23:59:15.515,,1063,718,439
23:59:15.552,,1387,817,390
23:59:15.589,,1180,658,217
23:59:15.626,,934,707,186
23:59:15.663,,815,711,106
23:59:15.700,,765,718,85
23:59:15.737,,646,695,105
23:59:15.774,,510,680,122
23:59:15.811,,359,632,189
23:59:15.848,,340,454,45
23:59:15.885,,853,903,-28
23:59:15.922,,593,771,11
23:59:15.959,,1212,1097,115
23:59:15.996,,1011,809,-57
23:59:16.033,,1304,834,-26
23:59:16.070,,1579,848,44
23:59:16.107,,1311,657,129
23:59:16.144,,1118,545,138
23:59:16.181,,997,548,154
23:59:16.218,,904,495,151
23:59:16.255,,768,477,154
23:59:16.292,,623,329,54
23:59:16.329,,452,254,35
23:59:16.366,,505,267,-44
23:59:16.404,,526,365,-5
23:59:16.441,,464,355,17
23:59:16.478,,587,569,110
23:59:16.515,,876,707,196
23:59:16.552,,1047,1049,346
23:59:16.589,,1225,1127,333
23:59:16.626,,1373,889,112
23:59:16.663,,1026,769,130
23:59:16.700,,719,755,-15
23:59:16.737,,625,622,12
23:59:16.774,,537,496,93
23:59:16.811,,445,538,92
23:59:16.848,,345,578,58
23:59:16.885,,344,620,98
23:59:16.922,,690,744,96
23:59:16.959,,827,740,9
23:59:16.996,,1108,726,12
23:59:17.033,,1230,783,67
23:59:17.070,,930,644,135
23:59:17.107,,1198,816,222
23:59:17.144,,1124,802,340
23:59:17.181,,968,581,336
23:59:17.218,,895,531,347
23:59:17.255,,908,454,335
23:59:17.292,,874,262,241
23:59:17.329,,916,432,-58
23:59:17.367,,561,681,155
23:59:17.404,,636,509,45
23:59:17.441,,624,412,4
23:59:17.478,,552,370,-66
23:59:17.515,,489,505,45
23:59:17.552,,631,615,202
23:59:17.589,,721,592,337
23:59:17.626,,960,568,363
23:59:17.663,,1266,656,486
23:59:17.700,,992,486,405
23:59:17.737,,849,524,345
23:59:17.774,,691,692,281
23:59:17.811,,582,687,241
23:59:17.848,,540,656,208
23:59:17.885,,438,667,212
23:59:17.922,,356,619,209
23:59:17.959,,597,627,191
23:59:17.996,,815,543,19
23:59:18.033,,977,602,48
23:59:18.070,,1226,749,47
23:59:18.107,,1044,734,47
23:59:18.144,,1254,760,65
23:59:18.181,,1293,772,192
23:59:18.218,,1147,560,221
23:59:18.256,,1006,437,319
23:59:18.293,,914,407,342
23:59:18.330,,871,410,293
23:59:18.367,,717,358,185
23:59:18.404,,484,256,121
23:59:18.441,,309,222,51
23:59:18.478,,255,267,38
23:59:18.515,,349,301,10
23:59:18.552,,563,462,71
23:59:18.589,,1253,677,127
23:59:18.626,,1665,756,247
23:59:18.663,,1168,732,406
23:59:18.700,,1310,612,321
23:59:18.737,,1050,533,241
23:59:18.774,,835,591,175
23:59:18.811,,707,599,106
23:59:18.848,,582,615,89
23:59:18.885,,530,591,92
23:59:18.922,,512,520,93
23:59:18.959,,488,526,104
23:59:18.996,,385,497,133
23:59:19.033,,510,526,131
23:59:19.070,,839,616,88
23:59:19.107,,816,529,5
23:59:19.144,,1084,718,113
23:59:19.182,,1001,622,49
23:59:19.219,,1117,607,33
23:59:19.256,,1471,726,45
23:59:19.293,,1360,688,97
23:59:19.330,,1050,528,131
23:59:19.367,,854,415,161
23:59:19.404,,806,402,149
23:59:19.441,,719,406,129
23:59:19.478,,526,342,130
23:59:19.515,,395,340,129
23:59:19.552,,449,365,102
23:59:19.589,,544,405,61
23:59:19.626,,495,467,146
23:59:19.663,,960,649,211
23:59:19.700,,1371,703,164
23:59:19.737,,1030,698,263
23:59:19.774,,1154,760,368
23:59:19.811,,1213,546,237
23:59:19.848,,803,338,271
23:59:19.885,,635,435,266
23:59:19.922,,582,431,210
23:59:19.959,,508,444,220
23:59:19.996,,449,412,243
23:59:20.033,,380,437,291
23:59:20.070,,416,371,281
23:59:20.108,,717,589,341
23:59:20.145,,942,610,234
23:59:20.182,,1125,564,223
23:59:20.219,,1107,704,182
23:59:20.256,,1067,617,68
23:59:20.293,,1333,761,78
23:59:20.330,,1133,674,84
23:59:20.367,,846,599,198
23:59:20.404,,670,457,261
23:59:20.441,,649,358,271
23:59:20.478,,683,399,276
23:59:20.515,,611,407,209
23:59:20.552,,458,401,167
23:59:20.589,,449,441,143
23:59:20.626,,614,418,50
23:59:20.663,,700,517,17
23:59:20.700,,788,632,154
23:59:20.737,,1317,877,66
23:59:20.774,,914,681,157
23:59:20.811,,1104,892,410
23:59:20.848,,1070,799,292
23:59:20.885,,829,592,251
23:59:20.922,,649,485,225
23:59:20.959,,519,363,246
23:59:20.997,,466,222,239
23:59:21.034,,470,206,207
23:59:21.071,,505,312,265
23:59:21.108,,572,459,192
23:59:21.145,,800,599,193
23:59:21.182,,796,619,53
23:59:21.219,,625,557,3
23:59:21.256,,1115,813,54
23:59:21.293,,1308,851,-75
23:59:21.330,,1290,632,-50
23:59:21.367,,1401,814,126
23:59:21.404,,1158,730,183
23:59:21.441,,791,560,257
23:59:21.478,,698,429,217
23:59:21.515,,671,400,162
23:59:21.552,,580,447,160
23:59:21.589,,504,421,148
23:59:21.626,,506,396,107
23:59:21.663,,720,480,70
23:59:21.700,,770,401,2
23:59:21.737,,814,482,136
23:59:21.774,,892,584,165
23:59:21.811,,735,541,282
23:59:21.848,,1131,675,324
23:59:21.885,,1240,679,169
23:59:21.922,,922,555,203
23:59:21.959,,811,568,168
23:59:21.997,,738,620,160
23:59:22.034,,679,587,111
23:59:22.071,,604,652,199
23:59:22.108,,562,646,188
23:59:22.145,,521,552,343
23:59:22.182,,433,422,253
23:59:22.219,,657,462,108
23:59:22.256,,798,669,42
23:59:22.293,,1312,852,-29
23:59:22.330,,1162,792,-79
23:59:22.367,,1154,671,42
23:59:22.404,,1297,743,92
23:59:22.441,,1161,635,142
23:59:22.478,,837,454,213
23:59:22.515,,844,436,225
23:59:22.552,,940,433,183
23:59:22.589,,841,409,115
23:59:22.626,,706,367,117
23:59:22.663,,584,270,91
23:59:22.700,,494,306,17
23:59:22.737,,361,378,110
23:59:22.774,,357,437,253
23:59:22.811,,799,538,159
23:59:22.848,,985,675,286
23:59:22.885,,1286,536,360
23:59:22.922,,1592,732,328
23:59:22.959,,1128,722,414
23:59:22.997,,847,550,443
23:59:23.033,,622,545,414
23:59:23.071,,530,571,387
23:59:23.108,,513,595,379
23:59:23.145,,472,605,376
23:59:23.182,,391,538,335
23:59:23.219,,476,491,262
23:59:23.256,,818,522,91
23:59:23.293,,832,529,14
23:59:23.330,,1286,784,101
23:59:23.367,,1012,702,10
23:59:23.404,,1148,636,-18
23:59:23.441,,1375,705,42
23:59:23.478,,1265,679,100
23:59:23.515,,1045,533,176
23:59:23.552,,914,449,226
23:59:23.589,,894,473,272
23:59:23.626,,841,502,253
23:59:23.663,,667,483,207
23:59:23.700,,483,332,118
23:59:23.737,,444,568,-69
23:59:23.774,,365,1350,-230
23:59:23.811,,207,1101,-397
23:59:23.848,,-83,1103,-397
23:59:23.885,,-283,1547,-247
23:59:23.922,,-420,1450,15
23:59:23.959,,-329,1527,145
23:59:23.996,,-276,1593,4
23:59:24.033,,-232,1288,-27
23:59:24.071,,-363,1023,86
23:59:24.108,,-363,584,15
23:59:24.145,,-321,275,54
23:59:24.182,,-231,95,45
23:59:24.219,,-104,-161,62
23:59:24.256,,-107,-237,137
23:59:24.293,,-240,-334,308
23:59:24.330,,-491,-362,484
23:59:24.367,,-683,-426,574
23:59:24.404,,-1224,-361,580
23:59:24.441,,-1233,-337,455
23:59:24.478,,-1244,-627,95
23:59:24.515,,-1402,-540,126
23:59:24.552,,-1186,-578,391
23:59:24.589,,-959,-506,301
23:59:24.626,,-783,-249,267
23:59:24.663,,-666,-237,156
23:59:24.700,,-635,-284,102
23:59:24.737,,-697,-236,120
23:59:24.774,,-853,-296,57
23:59:24.811,,-970,-383,82
23:59:24.848,,-1068,-416,202
23:59:24.885,,-1097,-321,366
23:59:24.923,,-1070,-396,387
23:59:24.960,,-1083,-96,617
23:59:24.997,,-991,-20,707
23:59:25.034,,-949,14,570
23:59:25.071,,-994,-4,486
23:59:25.108,,-778,-50,432
23:59:25.145,,-710,-79,491
23:59:25.182,,-613,-106,461
23:59:25.219,,-549,-190,418
23:59:25.256,,-556,-37,442
23:59:25.293,,-688,77,567
23:59:25.330,,-684,-226,627
23:59:25.367,,-762,-145,719
23:59:25.404,,-936,-286,545
23:59:25.441,,-1230,-495,438
23:59:25.478,,-960,-604,370
23:59:25.515,,-964,-540,114
23:59:25.552,,-942,-568,35
23:59:25.589,,-940,-637,63
23:59:25.626,,-915,-499,182
23:59:25.663,,-884,-250,501
23:59:25.700,,-991,-54,391
23:59:25.737,,-920,-175,121
23:59:25.774,,-911,-133,-80
23:59:25.811,,-976,135,81
23:59:25.848,,-928,109,42
23:59:25.886,,-964,101,-25
23:59:25.923,,-951,77,-12
23:59:25.960,,-963,277,161
23:59:25.997,,-894,404,272
23:59:26.034,,-1044,682,82
23:59:26.071,,-1046,676,-176
23:59:26.108,,-848,662,-196
23:59:26.145,,-846,558,-228
23:59:26.182,,-858,484,-254
23:59:26.219,,-773,417,-259
23:59:26.256,,-748,445,-134
23:59:26.293,,-728,405,-113
23:59:26.330,,-761,413,-99
23:59:26.367,,-799,500,-164
23:59:26.404,,-876,525,-198
23:59:26.441,,-866,488,-113
23:59:26.478,,-921,422,-224
23:59:26.515,,-906,427,-327
23:59:26.552,,-943,428,-178
23:59:26.589,,-1039,491,-93
23:59:26.626,,-1079,419,145
23:59:26.663,,-1146,52,100
23:59:26.700,,-1240,-37,-167
23:59:26.737,,-1071,260,-159
23:59:26.774,,-884,347,-209
23:59:26.812,,-705,262,-192
23:59:26.849,,-685,238,-132
23:59:26.886,,-645,112,-119
23:59:26.923,,-739,207,-88
23:59:26.960,,-948,95,-231
23:59:26.997,,-994,123,-287
23:59:27.034,,-1055,234,-302
23:59:27.071,,-1067,417,-250
23:59:27.108,,-710,336,-308
23:59:27.145,,-393,407,-335
23:59:27.182,,-222,540,-205
23:59:27.219,,-172,415,-555
23:59:27.256,,-215,899,-521
23:59:27.293,,-213,976,-398
23:59:27.330,,-172,754,-302
23:59:27.367,,-106,332,-128
23:59:27.404,,226,396,140
23:59:27.441,,491,588,-308
23:59:27.478,,640,996,-633
23:59:27.515,,941,921,-836
23:59:27.552,,1149,929,-503
23:59:27.589,,1355,1102,-396
23:59:27.626,,1246,859,-527
23:59:27.663,,1134,792,-430
23:59:27.700,,1293,882,-471
23:59:27.737,,943,266,-709
23:59:27.774,,850,972,-566
23:59:27.812,,869,1155,-559
23:59:27.849,,887,745,-624
23:59:27.886,,778,660,-355
23:59:27.923,,716,817,-173
23:59:27.960,,922,612,-323
23:59:27.997,,993,507,-190
23:59:28.034,,796,386,-76
23:59:28.071,,623,370,-6
23:59:28.108,,563,348,42
23:59:28.145,,624,242,-2
23:59:28.182,,531,274,68
23:59:28.219,,747,528,24
23:59:28.256,,942,661,91
23:59:28.293,,913,771,207
23:59:28.330,,1097,726,97
23:59:28.367,,1161,719,63
23:59:28.404,,1019,633,99
23:59:28.441,,803,366,64
23:59:28.478,,658,354,185
23:59:28.515,,704,47,7
23:59:28.552,,899,608,-345
23:59:28.589,,221,979,-309
23:59:28.626,,458,664,-250
23:59:28.663,,663,747,-245
23:59:28.700,,806,506,-423
23:59:28.737,,1618,-134,-472
23:59:28.774,,1182,538,-545
23:59:28.811,,1233,826,-367
23:59:28.849,,1269,839,-322
23:59:28.886,,1063,759,-362
23:59:28.923,,836,707,-401
23:59:28.960,,849,476,-400
23:59:28.997,,840,152,-228
23:59:29.034,,735,-43,-59
23:59:29.071,,605,195,-44
23:59:29.108,,617,424,-46
23:59:29.145,,765,500,-64
23:59:29.182,,815,381,-97
23:59:29.219,,1154,455,-136
23:59:29.256,,991,591,-53
23:59:29.293,,680,925,383
23:59:29.330,,1218,765,282
23:59:29.367,,1274,574,-176
23:59:29.404,,897,316,-63
23:59:29.441,,769,400,129
23:59:29.478,,745,430,-17
23:59:29.515,,717,657,13
23:59:29.552,,636,690,7
23:59:29.589,,566,744,-9
23:59:29.626,,493,641,10
23:59:29.663,,590,673,30
23:59:29.700,,812,695,-148
23:59:29.737,,771,623,-203
23:59:29.774,,1119,838,-23
23:59:29.811,,1035,777,-86
23:59:29.848,,1283,731,-65
23:59:29.885,,1453,720,-139
23:59:29.923,,1323,687,-83
23:59:29.960,,1134,577,-12
23:59:29.997,,999,510,35
23:59:30.034,,971,487,82
23:59:30.071,,887,433,48
23:59:30.108,,681,348,25
23:59:30.145,,449,264,33
23:59:30.182,,298,262,39
23:59:30.219,,296,301,24
23:59:30.256,,387,404,31
23:59:30.293,,534,526,157
23:59:30.330,,933,733,230
23:59:30.367,,1344,718,107
23:59:30.404,,1450,722,107
23:59:30.441,,1314,764,361
23:59:30.478,,1258,550,192
23:59:30.515,,924,497,123
23:59:30.552,,739,480,113
23:59:30.589,,694,529,45
23:59:30.626,,619,630,24
23:59:30.663,,491,593,-14
23:59:30.700,,374,652,49
23:59:30.737,,383,595,78
23:59:30.774,,622,649,67
23:59:30.811,,852,538,-53
23:59:30.848,,1580,700,15
23:59:30.885,,1518,627,-31
23:59:30.922,,1307,623,12
23:59:30.960,,1353,830,99
23:59:30.997,,1107,849,83
23:59:31.034,,915,533,205
23:59:31.071,,823,408,213
23:59:31.108,,862,313,100
23:59:31.145,,802,271,96
23:59:31.182,,646,314,95
23:59:31.219,,513,271,60
23:59:31.256,,390,277,0
23:59:31.293,,421,279,-127
23:59:31.330,,492,442,-122
23:59:31.367,,796,647,-2
23:59:31.404,,1244,858,137
23:59:31.441,,1019,807,206
23:59:31.478,,1196,683,449
23:59:31.515,,1207,899,330
23:59:31.552,,885,657,255
23:59:31.589,,678,625,129
23:59:31.626,,560,592,89
23:59:31.663,,507,560,23
23:59:31.700,,498,579,1
23:59:31.737,,486,563,23
23:59:31.774,,446,605,43
23:59:31.811,,594,626,27
23:59:31.848,,809,639,-38
23:59:31.885,,896,589,-102
23:59:31.922,,1250,743,-100
