Sensors' Acquisition [Hz]: Acc@26.0 
hh:mm:ss.ms, Annotation , AccX [mg], AccY, AccZ
14:45:15.372,,892,420,447
14:45:15.409,,782,332,462
14:45:15.432,>Walk,,,
14:45:15.445,,763,366,500
14:45:15.482,,737,414,516
14:45:15.518,,717,434,537
14:45:15.555,,779,468,532
14:45:15.591,,899,531,535
14:45:15.628,,1020,581,494
14:45:15.664,,1148,651,472
14:45:15.701,,1212,700,524
14:45:15.737,,1055,592,373
14:45:15.774,,1216,601,300
14:45:15.810,,1174,479,241
14:45:15.847,,1086,367,191
14:45:15.883,,937,260,166
14:45:15.919,,842,253,126
14:45:15.956,,806,297,87
14:45:15.992,,786,325,65
14:45:16.028,,793,291,65
14:45:16.063,,842,255,70
14:45:16.099,,837,271,123
14:45:16.135,,901,317,185
14:45:16.170,,1038,393,281
14:45:16.206,,915,392,454
14:45:16.242,,909,396,492
14:45:16.278,,1081,345,497
14:45:16.315,,958,354,521
14:45:16.351,,750,358,538
14:45:16.388,,745,347,518
14:45:16.424,,747,389,472
14:45:16.461,,727,425,457
14:45:16.497,,785,482,511
14:45:16.534,,867,552,523
14:45:16.570,,975,607,494
14:45:16.607,,1039,603,448
14:45:16.643,,1078,604,442
14:45:16.680,,1074,629,490
14:45:16.716,,1073,606,428
14:45:16.753,,1210,545,334
14:45:16.789,,1238,445,269
14:45:16.826,,1105,349,211
14:45:16.862,,998,302,192
14:45:16.899,,880,289,187
14:45:16.935,,802,318,142
14:45:16.971,,788,307,89
14:45:17.006,,744,238,64
14:45:17.042,,703,197,70
14:45:17.077,,723,239,120
14:45:17.112,,803,305,200
14:45:17.148,,913,377,287
14:45:17.184,,1091,401,380
14:45:17.220,,1022,361,428
14:45:17.256,,1105,377,465
14:45:17.293,,1320,434,470
14:45:17.329,,1137,410,425
14:45:17.366,,887,359,398
14:45:17.402,,789,373,393
14:45:17.439,,727,495,408
14:45:17.475,,653,520,455
14:45:17.512,,686,493,450
14:45:17.548,,793,498,432
14:45:17.585,,961,562,427
14:45:17.621,,1053,620,412
14:45:17.658,,1129,693,476
14:45:17.694,,1047,660,498
14:45:17.731,,1087,578,365
14:45:17.767,,1240,526,303
14:45:17.804,,1223,389,260
14:45:17.840,,1075,320,228
14:45:17.877,,947,286,205
14:45:17.913,,857,297,164
14:45:17.949,,806,302,123
14:45:17.985,,754,273,101
14:45:18.020,,745,231,91
14:45:18.056,,792,238,109
14:45:18.092,,861,275,156
14:45:18.127,,895,305,198
14:45:18.163,,1033,353,237
14:45:18.199,,1051,385,320
14:45:18.235,,968,399,358
14:45:18.272,,1161,453,382
14:45:18.308,,1093,458,399
14:45:18.345,,941,408,375
14:45:18.382,,845,325,372
14:45:18.418,,797,394,390
14:45:18.455,,724,472,414
14:45:18.491,,717,525,462
14:45:18.528,,745,538,491
14:45:18.564,,896,567,520
14:45:18.601,,1027,552,496
14:45:18.637,,1069,560,478
14:45:18.674,,1101,632,549
14:45:18.710,,1093,615,493
14:45:18.747,,1265,524,348
14:45:18.784,,1323,416,287
14:45:18.820,,1193,326,240
14:45:18.857,,1029,278,188
14:45:18.893,,878,272,158
14:45:18.929,,806,320,112
14:45:18.965,,790,328,76
14:45:19.001,,723,261,61
14:45:19.036,,698,211,54
14:45:19.071,,742,226,73
14:45:19.107,,745,303,161
14:45:19.142,,849,368,234
14:45:19.178,,979,388,316
14:45:19.214,,986,379,387
14:45:19.250,,1240,456,436
14:45:19.287,,1319,464,471
14:45:19.323,,1054,444,487
14:45:19.360,,917,344,475
14:45:19.396,,894,324,442
14:45:19.433,,779,390,426
14:45:19.470,,706,488,493
14:45:19.506,,728,535,491
14:45:19.543,,873,569,463
14:45:19.579,,992,580,460
14:45:19.616,,1143,595,431
14:45:19.652,,1120,684,518
14:45:19.689,,987,588,453
14:45:19.726,,1128,523,339
14:45:19.762,,1275,442,270
14:45:19.799,,1187,342,221
14:45:19.835,,1017,321,212
14:45:19.872,,860,292,188
14:45:19.908,,752,307,127
14:45:19.943,,767,315,93
14:45:19.979,,768,261,78
14:45:20.014,,749,212,67
14:45:20.050,,816,247,105
14:45:20.085,,829,296,174
14:45:20.121,,915,369,227
14:45:20.157,,985,375,290
14:45:20.193,,1020,397,364
14:45:20.229,,1269,476,426
14:45:20.266,,1239,439,451
14:45:20.302,,916,424,471
14:45:20.339,,774,279,462
14:45:20.375,,696,278,453
14:45:20.412,,664,368,494
14:45:20.448,,727,420,515
14:45:20.485,,824,476,485
14:45:20.521,,998,548,469
14:45:20.558,,1064,584,414
14:45:20.594,,1138,692,449
14:45:20.631,,1130,753,526
14:45:20.668,,1112,612,345
14:45:20.704,,1299,566,271
14:45:20.741,,1227,399,255
14:45:20.777,,1051,306,225
14:45:20.813,,872,269,187
14:45:20.850,,763,284,147
14:45:20.885,,744,332,136
14:45:20.921,,780,301,118
14:45:20.956,,757,217,84
14:45:20.992,,824,217,99
14:45:21.027,,816,250,168
14:45:21.062,,851,339,222
14:45:21.098,,997,378,268
14:45:21.134,,1048,405,351
14:45:21.170,,1220,482,400
14:45:21.207,,1278,457,449
14:45:21.243,,998,419,484
14:45:21.280,,817,262,431
14:45:21.316,,729,267,431
14:45:21.353,,686,434,506
14:45:21.389,,694,516,548
14:45:21.426,,718,503,515
14:45:21.462,,893,544,504
14:45:21.499,,1007,569,463
14:45:21.535,,1088,636,414
14:45:21.572,,1221,766,532
14:45:21.608,,1076,651,457
14:45:21.644,,1324,572,317
14:45:21.681,,1353,402,261
14:45:21.717,,1150,270,233
14:45:21.754,,977,252,207
14:45:21.790,,777,256,170
14:45:21.825,,660,315,145
14:45:21.860,,718,304,127
14:45:21.895,,713,196,91
14:45:21.930,,696,171,95
14:45:21.966,,790,217,140
14:45:22.001,,908,308,211
14:45:22.036,,1178,422,278
14:45:22.072,,1131,443,414
14:45:22.108,,1281,495,467
14:45:22.145,,1389,438,396
14:45:22.181,,1043,323,344
14:45:22.218,,767,183,366
14:45:22.255,,751,278,398
14:45:22.291,,770,462,436
14:45:22.328,,775,543,463
14:45:22.364,,829,532,422
14:45:22.401,,906,520,386
14:45:22.437,,997,591,344
14:45:22.474,,1222,713,353
14:45:22.510,,1189,718,424
14:45:22.547,,1042,560,376
14:45:22.583,,1144,522,301
14:45:22.620,,1145,465,240
14:45:22.656,,1055,356,234
14:45:22.692,,914,276,243
14:45:22.728,,792,278,199
14:45:22.764,,770,297,143
14:45:22.800,,765,305,127
14:45:22.835,,747,250,119
14:45:22.871,,841,250,124
14:45:22.906,,940,239,129
14:45:22.942,,942,307,166
14:45:22.978,,1196,424,231
14:45:23.013,,1013,416,347
14:45:23.049,,1049,489,367
14:45:23.086,,1152,425,343
14:45:23.122,,921,376,301
14:45:23.159,,735,280,292
14:45:23.195,,693,296,371
14:45:23.232,,707,428,435
14:45:23.268,,710,437,461
14:45:23.305,,765,449,484
14:45:23.341,,931,452,490
14:45:23.378,,1067,484,475
14:45:23.414,,1182,571,439
14:45:23.451,,1233,697,552
14:45:23.488,,1069,615,503
14:45:23.524,,1226,516,358
14:45:23.561,,1199,418,283
14:45:23.597,,1071,307,235
14:45:23.633,,869,274,229
14:45:23.670,,729,287,194
14:45:23.706,,699,310,149
14:45:23.741,,765,303,101
14:45:23.777,,803,261,76
14:45:23.813,,874,256,85
14:45:23.848,,911,282,124
14:45:23.883,,902,308,159
14:45:23.919,,1028,383,206
14:45:23.955,,980,424,329
14:45:23.991,,1014,464,395
14:45:24.027,,1195,397,391
14:45:24.063,,1031,316,378
14:45:24.100,,753,262,380
14:45:24.136,,652,254,406
14:45:24.173,,670,398,461
14:45:24.209,,667,430,527
14:45:24.246,,762,424,539
14:45:24.283,,893,470,558
14:45:24.319,,1066,507,543
14:45:24.356,,1087,541,482
14:45:24.392,,1194,655,504
14:45:24.429,,1178,722,536
14:45:24.465,,1221,589,260
14:45:24.502,,1336,466,128
14:45:24.538,,1137,316,147
14:45:24.574,,960,237,182
14:45:24.610,,783,280,168
14:45:24.646,,715,345,144
14:45:24.681,,668,352,132
14:45:24.716,,642,252,114
14:45:24.751,,688,204,134
14:45:24.786,,829,220,172
14:45:24.821,,894,269,227
14:45:24.857,,999,351,289
14:45:24.892,,1140,372,355
14:45:24.928,,1110,360,379
14:45:24.965,,1364,373,322
14:45:25.001,,1337,443,330
14:45:25.038,,932,510,382
14:45:25.074,,692,430,380
14:45:25.111,,654,424,361
14:45:25.147,,658,479,426
14:45:25.183,,715,464,477
14:45:25.220,,742,433,453
14:45:25.256,,884,454,448
14:45:25.293,,1032,542,406
14:45:25.329,,1164,680,407
14:45:25.366,,1138,697,503
14:45:25.402,,1038,606,429
14:45:25.439,,1309,559,302
14:45:25.475,,1223,405,240
14:45:25.511,,1029,304,217
14:45:25.547,,868,273,215
14:45:25.583,,763,297,186
14:45:25.618,,753,326,146
14:45:25.653,,808,301,121
14:45:25.688,,800,234,117
14:45:25.723,,834,238,145
14:45:25.758,,872,243,179
14:45:25.794,,896,302,228
14:45:25.829,,993,361,290
14:45:25.865,,1044,398,370
14:45:25.901,,1094,410,416
14:45:25.937,,1314,423,407
14:45:25.974,,1145,422,375
14:45:26.010,,853,435,394
14:45:26.046,,739,393,369
14:45:26.083,,691,455,397
14:45:26.119,,715,435,404
14:45:26.156,,774,481,415
14:45:26.192,,889,564,432
14:45:26.229,,994,614,407
14:45:26.265,,1231,769,457
14:45:26.302,,1178,816,540
14:45:26.338,,1159,706,313
14:45:26.375,,1326,750,184
14:45:26.411,,1421,677,43
14:45:26.447,,1252,579,69
14:45:26.482,,900,646,-2
14:45:26.517,,770,827,-70
14:45:26.551,,690,650,-98
14:45:26.585,,574,515,-40
14:45:26.619,,468,669,-57
14:45:26.652,,398,702,26
14:45:26.686,,340,661,145
14:45:26.721,,261,719,94
14:45:26.756,,125,1115,358
14:45:26.790,,137,890,317
14:45:26.824,,-59,915,187
14:45:26.858,,-210,1064,71
14:45:26.892,,-185,909,30
14:45:26.926,,-244,771,38
14:45:26.960,,-306,762,85
14:45:26.995,,-266,765,169
14:45:27.028,,-297,701,182
14:45:27.061,,-334,777,164
14:45:27.094,,-323,909,239
14:45:27.128,,-309,1168,137
14:45:27.161,,-350,1064,129
14:45:27.194,,-434,1186,129
14:45:27.227,,-298,1204,70
14:45:27.260,,-303,1052,-67
14:45:27.293,,-335,1077,-134
14:45:27.327,,-230,896,-122
14:45:27.361,,-280,807,-85
14:45:27.395,,-268,699,72
14:45:27.429,,-275,728,124
14:45:27.464,,-260,715,104
14:45:27.498,,-211,729,168
14:45:27.532,,-264,892,127
14:45:27.565,,-320,1090,101
14:45:27.599,,-307,967,156
14:45:27.632,,-371,1094,176
14:45:27.665,,-279,1170,167
14:45:27.698,,-119,1077,136
14:45:27.732,,-98,1158,134
14:45:27.765,,-58,1093,125
14:45:27.798,,-125,875,156
14:45:27.831,,-220,751,169
14:45:27.864,,-290,656,165
14:45:27.898,,-285,653,188
14:45:27.931,,-341,703,189
14:45:27.964,,-365,806,181
14:45:27.997,,-372,954,155
14:45:28.030,,-351,1071,147
14:45:28.063,,-354,1078,174
14:45:28.096,,-394,1298,156
14:45:28.129,,-336,1201,88
14:45:28.163,,-303,1051,-1
14:45:28.196,,-269,1058,-50
14:45:28.229,,-189,795,15
14:45:28.263,,-157,598,82
14:45:28.296,,-115,511,102
14:45:28.330,,-85,500,145
14:45:28.363,,-19,464,178
14:45:28.397,,69,417,189
14:45:28.430,,320,605,155
14:45:28.464,,497,827,138
14:45:28.499,,635,664,104
14:45:28.533,,1022,521,191
14:45:28.569,,1596,817,326
14:45:28.605,,1703,898,395
14:45:28.641,,1777,636,341
14:45:28.678,,1439,642,336
14:45:28.714,,854,694,397
14:45:28.751,,679,550,304
14:45:28.787,,631,510,219
14:45:28.823,,494,605,290
14:45:28.860,,493,634,312
14:45:28.896,,580,563,328
14:45:28.933,,737,635,319
14:45:28.969,,915,714,343
14:45:29.005,,1060,698,354
14:45:29.042,,1253,716,399
14:45:29.078,,1264,683,361
14:45:29.114,,1504,579,245
14:45:29.151,,1433,397,243
14:45:29.187,,1114,274,240
14:45:29.223,,912,263,230
14:45:29.258,,808,223,236
14:45:29.293,,703,208,114
14:45:29.328,,620,270,77
14:45:29.362,,585,319,98
14:45:29.397,,563,344,116
14:45:29.431,,602,378,178
14:45:29.466,,673,450,279
14:45:29.501,,796,483,313
14:45:29.537,,1034,485,334
14:45:29.573,,1256,419,344
14:45:29.609,,1656,422,308
14:45:29.646,,1348,454,376
14:45:29.682,,765,510,516
14:45:29.719,,654,382,485
14:45:29.755,,654,476,435
14:45:29.792,,577,570,515
14:45:29.828,,628,574,527
14:45:29.865,,783,598,504
14:45:29.901,,1003,604,482
14:45:29.938,,1220,535,419
14:45:29.974,,1423,543,410
14:45:30.010,,1269,637,339
14:45:30.047,,1241,619,214
14:45:30.083,,1260,545,165
14:45:30.120,,1153,413,156
14:45:30.155,,919,320,147
14:45:30.191,,734,268,119
14:45:30.226,,667,264,97
14:45:30.262,,652,270,83
14:45:30.297,,650,239,75
14:45:30.332,,693,245,99
14:45:30.367,,786,274,167
14:45:30.403,,857,286,195
14:45:30.438,,1037,367,234
14:45:30.474,,1206,430,330
14:45:30.511,,1029,538,474
14:45:30.547,,1292,554,462
14:45:30.584,,1258,421,368
14:45:30.620,,932,322,382
14:45:30.657,,782,237,429
14:45:30.694,,760,365,421
14:45:30.730,,652,488,445
14:45:30.767,,650,490,461
14:45:30.803,,669,466,456
14:45:30.840,,797,468,433
14:45:30.876,,993,542,398
14:45:30.913,,1226,488,347
14:45:30.949,,1366,540,358
14:45:30.986,,1095,611,457
14:45:31.022,,1108,524,290
14:45:31.059,,1221,536,173
14:45:31.095,,1128,450,112
14:45:31.132,,934,334,83
14:45:31.168,,690,234,106
14:45:31.203,,513,272,122
14:45:31.239,,484,458,146
14:45:31.274,,603,679,148
14:45:31.309,,627,495,105
14:45:31.345,,670,712,203
14:45:31.380,,713,966,336
14:45:31.415,,746,961,373
14:45:31.450,,656,920,468
14:45:31.485,,503,893,455
14:45:31.520,,522,1070,463
14:45:31.554,,417,884,426
14:45:31.588,,299,739,387
14:45:31.622,,109,753,410
14:45:31.656,,-40,758,405
14:45:31.691,,-90,741,345
14:45:31.727,,-194,921,294
14:45:31.763,,-245,770,158
14:45:31.800,,-192,926,135
14:45:31.837,,-80,1042,50
14:45:31.874,,-65,865,56
14:45:31.910,,-187,1032,78
14:45:31.947,,-21,1023,-7
14:45:31.984,,-168,1166,-45
14:45:32.021,,-142,1124,-77
14:45:32.057,,-162,763,-68
14:45:32.094,,-123,803,-121
14:45:32.131,,-214,773,-28
14:45:32.168,,-211,668,63
14:45:32.205,,-176,781,54
14:45:32.241,,-191,861,77
14:45:32.278,,-153,856,141
14:45:32.315,,-158,1129,87
14:45:32.352,,-223,1189,66
14:45:32.389,,-264,1278,69
14:45:32.425,,-165,1248,38
14:45:32.462,,-47,994,51
14:45:32.499,,-57,1240,66
14:45:32.536,,-51,930,42
14:45:32.572,,-74,757,70
14:45:32.609,,-200,688,67
14:45:32.646,,-236,710,45
14:45:32.683,,-232,694,80
14:45:32.719,,-278,772,123
14:45:32.756,,-354,872,134
14:45:32.793,,-362,918,159
14:45:32.829,,-371,1118,122
14:45:32.866,,-445,1303,-30
14:45:32.903,,-301,1356,-126
14:45:32.939,,-205,1088,-172
14:45:32.976,,-268,1186,-241
14:45:33.013,,-244,899,-152
14:45:33.050,,-157,621,-6
14:45:33.086,,-260,699,-18
14:45:33.123,,-343,815,-14
14:45:33.160,,-245,684,76
14:45:33.197,,-240,765,27
14:45:33.234,,-269,814,37
14:45:33.270,,-292,919,68
14:45:33.307,,-316,1037,97
14:45:33.344,,-356,1075,58
14:45:33.381,,-269,1255,62
14:45:33.417,,-130,1179,56
14:45:33.454,,-199,1273,46
14:45:33.491,,-119,999,55
14:45:33.528,,-115,830,84
14:45:33.564,,-191,699,76
14:45:33.601,,-266,653,42
14:45:33.638,,-257,644,94
14:45:33.675,,-311,678,122
14:45:33.711,,-377,847,132
14:45:33.748,,-360,972,109
14:45:33.785,,-389,1036,97
14:45:33.822,,-418,1128,60
14:45:33.859,,-408,1301,12
14:45:33.895,,-286,1265,-110
14:45:33.932,,-270,956,-133
14:45:33.969,,-293,1064,-222
14:45:34.006,,-299,907,-217
14:45:34.042,,-200,697,-71
14:45:34.079,,-241,836,-5
14:45:34.116,,-212,705,93
14:45:34.153,,-170,665,85
14:45:34.190,,-261,874,32
14:45:34.226,,-285,892,-34
14:45:34.263,,-267,903,70
14:45:34.300,,-221,1094,75
14:45:34.337,,-305,1130,20
14:45:34.373,,-309,1368,-73
14:45:34.410,,-28,1052,59
14:45:34.447,,-142,1168,1
14:45:34.484,,-111,1051,-43
14:45:34.520,,3,727,-15
14:45:34.557,,-189,892,69
14:45:34.594,,-252,688,84
14:45:34.631,,-262,640,129
14:45:34.667,,-304,721,135
14:45:34.704,,-303,893,113
14:45:34.741,,-302,919,73
14:45:34.778,,-275,1046,55
14:45:34.814,,-367,1161,48
14:45:34.851,,-380,1182,40
14:45:34.888,,-356,1267,-32
14:45:34.924,,-205,1076,-89
14:45:34.961,,-213,996,-157
14:45:34.998,,-270,1102,-325
14:45:35.035,,-241,700,-163
14:45:35.071,,-181,699,-2
14:45:35.108,,-241,704,31
14:45:35.145,,-218,663,28
14:45:35.182,,-265,823,10
14:45:35.218,,-281,889,-8
14:45:35.255,,-282,893,-38
14:45:35.292,,-230,1046,-55
14:45:35.329,,-163,1100,0
14:45:35.365,,-180,1239,-21
14:45:35.402,,-140,1187,-64
14:45:35.439,,-112,1024,-64
14:45:35.476,,-119,1152,-62
14:45:35.512,,-100,980,-85
14:45:35.549,,-67,900,-45
14:45:35.586,,-137,803,11
14:45:35.623,,-211,644,63
14:45:35.659,,-270,828,-42
14:45:35.696,,-334,622,60
14:45:35.733,,-386,861,36
14:45:35.769,,-363,954,73
14:45:35.806,,-349,1058,15
14:45:35.843,,-373,1243,-18
14:45:35.880,,-326,1411,-91
14:45:35.916,,-233,1387,-172
14:45:35.953,,-210,1101,-245
14:45:35.990,,-178,1014,-291
14:45:36.026,,-142,771,-198
14:45:36.063,,-175,742,-70
14:45:36.100,,-226,658,-88
14:45:36.136,,-201,634,-37
14:45:36.173,,-180,681,26
14:45:36.210,,-238,756,0
14:45:36.247,,-303,848,-72
14:45:36.283,,-310,1000,-45
14:45:36.320,,-266,1093,50
14:45:36.357,,-296,1198,21
14:45:36.394,,-177,1205,-47
14:45:36.430,,-191,1202,-113
14:45:36.467,,-152,1143,-8
14:45:36.504,,-101,966,43
14:45:36.540,,-234,863,47
14:45:36.577,,-269,723,67
14:45:36.614,,-354,702,58
14:45:36.650,,-366,691,81
14:45:36.686,,-464,747,106
14:45:36.721,,-498,849,107
14:45:36.755,,-431,805,137
14:45:36.787,,-440,954,145
14:45:36.820,,-455,1086,74
14:45:36.855,,-455,1224,12
14:45:36.892,,-336,1140,-67
14:45:36.928,,-344,1068,-73
14:45:36.965,,-301,794,-59
14:45:37.002,,-259,731,0
14:45:37.038,,-289,709,39
14:45:37.075,,-275,651,43
14:45:37.112,,-261,735,97
14:45:37.148,,-264,755,157
14:45:37.185,,-265,636,140
14:45:37.222,,-112,732,206
14:45:37.258,,117,613,258
14:45:37.293,,331,578,254
14:45:37.327,,579,551,176
14:45:37.361,,960,707,12
14:45:37.395,,1184,894,-36
14:45:37.430,,1444,1206,-42
14:45:37.465,,1416,1101,-2
14:45:37.501,,1187,857,159
14:45:37.537,,984,773,269
14:45:37.574,,807,700,238
14:45:37.610,,726,659,240
14:45:37.647,,718,663,291
14:45:37.683,,765,693,306
14:45:37.719,,906,778,299
14:45:37.756,,983,842,333
14:45:37.792,,1201,976,439
14:45:37.828,,1028,867,477
14:45:37.865,,1099,647,274
14:45:37.901,,1274,526,164
14:45:37.938,,1226,394,183
14:45:37.974,,1072,329,219
14:45:38.011,,944,304,202
14:45:38.047,,849,306,135
14:45:38.083,,823,315,84
14:45:38.118,,817,309,85
14:45:38.154,,875,277,73
14:45:38.189,,844,260,87
14:45:38.225,,845,299,140
14:45:38.260,,880,363,183
14:45:38.295,,893,373,242
14:45:38.331,,896,397,314
14:45:38.367,,1100,502,395
14:45:38.403,,1077,513,518
14:45:38.439,,851,479,513
14:45:38.476,,791,273,434
14:45:38.512,,819,283,447
14:45:38.549,,807,420,473
14:45:38.585,,854,545,502
14:45:38.622,,867,656,516
14:45:38.658,,949,736,500
14:45:38.695,,1036,716,471
14:45:38.731,,1202,676,452
14:45:38.768,,1280,749,515
14:45:38.804,,1083,566,385
14:45:38.841,,1197,514,300
14:45:38.877,,1189,421,223
14:45:38.914,,1084,389,197
14:45:38.950,,969,374,203
14:45:38.986,,842,309,144
14:45:39.022,,766,306,76
14:45:39.058,,771,313,55
14:45:39.093,,744,285,51
14:45:39.129,,756,256,50
14:45:39.164,,777,272,98
14:45:39.199,,818,336,150
14:45:39.235,,1014,401,190
14:45:39.271,,944,373,290
14:45:39.307,,1099,488,346
14:45:39.343,,1241,531,441
14:45:39.380,,1065,551,518
14:45:39.416,,858,381,537
14:45:39.452,,853,148,487
14:45:39.489,,790,221,497
14:45:39.525,,741,427,549
14:45:39.562,,745,575,574
14:45:39.598,,821,616,545
14:45:39.634,,970,632,518
14:45:39.671,,1115,610,434
14:45:39.707,,1226,693,475
14:45:39.744,,1210,721,520
14:45:39.780,,1173,566,313
14:45:39.817,,1225,484,232
14:45:39.853,,1144,380,206
14:45:39.890,,1052,337,187
14:45:39.926,,907,298,163
14:45:39.963,,815,288,123
14:45:39.999,,759,313,79
14:45:40.034,,743,291,50
14:45:40.070,,715,258,50
14:45:40.105,,720,263,86
14:45:40.141,,778,311,167
14:45:40.176,,884,375,231
14:45:40.212,,1039,413,318
14:45:40.247,,899,373,434
14:45:40.284,,1143,433,480
14:45:40.320,,1311,405,490
14:45:40.357,,1007,386,513
14:45:40.393,,801,266,482
14:45:40.430,,791,311,497
14:45:40.466,,767,435,484
14:45:40.502,,738,525,500
14:45:40.539,,741,592,525
14:45:40.575,,840,627,471
14:45:40.612,,938,672,410
14:45:40.648,,1117,745,382
14:45:40.685,,1416,787,453
14:45:40.721,,1139,618,406
14:45:40.758,,1320,613,311
14:45:40.795,,1331,523,242
14:45:40.831,,1186,400,196
14:45:40.867,,1013,302,183
14:45:40.903,,798,243,159
14:45:40.939,,668,251,115
14:45:40.974,,647,265,101
14:45:41.010,,655,243,80
14:45:41.045,,672,220,80
14:45:41.080,,725,241,129
14:45:41.115,,822,312,198
14:45:41.151,,967,404,257
14:45:41.186,,1109,436,325
14:45:41.223,,1132,459,381
14:45:41.259,,1487,482,355
14:45:41.296,,1378,475,338
14:45:41.332,,967,476,420
14:45:41.369,,795,408,468
14:45:41.405,,780,450,432
14:45:41.442,,700,471,439
14:45:41.478,,664,504,490
14:45:41.515,,662,539,455
14:45:41.551,,800,653,463
14:45:41.588,,956,719,446
14:45:41.624,,1181,768,460
14:45:41.661,,1340,742,529
14:45:41.697,,1216,576,375
14:45:41.734,,1344,546,282
14:45:41.770,,1357,454,254
14:45:41.807,,1208,365,221
14:45:41.843,,1014,313,183
14:45:41.879,,846,274,137
14:45:41.915,,766,298,108
14:45:41.950,,796,290,82
14:45:41.986,,730,228,59
14:45:42.021,,702,203,70
14:45:42.056,,744,232,124
14:45:42.091,,829,294,160
14:45:42.127,,1054,376,213
14:45:42.163,,911,356,313
14:45:42.199,,1154,519,414
14:45:42.235,,1349,591,507
14:45:42.272,,1149,562,498
14:45:42.308,,910,359,511
14:45:42.344,,886,219,553
14:45:42.380,,867,341,538
14:45:42.416,,828,471,515
14:45:42.452,,781,563,496
14:45:42.488,,791,592,453
14:45:42.525,,878,636,413
14:45:42.561,,1044,676,365
14:45:42.598,,1238,738,445
14:45:42.634,,1198,647,479
14:45:42.670,,1215,525,308
14:45:42.707,,1241,484,222
14:45:42.743,,1193,412,178
14:45:42.780,,1024,362,183
14:45:42.816,,912,305,156
14:45:42.853,,806,269,109
14:45:42.889,,742,278,68
14:45:42.924,,750,283,60
14:45:42.960,,787,263,60
14:45:42.996,,783,274,95
14:45:43.031,,786,264,121
14:45:43.067,,883,345,154
14:45:43.103,,1012,396,238
14:45:43.139,,907,432,350
14:45:43.176,,1086,514,439
14:45:43.212,,1205,458,452
14:45:43.248,,1046,429,441
14:45:43.285,,836,301,448
14:45:43.321,,760,333,468
14:45:43.357,,736,451,481
14:45:43.393,,679,454,516
14:45:43.429,,758,466,570
14:45:43.465,,889,503,554
14:45:43.501,,992,511,487
14:45:43.536,,1056,549,416
14:45:43.572,,1147,661,470
14:45:43.608,,1201,702,488
14:45:43.644,,1160,581,327
14:45:43.680,,1278,515,255
14:45:43.717,,1242,406,215
14:45:43.753,,1106,357,187
14:45:43.789,,944,295,167
14:45:43.826,,801,249,116
14:45:43.862,,760,277,76
14:45:43.897,,745,274,57
14:45:43.933,,717,241,39
14:45:43.968,,757,244,10
14:45:44.003,,742,238,133
14:45:44.039,,850,379,221
14:45:44.074,,1044,404,243
14:45:44.110,,907,361,307
14:45:44.147,,1067,492,371
14:45:44.183,,1281,535,418
14:45:44.219,,1126,501,402
14:45:44.255,,860,296,349
14:45:44.291,,766,174,391
14:45:44.327,,740,339,453
14:45:44.363,,740,485,530
14:45:44.400,,788,517,581
14:45:44.436,,873,512,593
14:45:44.472,,1011,457,543
14:45:44.508,,1142,493,502
14:45:44.544,,1267,681,596
14:45:44.580,,1223,710,554
14:45:44.616,,1362,574,320
14:45:44.653,,1355,440,235
14:45:44.689,,1177,300,199
14:45:44.725,,1015,255,164
14:45:44.761,,843,249,116
14:45:44.797,,771,310,80
14:45:44.833,,744,303,35
14:45:44.868,,697,245,-5
14:45:44.903,,679,233,0
14:45:44.938,,657,268,54
14:45:44.973,,720,329,154
14:45:45.008,,767,387,244
14:45:45.044,,872,377,261
14:45:45.080,,1022,412,310
14:45:45.116,,1270,469,412
14:45:45.153,,1573,467,408
14:45:45.189,,1227,360,340
14:45:45.225,,825,373,450
14:45:45.261,,779,396,512
14:45:45.297,,725,535,497
14:45:45.333,,734,546,551
14:45:45.369,,745,457,574
14:45:45.405,,927,453,511
14:45:45.441,,1123,465,458
14:45:45.477,,1071,532,398
14:45:45.513,,1133,685,467
14:45:45.549,,1092,776,484
14:45:45.586,,1271,693,295
14:45:45.622,,1435,517,190
14:45:45.659,,1197,353,198
14:45:45.695,,1011,272,176
14:45:45.731,,843,224,129
14:45:45.767,,716,243,79
14:45:45.802,,668,265,53
14:45:45.837,,650,223,36
14:45:45.872,,661,196,35
14:45:45.907,,754,266,78
14:45:45.943,,792,311,174
14:45:45.978,,894,356,228
14:45:46.014,,1097,426,282
14:45:46.050,,1254,441,369
14:45:46.086,,1405,493,384
14:45:46.123,,1381,436,404
14:45:46.159,,1044,511,496
14:45:46.195,,821,350,432
14:45:46.231,,697,320,400
14:45:46.267,,649,461,493
14:45:46.303,,636,589,561
14:45:46.339,,790,612,477
14:45:46.376,,936,618,394
14:45:46.412,,1022,711,335
14:45:46.449,,1190,710,348
14:45:46.485,,1235,775,403
14:45:46.522,,1094,788,371
14:45:46.558,,1407,724,262
14:45:46.595,,1373,432,205
14:45:46.631,,1115,272,247
14:45:46.667,,878,231,205
14:45:46.703,,687,253,120
14:45:46.738,,610,289,90
14:45:46.774,,636,281,66
14:45:46.809,,695,250,70
14:45:46.845,,853,233,72
14:45:46.880,,974,224,69
14:45:46.916,,1061,306,125
14:45:46.952,,1229,413,180
14:45:46.988,,1002,489,312
14:45:47.025,,1126,612,422
14:45:47.061,,1170,495,425
14:45:47.097,,931,331,316
14:45:47.134,,695,187,325
14:45:47.170,,736,262,453
14:45:47.207,,704,467,543
14:45:47.242,,794,546,542
14:45:47.279,,928,503,465
14:45:47.315,,1059,531,374
14:45:47.352,,1106,684,368
14:45:47.388,,1001,705,408
14:45:47.424,,971,744,465
14:45:47.461,,1056,803,408
14:45:47.497,,1376,642,224
14:45:47.534,,1320,415,180
14:45:47.570,,1086,262,201
14:45:47.606,,972,204,194
14:45:47.643,,876,274,164
14:45:47.679,,818,330,119
14:45:47.714,,831,330,102
14:45:47.749,,888,274,77
14:45:47.784,,927,254,96
14:45:47.819,,955,216,128
14:45:47.855,,976,241,165
14:45:47.890,,1097,328,207
14:45:47.926,,1214,525,339
14:45:47.962,,1154,423,320
14:45:47.998,,873,440,310
14:45:48.034,,686,303,326
14:45:48.071,,747,345,392
14:45:48.107,,884,474,462
14:45:48.143,,1040,477,427
14:45:48.179,,1077,547,333
14:45:48.216,,980,715,354
14:45:48.252,,989,773,492
14:45:48.288,,1132,1024,514
14:45:48.325,,1329,856,287
14:45:48.361,,1516,551,223
14:45:48.398,,1209,369,266
14:45:48.434,,1077,265,243
14:45:48.471,,1013,289,200
14:45:48.507,,895,413,185
14:45:48.543,,917,404,133
14:45:48.578,,873,284,81
14:45:48.613,,888,196,54
14:45:48.648,,901,115,41
14:45:48.683,,878,141,84
14:45:48.718,,860,300,183
14:45:48.753,,990,368,255
14:45:48.788,,1149,442,337
14:45:48.824,,1412,460,327
14:45:48.861,,1306,451,275
14:45:48.897,,1055,474,246
14:45:48.934,,955,378,248
14:45:48.970,,981,518,292
14:45:49.006,,925,634,383
14:45:49.043,,893,637,390
14:45:49.079,,905,631,371
14:45:49.116,,975,675,364
14:45:49.152,,1005,833,404
14:45:49.189,,1099,981,501
14:45:49.225,,1163,791,434
14:45:49.262,,1488,660,363
14:45:49.298,,1407,470,312
14:45:49.335,,1259,332,257
14:45:49.371,,1114,304,227
14:45:49.408,,937,338,210
14:45:49.444,,821,348,163
14:45:49.479,,835,307,107
14:45:49.515,,834,216,62
14:45:49.550,,864,185,51
14:45:49.585,,937,149,57
14:45:49.620,,889,232,119
14:45:49.656,,961,324,188
14:45:49.691,,916,372,253
14:45:49.727,,1057,470,321
14:45:49.763,,1192,499,376
14:45:49.799,,1094,507,366
14:45:49.836,,931,356,308
14:45:49.872,,934,328,373
14:45:49.909,,910,509,540
14:45:49.945,,907,566,602
14:45:49.981,,982,573,588
14:45:50.017,,1045,542,531
14:45:50.053,,1059,528,520
14:45:50.090,,1141,701,545
14:45:50.126,,1054,847,526
14:45:50.163,,1312,771,404
14:45:50.199,,1498,562,331
14:45:50.236,,1284,371,278
14:45:50.272,,1078,270,247
14:45:50.309,,873,262,204
14:45:50.345,,776,337,165
14:45:50.380,,794,320,116
14:45:50.416,,815,221,51
14:45:50.451,,819,187,40
14:45:50.486,,893,209,72
14:45:50.522,,953,260,86
14:45:50.557,,1000,364,156
14:45:50.592,,951,409,244
14:45:50.628,,874,455,313
14:45:50.664,,1146,549,420
14:45:50.701,,1111,538,509
14:45:50.737,,820,386,504
14:45:50.774,,719,152,550
14:45:50.810,,824,160,591
14:45:50.847,,856,326,575
14:45:50.883,,888,472,567
14:45:50.920,,960,515,530
14:45:50.956,,990,526,472
14:45:50.993,,1007,561,408
14:45:51.029,,1174,742,461
14:45:51.066,,1055,720,477
14:45:51.102,,1254,586,378
14:45:51.139,,1205,446,279
14:45:51.175,,1108,336,211
14:45:51.212,,912,289,207
14:45:51.248,,760,262,193
14:45:51.284,,694,275,173
14:45:51.320,,733,285,144
14:45:51.355,,756,264,112
14:45:51.390,,796,261,131
14:45:51.426,,888,280,184
14:45:51.461,,965,271,202
14:45:51.497,,1095,350,235
14:45:51.533,,1118,384,282
14:45:51.569,,1005,421,318
14:45:51.605,,1169,493,362
14:45:51.642,,1089,493,356
14:45:51.678,,892,452,303
14:45:51.715,,786,278,282
14:45:51.751,,731,360,317
14:45:51.788,,697,470,366
14:45:51.824,,734,489,389
14:45:51.860,,747,482,383
14:45:51.897,,872,520,401
14:45:51.933,,1007,556,405
14:45:51.970,,1052,625,454
14:45:52.006,,1006,726,584
14:45:52.043,,999,663,516
14:45:52.079,,1273,543,349
14:45:52.116,,1289,393,321
14:45:52.152,,1131,264,276
14:45:52.189,,957,246,228
14:45:52.225,,832,299,210
14:45:52.260,,814,363,199
14:45:52.296,,815,321,135
14:45:52.331,,832,246,86
14:45:52.367,,882,246,102
14:45:52.402,,938,264,117
14:45:52.437,,959,333,152
14:45:52.472,,1040,374,192
14:45:52.508,,851,382,261
14:45:52.543,,922,442,309
14:45:52.579,,1123,491,374
14:45:52.616,,1057,474,430
14:45:52.652,,787,307,426
14:45:52.689,,722,164,438
14:45:52.725,,736,266,497
14:45:52.762,,714,377,510
14:45:52.798,,827,476,494
14:45:52.835,,941,547,468
14:45:52.871,,1014,585,429
14:45:52.908,,1063,662,442
14:45:52.944,,1115,771,541
14:45:52.981,,959,690,504
14:45:53.017,,1144,563,343
14:45:53.054,,1300,447,254
14:45:53.090,,1240,345,240
14:45:53.126,,1057,293,252
14:45:53.162,,906,301,232
14:45:53.198,,772,320,167
14:45:53.233,,734,343,105
14:45:53.268,,716,305,81
14:45:53.303,,739,257,84
14:45:53.338,,849,293,125
14:45:53.373,,929,285,159
14:45:53.408,,993,301,186
14:45:53.443,,1049,359,233
14:45:53.479,,901,378,313
14:45:53.514,,1022,483,364
14:45:53.551,,1236,515,414
14:45:53.587,,1043,473,416
14:45:53.623,,811,325,392
14:45:53.660,,750,263,441
14:45:53.696,,722,347,464
14:45:53.733,,697,415,456
14:45:53.769,,790,537,464
14:45:53.806,,900,612,455
14:45:53.842,,960,628,399
14:45:53.879,,1005,695,420
14:45:53.915,,1172,772,468
14:45:53.951,,1070,705,430
14:45:53.988,,1256,605,310
14:45:54.024,,1359,466,268
14:45:54.060,,1234,343,228
14:45:54.096,,1054,289,197
14:45:54.131,,912,277,173
14:45:54.166,,795,323,159
14:45:54.201,,730,327,127
14:45:54.236,,704,262,80
14:45:54.271,,717,220,72
14:45:54.306,,771,247,109
14:45:54.341,,865,297,171
14:45:54.376,,960,358,210
14:45:54.411,,1044,387,256
14:45:54.447,,1003,421,330
14:45:54.483,,1219,495,365
14:45:54.519,,1299,495,381
14:45:54.555,,1019,443,357
14:45:54.592,,800,315,364
14:45:54.628,,775,327,404
14:45:54.665,,708,425,425
14:45:54.701,,677,471,500
14:45:54.738,,729,476,494
14:45:54.774,,845,514,481
14:45:54.811,,1026,590,440
14:45:54.847,,1106,679,446
14:45:54.884,,1148,750,598
14:45:54.920,,1123,604,495
14:45:54.956,,1353,506,269
14:45:54.993,,1340,360,245
14:45:55.029,,1145,236,255
14:45:55.065,,970,242,200
14:45:55.100,,803,269,142
14:45:55.135,,687,330,110
14:45:55.169,,684,332,95
14:45:55.204,,719,274,70
14:45:55.239,,689,239,59
14:45:55.273,,769,292,108
14:45:55.308,,867,344,178
14:45:55.343,,962,404,225
14:45:55.379,,1101,423,288
14:45:55.414,,1054,434,381
14:45:55.450,,1287,465,389
14:45:55.487,,1266,387,361
14:45:55.523,,961,350,358
14:45:55.560,,794,340,402
14:45:55.596,,773,412,413
14:45:55.632,,695,420,395
14:45:55.669,,662,434,428
14:45:55.705,,732,475,416
14:45:55.742,,897,546,401
14:45:55.778,,1042,601,409
14:45:55.815,,1049,627,407
14:45:55.851,,1079,721,503
14:45:55.888,,1171,709,479
14:45:55.924,,1375,549,283
14:45:55.960,,1360,367,217
14:45:55.996,,1124,276,209
14:45:56.032,,968,264,182
14:45:56.068,,815,282,170
14:45:56.103,,751,312,162
14:45:56.138,,730,291,105
14:45:56.173,,725,254,64
14:45:56.207,,804,282,80
14:45:56.242,,827,303,117
14:45:56.277,,900,351,161
14:45:56.312,,1014,409,196
14:45:56.347,,988,404,249
14:45:56.382,,908,430,302
14:45:56.418,,1168,475,332
14:45:56.454,,1167,445,356
14:45:56.491,,904,368,338
14:45:56.527,,728,262,365
14:45:56.563,,725,372,452
14:45:56.600,,751,440,518
14:45:56.636,,807,399,534
14:45:56.673,,903,393,527
14:45:56.709,,981,454,502
14:45:56.746,,1079,536,471
14:45:56.782,,1142,614,464
14:45:56.819,,1150,746,539
14:45:56.855,,1138,704,497
14:45:56.891,,1340,501,262
14:45:56.928,,1281,336,174
14:45:56.963,,1023,255,189
14:45:56.999,,844,245,166
14:45:57.034,,697,275,156
14:45:57.069,,661,324,141
14:45:57.104,,692,292,86
14:45:57.139,,706,254,66
14:45:57.174,,768,274,103
14:45:57.209,,932,330,131
14:45:57.244,,1016,372,191
14:45:57.279,,1064,413,238
14:45:57.315,,1143,467,320
14:45:57.351,,1098,487,443
14:45:57.387,,1218,440,465
14:45:57.423,,949,313,503
14:45:57.460,,616,202,516
14:45:57.496,,609,171,533
14:45:57.532,,728,292,579
14:45:57.569,,739,406,552
14:45:57.605,,937,459,484
14:45:57.642,,1179,528,406
14:45:57.678,,1183,552,335
14:45:57.715,,1314,698,388
14:45:57.751,,1217,693,446
14:45:57.787,,1120,542,302
14:45:57.823,,1308,354,79
14:45:57.858,,1303,260,51
14:45:57.894,,1081,232,132
14:45:57.928,,813,290,178
14:45:57.963,,660,330,159
14:45:57.997,,586,305,124
14:45:58.031,,564,269,88
14:45:58.065,,596,235,83
14:45:58.100,,618,234,108
14:45:58.134,,713,276,139
14:45:58.169,,790,284,181
14:45:58.204,,855,321,216
14:45:58.239,,1006,352,244
14:45:58.275,,1252,420,296
14:45:58.311,,1333,478,351
14:45:58.347,,1334,538,441
14:45:58.383,,1057,555,544
14:45:58.420,,660,474,473
14:45:58.456,,615,263,367
14:45:58.492,,643,142,342
14:45:58.529,,616,305,356
14:45:58.565,,607,520,387
14:45:58.601,,757,595,382
14:45:58.637,,817,586,448
14:45:58.672,,908,545,443
14:45:58.708,,948,569,392
14:45:58.744,,1139,671,442
14:45:58.780,,1242,675,522
14:45:58.816,,1276,516,401
14:45:58.851,,1327,349,276
14:45:58.887,,1108,280,253
14:45:58.922,,922,273,198
14:45:58.957,,625,300,193
14:45:58.991,,606,327,181
14:45:59.026,,703,265,130
14:45:59.060,,744,215,111
14:45:59.095,,832,261,157
14:45:59.130,,932,332,207
14:45:59.164,,1109,424,258
14:45:59.199,,1193,433,298
14:45:59.234,,1106,459,375
14:45:59.269,,1333,510,386
14:45:59.305,,1107,436,326
14:45:59.341,,761,337,288
14:45:59.376,,557,212,339
14:45:59.412,,533,346,391
14:45:59.448,,548,441,421
14:45:59.484,,652,463,418
14:45:59.520,,790,484,440
14:45:59.556,,973,507,440
14:45:59.592,,1024,584,450
14:45:59.628,,1162,690,486
14:45:59.664,,1151,689,536
14:45:59.700,,1210,578,408
14:45:59.736,,1388,475,316
14:45:59.771,,1124,342,276
14:45:59.807,,942,292,243
14:45:59.842,,792,266,209
14:45:59.877,,658,288,168
14:45:59.912,,663,305,150
14:45:59.946,,742,266,111
14:45:59.981,,779,233,95
14:46:00.016,,876,281,128
14:46:00.050,,909,327,177
14:46:00.084,,957,381,236
14:46:00.119,,1037,433,293
14:46:00.154,,960,439,364
14:46:00.189,,1199,505,376
14:46:00.224,,1119,437,377
14:46:00.260,,862,366,359
14:46:00.295,,707,203,360
14:46:00.331,,659,310,436
14:46:00.368,,665,428,491
14:46:00.404,,673,458,511
14:46:00.440,,799,482,508
14:46:00.476,,982,507,513
14:46:00.512,,1078,541,455
14:46:00.549,,1228,693,530
14:46:00.585,,1083,690,533
14:46:00.621,,1218,563,294
14:46:00.657,,1258,447,202
14:46:00.693,,1095,336,182
14:46:00.728,,966,310,191
14:46:00.763,,839,302,210
14:46:00.798,,735,318,193
14:46:00.833,,676,307,126
14:46:00.868,,661,288,97
14:46:00.903,,739,279,111
14:46:00.937,,891,303,152
14:46:00.972,,993,320,227
14:46:01.007,,1128,338,262
14:46:01.042,,1089,335,348
14:46:01.077,,1002,347,383
14:46:01.112,,1211,443,380
14:46:01.147,,1118,414,387
14:46:01.182,,844,383,377
14:46:01.218,,663,301,395
14:46:01.253,,623,425,440
14:46:01.289,,648,510,465
14:46:01.325,,768,548,481
14:46:01.362,,849,538,439
14:46:01.398,,959,545,413
14:46:01.434,,1054,562,399
14:46:01.471,,1152,607,386
14:46:01.507,,1176,756,478
14:46:01.542,,1149,709,434
14:46:01.578,,1417,565,301
14:46:01.614,,1344,370,249
14:46:01.649,,1198,274,227
14:46:01.684,,996,261,184
14:46:01.718,,773,273,155
14:46:01.753,,625,299,142
14:46:01.787,,611,274,134
14:46:01.821,,638,186,93
14:46:01.855,,634,197,96
14:46:01.890,,731,250,133
14:46:01.924,,793,311,172
14:46:01.959,,1002,401,198
14:46:01.993,,1274,592,224
14:46:02.028,,1123,743,298
14:46:02.063,,1324,730,304
14:46:02.098,,1217,605,321
14:46:02.134,,880,394,338
14:46:02.170,,646,225,427
14:46:02.206,,635,264,482
14:46:02.243,,621,416,487
14:46:02.279,,628,519,516
14:46:02.315,,725,525,498
14:46:02.352,,905,528,480
14:46:02.388,,1106,563,453
14:46:02.424,,1251,635,463
14:46:02.460,,1360,628,481
14:46:02.496,,1138,501,369
14:46:02.532,,1206,398,199
14:46:02.567,,1165,331,172
14:46:02.602,,1020,314,155
14:46:02.637,,811,312,138
14:46:02.672,,669,296,119
14:46:02.706,,650,315,109
14:46:02.741,,646,270,60
14:46:02.775,,621,245,55
14:46:02.810,,698,308,128
14:46:02.844,,785,359,183
14:46:02.879,,936,357,224
14:46:02.914,,1137,372,250
14:46:02.949,,1081,367,325
14:46:02.985,,1153,524,472
14:46:03.021,,1446,570,521
14:46:03.057,,1108,420,480
14:46:03.093,,713,187,460
14:46:03.129,,565,99,455
14:46:03.165,,506,284,449
14:46:03.201,,513,439,442
14:46:03.237,,577,527,448
14:46:03.273,,706,510,414
14:46:03.309,,904,526,422
14:46:03.345,,1212,598,413
14:46:03.381,,1512,752,417
14:46:03.417,,1223,625,364
14:46:03.453,,1085,461,307
14:46:03.488,,1097,433,195
14:46:03.524,,1000,423,186
14:46:03.559,,822,380,228
14:46:03.594,,672,290,205
14:46:03.629,,606,280,143
14:46:03.664,,622,275,108
14:46:03.699,,676,272,114
14:46:03.734,,766,252,124
14:46:03.769,,855,272,173
14:46:03.804,,1036,334,210
14:46:03.839,,1340,412,227
14:46:03.874,,1143,403,312
14:46:03.909,,957,496,395
14:46:03.945,,1103,510,404
14:46:03.981,,936,455,356
14:46:04.017,,751,307,375
14:46:04.053,,685,175,417
14:46:04.089,,631,255,402
14:46:04.125,,605,375,409
14:46:04.161,,608,415,413
14:46:04.197,,662,434,437
14:46:04.233,,829,492,458
14:46:04.269,,946,494,386
14:46:04.305,,1091,561,351
14:46:04.341,,1305,737,508
14:46:04.378,,1138,695,387
14:46:04.414,,1302,594,265
14:46:04.450,,1161,419,234
14:46:04.486,,960,282,216
14:46:04.521,,803,267,199
14:46:04.556,,724,275,172
14:46:04.591,,672,320,172
14:46:04.626,,696,309,161
14:46:04.661,,743,251,132
14:46:04.696,,789,255,157
14:46:04.730,,923,320,213
14:46:04.765,,1015,375,254
14:46:04.800,,1108,449,334
14:46:04.835,,1007,503,467
14:46:04.870,,1222,524,440
14:46:04.906,,1104,383,326
14:46:04.942,,750,265,299
14:46:04.978,,589,194,302
14:46:05.015,,556,309,312
14:46:05.051,,609,459,329
14:46:05.087,,628,508,352
14:46:05.123,,792,515,362
14:46:05.160,,879,514,390
14:46:05.196,,996,545,419
14:46:05.232,,1162,553,399
14:46:05.269,,1422,607,419
14:46:05.305,,1323,579,439
14:46:05.341,,1262,487,317
14:46:05.376,,1221,398,213
14:46:05.412,,1047,357,166
14:46:05.447,,826,345,174
14:46:05.482,,666,305,165
14:46:05.517,,598,284,122
14:46:05.551,,597,277,100
14:46:05.586,,677,269,102
14:46:05.621,,756,252,99
14:46:05.656,,903,269,100
14:46:05.691,,999,330,136
14:46:05.726,,1013,414,202
14:46:05.762,,1222,453,221
14:46:05.797,,1034,456,307
14:46:05.833,,1169,539,334
14:46:05.869,,1224,498,347
14:46:05.905,,865,403,302
14:46:05.941,,625,235,257
14:46:05.977,,526,260,295
14:46:06.013,,534,415,395
14:46:06.050,,635,463,432
14:46:06.086,,724,464,456
14:46:06.122,,859,452,464
14:46:06.159,,1011,478,445
14:46:06.195,,1090,543,470
14:46:06.232,,1249,564,466
14:46:06.268,,1279,547,469
14:46:06.304,,1195,417,317
14:46:06.340,,1262,354,201
14:46:06.376,,1149,324,162
14:46:06.411,,883,331,147
14:46:06.446,,704,321,134
14:46:06.481,,601,311,112
14:46:06.515,,563,322,86
14:46:06.550,,602,308,87
14:46:06.585,,735,311,102
14:46:06.620,,816,309,119
14:46:06.655,,964,323,142
14:46:06.690,,1050,369,208
14:46:06.726,,1030,394,262
14:46:06.761,,1216,462,306
14:46:06.797,,1149,460,399
14:46:06.833,,926,449,472
14:46:06.869,,1047,415,473
14:46:06.905,,829,406,468
14:46:06.941,,656,298,421
14:46:06.977,,592,241,462
14:46:07.014,,602,353,510
14:46:07.050,,641,393,446
14:46:07.086,,759,427,404
14:46:07.122,,834,442,422
14:46:07.159,,933,475,423
14:46:07.195,,1022,516,404
14:46:07.231,,1137,548,404
14:46:07.267,,1217,590,432
14:46:07.304,,1141,502,314
14:46:07.340,,1145,404,186
14:46:07.376,,1073,334,149
14:46:07.412,,871,267,130
14:46:07.449,,720,277,111
14:46:07.485,,647,301,94
14:46:07.520,,670,358,94
14:46:07.556,,722,368,94
14:46:07.592,,779,337,96
14:46:07.629,,761,326,125
14:46:07.665,,847,335,147
14:46:07.701,,914,341,181
14:46:07.737,,983,393,245
14:46:07.774,,1179,486,337
14:46:07.810,,887,422,442
14:46:07.847,,765,397,433
14:46:07.883,,1080,435,383
14:46:07.919,,893,446,364
14:46:07.956,,862,405,343
14:46:07.992,,785,366,393
14:46:08.028,,772,416,373
14:46:08.065,,779,453,330
14:46:08.101,,815,409,315
14:46:08.137,,851,377,350
14:46:08.174,,944,371,309
14:46:08.210,,1001,353,263
14:46:08.246,,1033,335,228
14:46:08.282,,940,345,214
14:46:08.319,,970,441,242
14:46:08.355,,974,549,312
14:46:08.391,,859,429,229
14:46:08.427,,933,376,147
14:46:08.464,,920,374,164
14:46:08.500,,854,332,167
14:46:08.536,,762,287,161
14:46:08.572,,696,288,146
14:46:08.609,,726,328,153
14:46:08.645,,841,329,169
14:46:08.681,,875,321,197
14:46:08.717,,968,381,253
14:46:08.753,,1118,409,289
14:46:08.789,,1094,356,281
14:46:08.825,,1082,320,276
14:46:08.861,,1079,382,307
14:46:08.898,,783,391,321
14:46:08.934,,805,457,331
14:46:08.970,,875,464,359
14:46:09.006,,837,392,355
14:46:09.042,,711,275,350
14:46:09.078,,649,232,345
14:46:09.114,,612,310,341
14:46:09.150,,597,405,377
14:46:09.186,,654,470,419
14:46:09.222,,732,523,388
14:46:09.258,,842,498,316
14:46:09.294,,845,527,233
14:46:09.330,,1017,696,208
14:46:09.366,,1119,806,157
14:46:09.402,,1132,576,-41
14:46:09.438,,1129,549,-14
14:46:09.474,,966,483,53
14:46:09.509,,856,434,44
14:46:09.545,,757,361,28
14:46:09.581,,674,285,19
14:46:09.616,,694,248,33
14:46:09.652,,753,318,93
14:46:09.687,,801,427,154
14:46:09.723,,842,480,175
14:46:09.759,,902,476,195
14:46:09.795,,1177,535,243
14:46:09.830,,1020,482,300
14:46:09.866,,809,323,170
14:46:09.902,,953,351,201
14:46:09.938,,797,664,183
14:46:09.974,,614,420,203
14:46:10.010,,568,501,209
14:46:10.046,,691,576,167
14:46:10.082,,759,574,188
14:46:10.118,,820,510,247
14:46:10.154,,868,386,277
14:46:10.190,,889,415,297
14:46:10.226,,875,580,223
14:46:10.263,,1026,607,154
14:46:10.300,,1051,573,155
14:46:10.336,,932,508,87
14:46:10.372,,827,440,75
14:46:10.409,,850,523,84
14:46:10.445,,948,488,49
14:46:10.482,,893,391,31
14:46:10.519,,809,363,23
14:46:10.555,,756,399,35
14:46:10.592,,693,498,55
14:46:10.628,,635,580,104
14:46:10.665,,689,599,144
14:46:10.702,,862,574,155
14:46:10.738,,938,489,112
14:46:10.775,,1007,474,123
14:46:10.812,,1156,563,210
14:46:10.849,,1220,500,185
14:46:10.885,,1261,366,141
14:46:10.922,,1233,299,134
14:46:10.959,,766,310,165
14:46:10.995,,492,381,211
14:46:11.031,,574,378,278
14:46:11.067,,625,268,284
14:46:11.104,,565,98,180
14:46:11.140,,458,175,278
14:46:11.176,,504,340,450
14:46:11.213,,616,358,445
14:46:11.249,,691,331,449
14:46:11.285,,631,313,564
14:46:11.322,,609,344,575
14:46:11.358,,766,461,587
14:46:11.394,,1445,751,725
14:46:11.430,,1729,723,610
14:46:11.466,,1382,432,298
14:46:11.503,,995,249,375
14:46:11.539,,901,222,208
14:46:11.575,,799,333,75
14:46:11.612,,772,433,115
14:46:11.648,,806,429,184
14:46:11.685,,767,363,118
14:46:11.721,,761,285,26
14:46:11.757,,778,300,43
14:46:11.793,,772,330,104
14:46:11.829,,737,350,153
14:46:11.865,,677,384,239
14:46:11.901,,778,441,313
14:46:11.938,,928,453,332
14:46:11.974,,1073,389,356
14:46:12.010,,1300,325,397
14:46:12.046,,1420,253,388
14:46:12.082,,1075,360,459
14:46:12.119,,901,508,554
14:46:12.155,,800,573,458
14:46:12.191,,718,453,290
14:46:12.227,,623,275,254
14:46:12.263,,558,256,263
14:46:12.299,,605,279,279
14:46:12.336,,688,331,257
14:46:12.372,,743,356,235
14:46:12.408,,834,370,238
14:46:12.444,,973,442,259
14:46:12.481,,1144,508,288
14:46:12.517,,1185,528,316
14:46:12.553,,1167,706,394
14:46:12.589,,1060,701,315
14:46:12.625,,1100,543,105
14:46:12.661,,1035,451,90
14:46:12.697,,981,385,104
14:46:12.733,,797,387,130
14:46:12.769,,617,460,106
14:46:12.805,,555,500,58
14:46:12.841,,549,473,65
14:46:12.877,,627,416,87
14:46:12.912,,765,424,135
14:46:12.948,,885,449,201
14:46:12.983,,1004,431,211
14:46:13.019,,1115,392,223
14:46:13.055,,1037,371,285
14:46:13.091,,880,407,310
14:46:13.127,,1011,452,298
14:46:13.164,,898,452,322
14:46:13.200,,734,365,345
14:46:13.236,,643,236,311
14:46:13.272,,591,260,278
14:46:13.308,,568,382,304
14:46:13.345,,607,450,338
14:46:13.381,,738,476,365
14:46:13.417,,911,533,404
14:46:13.453,,1066,574,400
14:46:13.490,,1129,604,392
14:46:13.525,,1148,650,476
14:46:13.561,,1014,612,408
14:46:13.597,,1153,540,256
14:46:13.633,,1044,459,228
14:46:13.669,,981,340,200
14:46:13.705,,873,298,202
14:46:13.742,,776,309,177
14:46:13.778,,734,355,130
14:46:13.814,,746,418,100
14:46:13.849,,834,528,95
14:46:13.885,,957,634,90
14:46:13.921,,1087,634,104
14:46:13.956,,1039,723,158
14:46:13.992,,885,1069,237
14:46:14.028,,414,982,279
14:46:14.065,,500,1134,260
14:46:14.102,,480,1056,376
14:46:14.138,,377,639,377
14:46:14.175,,246,539,348
14:46:14.212,,182,404,349
14:46:14.248,,145,466,334
14:46:14.285,,154,500,265
14:46:14.322,,75,625,167
14:46:14.359,,-88,1035,315
14:46:14.395,,-200,1149,389
14:46:14.432,,-212,1230,249
14:46:14.469,,-314,1146,189
14:46:14.505,,-358,1248,137
14:46:14.542,,-253,1141,53
14:46:14.579,,-256,1064,-82
14:46:14.616,,-241,992,-116
14:46:14.652,,-152,862,-140
14:46:14.689,,-181,818,-61
14:46:14.726,,-207,737,-8
14:46:14.762,,-193,459,11
14:46:14.799,,-229,730,72
14:46:14.836,,-216,760,122
14:46:14.872,,-238,955,134
14:46:14.909,,-198,1195,104
14:46:14.946,,-305,1007,59
14:46:14.983,,-392,1107,33
14:46:15.019,,-245,1160,63
14:46:15.056,,-154,1088,-2
14:46:15.093,,-189,1150,-67
14:46:15.129,,-149,734,-35
14:46:15.166,,-215,739,113
14:46:15.203,,-326,814,92
14:46:15.239,,-259,625,125
14:46:15.276,,-234,575,236
14:46:15.313,,-380,785,238
14:46:15.349,,-475,998,27
14:46:15.386,,-399,1032,120
14:46:15.423,,-316,1217,197
14:46:15.460,,-398,1214,231
14:46:15.496,,-282,1223,178
14:46:15.533,,-285,986,-105
14:46:15.570,,-266,1008,-162
14:46:15.606,,-208,1106,-200
14:46:15.643,,-278,833,-67
14:46:15.680,,-321,716,-15
14:46:15.716,,-318,542,58
14:46:15.753,,-287,670,176
14:46:15.790,,-297,835,162
14:46:15.826,,-309,866,33
14:46:15.863,,-352,1014,-17
14:46:15.900,,-311,1093,63
14:46:15.937,,-355,1187,96
14:46:15.973,,-283,1125,121
14:46:16.010,,-136,986,58
14:46:16.047,,-95,1088,25
14:46:16.083,,-54,1019,29
14:46:16.120,,-134,971,40
14:46:16.157,,-214,726,164
14:46:16.193,,-274,702,132
14:46:16.230,,-295,614,143
14:46:16.267,,-298,669,152
14:46:16.304,,-345,887,205
14:46:16.340,,-357,964,198
14:46:16.377,,-339,1027,152
14:46:16.414,,-357,1085,162
14:46:16.450,,-435,1148,100
14:46:16.487,,-429,1222,-28
14:46:16.524,,-296,1116,-37
14:46:16.560,,-253,1106,-72
14:46:16.597,,-176,952,-68
14:46:16.634,,-282,882,-62
14:46:16.670,,-346,677,54
14:46:16.707,,-331,709,127
14:46:16.744,,-328,657,163
14:46:16.780,,-302,689,92
14:46:16.817,,-359,829,75
14:46:16.854,,-397,970,89
14:46:16.890,,-323,996,121
14:46:16.927,,-330,1092,138
14:46:16.964,,-391,1326,97
14:46:17.001,,-191,932,218
14:46:17.037,,-147,984,55
14:46:17.074,,-183,1280,11
14:46:17.111,,-55,844,83
14:46:17.147,,-164,761,122
14:46:17.184,,-260,727,140
14:46:17.221,,-290,667,153
14:46:17.257,,-298,696,200
14:46:17.294,,-391,789,169
14:46:17.331,,-384,843,157
14:46:17.368,,-378,933,125
14:46:17.404,,-412,1081,89
14:46:17.441,,-470,1172,103
14:46:17.478,,-410,1220,42
14:46:17.514,,-309,1145,-80
14:46:17.551,,-323,1016,-127
14:46:17.588,,-318,1029,-225
14:46:17.624,,-291,709,-76
14:46:17.661,,-300,745,-4
14:46:17.698,,-340,746,32
14:46:17.734,,-321,648,82
14:46:17.771,,-316,693,120
14:46:17.808,,-334,760,58
14:46:17.844,,-430,911,-48
14:46:17.881,,-387,1064,-30
14:46:17.918,,-362,1147,110
14:46:17.954,,-362,1230,122
14:46:17.991,,-243,1135,98
14:46:18.028,,-151,1008,-70
14:46:18.065,,-199,1112,-53
14:46:18.101,,-70,930,19
14:46:18.138,,-103,793,18
14:46:18.175,,-162,874,100
14:46:18.211,,-184,750,151
14:46:18.248,,-203,700,102
14:46:18.285,,-334,805,72
14:46:18.322,,-350,734,149
14:46:18.358,,-355,901,131
14:46:18.395,,-320,979,121
14:46:18.432,,-281,1166,47
14:46:18.468,,-435,1318,7
14:46:18.505,,-326,1195,15
14:46:18.542,,-357,1057,-79
14:46:18.578,,-368,924,-160
14:46:18.615,,-295,886,-193
14:46:18.652,,-248,878,-139
14:46:18.688,,-267,794,-85
14:46:18.725,,-280,685,-51
14:46:18.762,,-278,677,12
14:46:18.799,,-291,738,56
14:46:18.835,,-271,803,42
14:46:18.872,,-340,970,-42
14:46:18.909,,-329,1114,-48
14:46:18.945,,-293,1186,-11
14:46:18.982,,-253,1295,3
14:46:19.019,,-142,1113,-16
14:46:19.056,,-166,942,-56
14:46:19.092,,-138,1066,-73
14:46:19.129,,-73,922,-72
14:46:19.166,,-110,838,0
14:46:19.202,,-164,757,71
14:46:19.239,,-233,769,89
14:46:19.276,,-296,754,98
14:46:19.312,,-334,765,118
14:46:19.349,,-379,935,96
14:46:19.386,,-303,919,164
14:46:19.423,,-328,1092,107
14:46:19.459,,-421,1195,40
14:46:19.496,,-436,1187,17
14:46:19.533,,-349,1016,-70
14:46:19.569,,-366,1015,-194
14:46:19.606,,-298,994,-224
14:46:19.643,,-160,806,-97
14:46:19.679,,-240,877,-83
14:46:19.716,,-321,747,28
14:46:19.753,,-350,704,89
14:46:19.789,,-371,689,63
14:46:19.826,,-349,763,27
14:46:19.863,,-369,932,4
14:46:19.899,,-363,978,1
14:46:19.936,,-375,1052,35
14:46:19.973,,-430,1141,33
14:46:20.009,,-341,1131,38
14:46:20.046,,-188,970,-20
14:46:20.083,,-203,1177,-34
14:46:20.119,,-165,981,11
14:46:20.156,,-223,740,94
14:46:20.193,,-279,772,112
14:46:20.229,,-264,701,147
14:46:20.266,,-182,671,224
14:46:20.303,,-239,697,247
14:46:20.339,,-398,1028,123
14:46:20.376,,-370,921,180
14:46:20.413,,-443,1016,118
14:46:20.449,,-508,1083,87
14:46:20.486,,-520,1105,57
14:46:20.523,,-371,1177,-144
14:46:20.559,,-396,1056,-223
14:46:20.596,,-314,962,-152
14:46:20.633,,-276,843,-42
14:46:20.669,,-280,737,50
14:46:20.706,,-293,717,109
14:46:20.743,,-304,686,143
14:46:20.780,,-345,779,49
14:46:20.816,,-332,738,67
14:46:20.853,,-414,894,27
14:46:20.890,,-336,962,128
14:46:20.926,,-381,1209,26
14:46:20.963,,-322,1067,90
14:46:21.000,,-388,1132,39
14:46:21.036,,-267,975,28
14:46:21.073,,-201,972,93
14:46:21.110,,-84,1037,38
14:46:21.146,,-93,1008,4
14:46:21.183,,-194,793,127
14:46:21.220,,-262,712,170
14:46:21.256,,-294,703,175
14:46:21.293,,-381,810,183
14:46:21.330,,-373,885,185
14:46:21.367,,-368,996,178
14:46:21.403,,-416,1082,150
14:46:21.440,,-484,1206,130
14:46:21.477,,-416,1182,65
14:46:21.513,,-306,1027,-37
14:46:21.550,,-361,1077,-105
14:46:21.587,,-265,976,-76
14:46:21.623,,-240,794,-34
14:46:21.660,,-261,749,0
14:46:21.697,,-265,719,58
14:46:21.733,,-259,678,147
14:46:21.770,,-239,725,134
14:46:21.807,,-175,640,126
14:46:21.843,,-101,600,152
14:46:21.880,,-45,611,219
14:46:21.917,,237,583,212
14:46:21.954,,548,583,84
14:46:21.990,,891,886,-16
14:46:22.027,,1031,819,-43
14:46:22.063,,1131,921,65
14:46:22.099,,1497,888,88
14:46:22.135,,1421,847,160
14:46:22.171,,1147,610,206
14:46:22.207,,905,391,209
14:46:22.243,,757,396,209
14:46:22.278,,680,554,264
14:46:22.314,,728,749,381
14:46:22.350,,828,799,411
14:46:22.385,,947,688,393
14:46:22.421,,1062,576,379
14:46:22.457,,1120,642,481
14:46:22.493,,1071,681,489
14:46:22.529,,1324,595,285
14:46:22.564,,1416,445,182
14:46:22.600,,1209,332,193
14:46:22.636,,1042,320,227
14:46:22.672,,907,328,205
14:46:22.708,,787,292,91
14:46:22.744,,727,296,30
14:46:22.780,,707,243,39
14:46:22.817,,732,238,57
14:46:22.853,,822,273,97
14:46:22.890,,886,326,182
14:46:22.926,,981,347,198
14:46:22.962,,1084,417,257
14:46:22.997,,1041,426,347
14:46:23.033,,1286,545,378
14:46:23.069,,1272,466,323
14:46:23.105,,1015,378,289
14:46:23.141,,783,249,337
14:46:23.177,,675,361,396
14:46:23.213,,700,486,411
14:46:23.248,,738,543,412
14:46:23.284,,830,538,412
14:46:23.320,,937,516,393
14:46:23.356,,990,551,358
14:46:23.392,,1021,663,402
14:46:23.428,,953,764,493
14:46:23.464,,1114,705,372
14:46:23.500,,1405,545,231
14:46:23.536,,1245,347,231
14:46:23.572,,1079,274,200
14:46:23.609,,930,277,165
14:46:23.645,,818,347,150
14:46:23.680,,824,363,134
14:46:23.715,,829,302,101
14:46:23.751,,796,248,74
14:46:23.786,,821,273,119
14:46:23.821,,889,281,163
14:46:23.856,,939,299,179
14:46:23.891,,1003,345,228
14:46:23.927,,927,379,301
14:46:23.963,,1159,541,383
14:46:23.999,,1219,530,420
14:46:24.035,,923,471,410
14:46:24.071,,732,237,348
14:46:24.106,,730,170,342
14:46:24.142,,734,306,354
14:46:24.178,,749,415,372
14:46:24.214,,786,532,392
14:46:24.250,,904,635,438
14:46:24.285,,1055,640,439
14:46:24.321,,1114,633,451
14:46:24.356,,1081,664,533
14:46:24.392,,1043,612,469
14:46:24.428,,1262,522,302
14:46:24.464,,1346,405,276
14:46:24.500,,1137,264,240
14:46:24.536,,959,248,187
14:46:24.572,,774,275,151
14:46:24.608,,713,359,143
14:46:24.643,,742,356,111
14:46:24.678,,730,270,63
14:46:24.713,,739,227,62
14:46:24.748,,846,272,113
14:46:24.783,,959,299,146
14:46:24.818,,1113,359,164
14:46:24.854,,1023,394,234
14:46:24.890,,983,518,376
14:46:24.926,,1233,658,502
14:46:24.962,,1190,501,410
14:46:24.998,,895,197,298
14:46:25.034,,721,47,402
14:46:25.070,,699,305,436
14:46:25.106,,675,516,372
14:46:25.141,,686,597,387
14:46:25.176,,781,592,411
14:46:25.212,,910,542,404
14:46:25.247,,1085,543,379
14:46:25.283,,1206,686,471
14:46:25.318,,1083,700,521
14:46:25.354,,1151,543,346
14:46:25.390,,1252,409,233
14:46:25.426,,1133,329,225
14:46:25.462,,981,272,209
14:46:25.499,,837,277,188
14:46:25.534,,811,314,157
14:46:25.570,,852,316,110
14:46:25.605,,825,265,54
14:46:25.641,,780,229,37
14:46:25.676,,810,276,64
14:46:25.711,,868,367,144
14:46:25.746,,964,399,187
14:46:25.782,,1039,407,237
14:46:25.817,,941,419,325
14:46:25.853,,1162,485,344
14:46:25.890,,1143,373,286
14:46:25.926,,906,284,249
14:46:25.961,,762,199,273
14:46:25.997,,709,367,375
14:46:26.033,,718,491,436
14:46:26.069,,762,467,437
14:46:26.105,,857,476,448
14:46:26.141,,1020,488,446
14:46:26.176,,1144,573,398
14:46:26.212,,1164,727,484
14:46:26.248,,972,716,529
14:46:26.284,,1204,623,304
14:46:26.319,,1367,503,183
14:46:26.356,,1138,322,185
14:46:26.392,,1061,223,167
14:46:26.428,,974,230,116
14:46:26.464,,956,358,124
14:46:26.499,,987,391,84
14:46:26.535,,1099,417,65
14:46:26.570,,1084,434,151
14:46:26.605,,1032,390,162
14:46:26.641,,992,293,147
14:46:26.676,,815,165,130
14:46:26.712,,734,266,159
14:46:26.747,,834,396,241
14:46:26.784,,816,443,262
14:46:26.820,,724,398,239
14:46:26.856,,631,289,267
14:46:26.892,,621,289,307
14:46:26.928,,717,343,330
14:46:26.965,,846,434,401
14:46:27.000,,997,484,453
14:46:27.036,,1015,498,454
14:46:27.072,,1000,541,480
14:46:27.107,,1040,572,481
14:46:27.143,,1004,565,434
14:46:27.179,,1034,563,481
14:46:27.215,,997,561,504
14:46:27.250,,1022,517,416
14:46:27.286,,1202,467,345
14:46:27.322,,1188,366,258
14:46:27.359,,1036,306,180
14:46:27.395,,879,279,140
14:46:27.431,,795,287,121
14:46:27.467,,768,319,81
14:46:27.503,,818,325,39
14:46:27.539,,873,292,29
14:46:27.574,,872,297,40
14:46:27.610,,903,338,98
14:46:27.646,,997,344,114
14:46:27.682,,1047,354,140
14:46:27.718,,877,398,273
14:46:27.754,,1068,595,482
14:46:27.790,,1115,494,495
14:46:27.826,,868,303,369
14:46:27.862,,564,155,452
14:46:27.898,,576,161,552
14:46:27.934,,696,316,584
14:46:27.969,,685,479,704
14:46:28.005,,741,405,653
14:46:28.041,,908,442,554
14:46:28.077,,1103,500,434
14:46:28.112,,1151,566,320
14:46:28.148,,1311,719,366
14:46:28.184,,1203,651,294
14:46:28.220,,1324,582,190
14:46:28.257,,1273,435,144
14:46:28.293,,1114,318,120
14:46:28.329,,968,292,113
14:46:28.364,,899,312,114
14:46:28.400,,825,326,104
14:46:28.436,,772,315,92
14:46:28.472,,682,259,105
14:46:28.508,,671,274,143
14:46:28.545,,726,277,172
14:46:28.580,,800,284,177
14:46:28.615,,749,305,260
14:46:28.651,,866,345,316
14:46:28.687,,1056,423,383
14:46:28.723,,1210,479,477
14:46:28.759,,986,485,503
14:46:28.795,,800,355,448
14:46:28.831,,758,323,454
14:46:28.867,,775,391,446
14:46:28.902,,751,485,457
14:46:28.938,,798,547,460
14:46:28.974,,914,546,423
14:46:29.010,,925,530,366
14:46:29.045,,944,588,350
14:46:29.081,,1044,759,433
14:46:29.117,,1333,833,408
14:46:29.153,,1490,636,271
14:46:29.190,,1253,390,284
14:46:29.226,,1035,244,222
14:46:29.262,,985,271,156
14:46:29.297,,860,302,159
14:46:29.333,,789,310,172
14:46:29.369,,702,227,135
14:46:29.406,,608,172,93
14:46:29.443,,663,201,116
14:46:29.479,,766,266,169
14:46:29.516,,1066,381,204
14:46:29.551,,1051,423,330
14:46:29.587,,1151,527,458
14:46:29.623,,1439,595,437
14:46:29.659,,1185,383,281
14:46:29.695,,860,173,239
14:46:29.731,,753,207,295
14:46:29.767,,736,411,327
14:46:29.803,,746,519,365
14:46:29.838,,763,548,371
14:46:29.874,,878,496,298
14:46:29.910,,977,561,292
14:46:29.946,,992,740,334
14:46:29.982,,1120,998,490
14:46:30.018,,1035,825,428
14:46:30.054,,1345,621,289
14:46:30.090,,1405,456,235
14:46:30.127,,1282,268,213
14:46:30.163,,1092,252,227
14:46:30.199,,874,303,224
14:46:30.234,,738,377,173
14:46:30.269,,694,341,114
14:46:30.306,,706,261,68
14:46:30.341,,717,216,63
14:46:30.376,,833,254,121
14:46:30.411,,964,272,156
14:46:30.447,,1017,330,198
14:46:30.482,,1062,392,262
14:46:30.518,,971,448,338
14:46:30.554,,1187,501,364
14:46:30.591,,1372,468,321
14:46:30.627,,1009,397,333
14:46:30.663,,673,344,419
14:46:30.698,,644,341,449
14:46:30.734,,693,405,409
14:46:30.770,,713,415,394
14:46:30.806,,770,473,437
14:46:30.842,,862,525,442
14:46:30.878,,984,586,398
14:46:30.914,,1233,752,454
14:46:30.950,,1243,764,548
14:46:30.986,,1146,596,403
14:46:31.022,,1300,489,267
14:46:31.059,,1281,383,199
14:46:31.095,,1109,299,190
14:46:31.131,,903,273,188
14:46:31.167,,772,285,152
14:46:31.202,,774,303,92
14:46:31.237,,752,295,61
14:46:31.272,,742,261,50
14:46:31.307,,784,272,92
14:46:31.343,,850,305,153
14:46:31.378,,977,349,177
14:46:31.413,,1028,359,249
14:46:31.449,,878,381,370
14:46:31.486,,1184,504,437
14:46:31.522,,1287,410,379
14:46:31.558,,933,377,394
14:46:31.594,,701,289,455
14:46:31.630,,702,316,433
14:46:31.666,,683,431,398
14:46:31.701,,716,483,434
14:46:31.737,,814,504,408
14:46:31.773,,984,584,390
14:46:31.808,,985,605,376
14:46:31.844,,1085,671,421
14:46:31.880,,1179,772,501
14:46:31.916,,1053,611,392
14:46:31.952,,1300,499,287
14:46:31.989,,1265,379,258
14:46:32.025,,1099,323,226
14:46:32.061,,907,314,195
14:46:32.097,,746,302,159
14:46:32.132,,673,319,114
14:46:32.168,,695,299,83
14:46:32.203,,732,261,70
14:46:32.238,,801,257,66
14:46:32.273,,907,296,123
14:46:32.309,,1007,319,210
14:46:32.344,,1012,392,281
14:46:32.380,,931,440,337
14:46:32.416,,1207,485,350
14:46:32.453,,1097,433,335
14:46:32.488,,834,365,325
14:46:32.524,,724,269,317
14:46:32.560,,682,327,280
14:46:32.596,,688,413,277
14:46:32.632,,722,465,333
14:46:32.668,,811,552,423
14:46:32.704,,1008,628,505
14:46:32.740,,1131,589,496
14:46:32.776,,1205,549,517
14:46:32.812,,1160,563,581
14:46:32.848,,1151,456,423
14:46:32.884,,1236,398,284
14:46:32.919,,1217,361,284
14:46:32.955,,1090,307,217
14:46:32.991,,919,276,122
14:46:33.028,,766,279,81
14:46:33.064,,717,319,53
14:46:33.099,,738,347,27
14:46:33.135,,799,337,23
14:46:33.171,,909,314,21
14:46:33.206,,965,317,53
14:46:33.242,,957,351,116
14:46:33.278,,1000,385,151
14:46:33.313,,798,360,248
14:46:33.349,,856,434,307
14:46:33.385,,1093,468,371
14:46:33.421,,1015,429,421
14:46:33.457,,786,349,535
14:46:33.494,,721,139,575
14:46:33.530,,709,88,533
14:46:33.567,,694,236,504
14:46:33.603,,782,390,505
14:46:33.639,,936,485,502
14:46:33.675,,1151,564,433
14:46:33.711,,1170,640,436
14:46:33.747,,1162,711,523
14:46:33.783,,1023,705,495
14:46:33.819,,1100,552,261
14:46:33.855,,1233,380,163
14:46:33.890,,1084,260,190
14:46:33.926,,922,214,176
14:46:33.962,,766,216,131
14:46:33.999,,710,276,102
14:46:34.034,,760,318,73
14:46:34.070,,763,297,32
14:46:34.106,,794,285,34
14:46:34.141,,841,308,32
14:46:34.176,,886,419,111
14:46:34.212,,978,532,256
14:46:34.248,,1009,522,333
14:46:34.284,,853,528,451
14:46:34.320,,1071,406,365
14:46:34.356,,1149,238,263
14:46:34.392,,878,126,339
14:46:34.427,,670,140,436
14:46:34.463,,612,285,444
14:46:34.499,,594,446,451
14:46:34.535,,618,497,486
14:46:34.571,,722,440,483
14:46:34.607,,942,419,480
14:46:34.643,,1148,416,426
14:46:34.679,,1283,501,370
14:46:34.715,,1207,600,463
14:46:34.750,,1010,614,481
14:46:34.786,,1045,515,298
14:46:34.822,,1142,403,189
14:46:34.858,,1039,294,175
14:46:34.894,,852,246,166
14:46:34.930,,740,257,147
14:46:34.966,,697,304,105
14:46:35.002,,717,323,73
14:46:35.037,,736,303,64
14:46:35.073,,739,273,71
14:46:35.108,,828,326,112
14:46:35.143,,969,386,179
14:46:35.179,,1003,407,231
14:46:35.215,,1049,404,271
14:46:35.251,,975,375,331
14:46:35.287,,1101,353,339
14:46:35.323,,1172,342,327
14:46:35.359,,846,373,382
14:46:35.395,,656,366,428
14:46:35.431,,625,297,421
14:46:35.466,,587,333,412
14:46:35.502,,581,395,452
14:46:35.538,,684,420,466
14:46:35.574,,914,439,452
14:46:35.610,,1112,474,450
14:46:35.646,,1265,550,429
14:46:35.682,,1271,654,526
14:46:35.718,,1094,557,429
14:46:35.753,,1297,408,235
14:46:35.789,,1197,324,223
14:46:35.825,,1062,260,179
14:46:35.862,,829,269,154
14:46:35.898,,651,288,145
14:46:35.933,,596,301,116
14:46:35.968,,601,267,83
14:46:36.004,,644,218,65
14:46:36.039,,691,231,83
14:46:36.074,,810,297,131
14:46:36.110,,938,349,195
14:46:36.145,,1086,422,255
14:46:36.182,,1251,481,314
14:46:36.218,,1063,497,411
14:46:36.254,,1196,416,369
14:46:36.290,,1128,328,297
14:46:36.326,,925,264,249
14:46:36.362,,749,259,269
14:46:36.398,,631,407,325
14:46:36.434,,559,523,373
14:46:36.470,,574,503,402
14:46:36.506,,645,442,422
14:46:36.541,,814,426,445
14:46:36.577,,1070,444,435
14:46:36.613,,1276,537,454
14:46:36.649,,1271,615,544
14:46:36.685,,1079,474,386
14:46:36.721,,1255,382,211
14:46:36.757,,1265,359,192
14:46:36.793,,1074,293,195
14:46:36.829,,848,264,151
14:46:36.865,,668,235,107
14:46:36.902,,617,305,88
14:46:36.939,,709,332,75
14:46:36.976,,770,284,68
14:46:37.013,,834,261,67
14:46:37.049,,957,299,94
14:46:37.086,,1056,345,139
14:46:37.123,,1091,405,198
14:46:37.160,,944,386,276
14:46:37.197,,976,447,362
14:46:37.233,,1158,462,431
14:46:37.270,,980,338,393
14:46:37.307,,736,214,389
14:46:37.344,,653,182,429
14:46:37.380,,638,313,432
14:46:37.417,,599,423,458
14:46:37.454,,655,427,462
14:46:37.491,,795,447,459
14:46:37.528,,997,486,448
14:46:37.564,,1147,530,413
14:46:37.601,,1261,636,460
14:46:37.638,,1100,667,536
14:46:37.675,,1009,549,391
14:46:37.711,,1220,437,249
14:46:37.748,,1152,346,220
14:46:37.785,,1035,254,192
14:46:37.822,,838,231,162
14:46:37.859,,696,259,124
14:46:37.895,,647,318,90
14:46:37.932,,663,347,81
14:46:37.969,,696,304,83
14:46:38.006,,742,283,109
14:46:38.043,,886,296,155
14:46:38.079,,1015,340,204
14:46:38.116,,1160,391,256
14:46:38.153,,1111,395,319
14:46:38.190,,946,376,365
14:46:38.227,,1168,393,347
14:46:38.263,,1080,383,289
14:46:38.300,,828,339,262
14:46:38.337,,693,318,300
14:46:38.374,,708,441,335
14:46:38.411,,692,490,379
14:46:38.447,,739,412,405
14:46:38.484,,793,359,421
14:46:38.521,,868,463,376
14:46:38.558,,978,675,421
14:46:38.594,,1130,800,474
14:46:38.631,,1103,767,513
14:46:38.667,,1035,620,367
14:46:38.703,,1298,441,238
14:46:38.739,,1234,293,200
14:46:38.775,,1114,303,184
14:46:38.812,,974,339,174
14:46:38.848,,852,350,177
14:46:38.884,,818,345,125
14:46:38.919,,767,280,50
14:46:38.955,,703,252,38
14:46:38.990,,689,258,51
14:46:39.025,,751,298,74
14:46:39.060,,828,371,149
14:46:39.096,,950,417,233
14:46:39.132,,1008,458,336
14:46:39.168,,1037,449,380
14:46:39.204,,1326,406,356
14:46:39.240,,1186,268,349
14:46:39.276,,892,155,369
14:46:39.312,,730,170,405
14:46:39.348,,684,372,433
14:46:39.384,,661,504,451
14:46:39.420,,729,513,449
14:46:39.456,,813,495,466
14:46:39.491,,967,509,464
14:46:39.527,,1074,545,427
14:46:39.563,,1218,666,461
14:46:39.599,,1147,707,533
14:46:39.635,,1141,553,343
14:46:39.671,,1244,435,228
14:46:39.707,,1136,342,179
14:46:39.743,,1036,279,144
14:46:39.780,,889,281,128
14:46:39.816,,756,321,101
14:46:39.851,,698,354,72
14:46:39.887,,690,349,48
14:46:39.922,,717,304,42
14:46:39.957,,767,291,76
14:46:39.993,,873,321,146
14:46:40.028,,1042,356,181
14:46:40.064,,1164,370,233
14:46:40.100,,863,348,355
14:46:40.137,,1011,426,386
14:46:40.173,,1153,422,355
14:46:40.209,,1003,354,338
14:46:40.245,,790,258,343
14:46:40.281,,708,345,405
14:46:40.317,,711,504,449
14:46:40.353,,699,491,449
14:46:40.389,,741,410,437
14:46:40.425,,823,461,462
14:46:40.461,,1012,576,478
14:46:40.496,,1059,577,441
14:46:40.532,,1109,616,456
14:46:40.568,,1092,640,506
14:46:40.604,,1145,536,319
14:46:40.640,,1267,415,189
14:46:40.676,,1126,319,157
14:46:40.713,,946,299,157
14:46:40.749,,825,309,129
14:46:40.785,,747,351,100
14:46:40.821,,780,369,66
14:46:40.856,,780,314,47
14:46:40.892,,759,265,38
14:46:40.927,,837,316,87
14:46:40.963,,911,346,169
14:46:40.998,,962,383,226
14:46:41.034,,1041,356,287
14:46:41.070,,961,340,335
14:46:41.106,,929,332,376
14:46:41.142,,1093,372,380
14:46:41.178,,994,389,377
14:46:41.214,,818,368,393
14:46:41.250,,741,348,434
14:46:41.286,,736,390,466
14:46:41.322,,686,408,451
14:46:41.358,,698,438,471
14:46:41.394,,794,477,496
14:46:41.430,,955,512,491
14:46:41.466,,1033,511,444
14:46:41.502,,1168,598,455
14:46:41.538,,1150,668,527
14:46:41.574,,1098,542,346
14:46:41.610,,1223,495,264
14:46:41.646,,1159,422,231
14:46:41.682,,1033,382,202
14:46:41.718,,886,312,166
14:46:41.754,,782,292,120
14:46:41.790,,797,312,93
14:46:41.825,,840,296,67
14:46:41.861,,832,261,48
14:46:41.896,,862,274,76
14:46:41.931,,877,300,123
14:46:41.966,,878,337,160
14:46:42.002,,976,359,216
14:46:42.038,,879,402,359
14:46:42.074,,908,427,429
14:46:42.110,,1052,375,430
14:46:42.146,,1014,348,417
14:46:42.181,,884,343,474
14:46:42.217,,824,334,525
14:46:42.254,,805,377,502
14:46:42.290,,733,397,483
14:46:42.326,,703,420,483
14:46:42.362,,725,466,465
14:46:42.398,,871,530,454
14:46:42.434,,1011,533,419
14:46:42.469,,1098,528,395
14:46:42.505,,1122,583,469
14:46:42.541,,1017,574,424
14:46:42.577,,1197,503,276
14:46:42.613,,1222,390,247
14:46:42.649,,1078,303,181
14:46:42.685,,918,281,138
14:46:42.721,,746,288,139
14:46:42.756,,674,337,140
14:46:42.792,,732,337,112
14:46:42.828,,740,270,89
14:46:42.865,,751,263,120
14:46:42.901,,821,293,179
14:46:42.937,,936,313,242
14:46:42.972,,994,327,281
14:46:43.008,,1110,366,331
14:46:43.044,,1043,406,418
14:46:43.080,,1140,418,429
14:46:43.115,,1182,408,395
14:46:43.151,,915,368,371
14:46:43.187,,731,322,335
14:46:43.223,,678,382,353
14:46:43.259,,651,453,386
14:46:43.294,,631,443,399
14:46:43.330,,699,444,403
14:46:43.366,,794,468,412
14:46:43.402,,1056,544,394
14:46:43.437,,1252,642,455
14:46:43.473,,1149,663,544
14:46:43.509,,1068,535,396
14:46:43.545,,1193,427,274
14:46:43.580,,1201,360,227
14:46:43.616,,1110,288,202
14:46:43.652,,914,265,190
14:46:43.688,,757,287,159
14:46:43.723,,739,323,127
14:46:43.759,,751,309,91
14:46:43.796,,738,260,71
14:46:43.832,,793,286,111
14:46:43.868,,916,340,179
14:46:43.904,,987,367,205
14:46:43.940,,1093,383,242
14:46:43.975,,964,373,321
14:46:44.011,,946,381,327
14:46:44.047,,1195,421,318
14:46:44.083,,1068,420,334
14:46:44.119,,874,367,335
14:46:44.155,,748,337,356
14:46:44.190,,710,415,352
14:46:44.226,,670,451,373
14:46:44.262,,682,452,413
14:46:44.298,,751,470,437
14:46:44.334,,896,501,452
14:46:44.369,,1046,506,448
14:46:44.405,,1125,544,453
14:46:44.441,,1125,631,528
14:46:44.477,,1017,564,495
14:46:44.512,,1072,442,353
14:46:44.548,,1251,365,238
14:46:44.584,,1190,318,225
14:46:44.620,,1014,299,193
14:46:44.656,,834,284,142
14:46:44.692,,697,293,100
14:46:44.728,,666,339,62
14:46:44.763,,678,344,48
14:46:44.799,,713,305,56
14:46:44.834,,766,301,76
14:46:44.869,,814,299,118
14:46:44.905,,892,331,184
14:46:44.941,,1002,371,251
14:46:44.976,,1123,394,322
14:46:45.012,,1018,398,395
14:46:45.048,,1001,375,450
14:46:45.084,,1126,432,511
14:46:45.120,,960,404,496
14:46:45.156,,793,328,433
14:46:45.193,,734,337,454
14:46:45.229,,713,413,467
14:46:45.265,,702,414,419
14:46:45.301,,699,392,358
14:46:45.337,,735,449,363
14:46:45.373,,835,518,388
14:46:45.409,,988,527,353
14:46:45.445,,1170,559,368
